"view_history","rt","trial_type","trial_index","time_elapsed","internal_node_id","stimulus","response","portuguese","kreyol"
"[{""page_index"":0,""viewing_time"":11965}]","11965","instructions","0","11970","0.0-0.0","","","",""
"","null","html-keyboard-response","1","12596","0.0-1.0-0.0","+","null","",""
"","17371","audio-keyboard-response","2","30307","0.0-1.0-1.0","../audio/teste-vocab--61.mp3","n","iluminação","iliminasyon"
"","null","html-keyboard-response","3","30821","0.0-1.0-0.1","+","null","",""
"","7549","audio-keyboard-response","4","38436","0.0-1.0-1.1","../audio/teste-vocab--35.mp3","s","líquido","likid"
"","null","html-keyboard-response","5","38952","0.0-1.0-0.2","+","null","",""
"","7309","audio-keyboard-response","6","46355","0.0-1.0-1.2","../audio/teste-vocab--76.mp3","n","arquivar","achive"
"","null","html-keyboard-response","7","46872","0.0-1.0-0.3","+","null","",""
"","2891","audio-keyboard-response","8","49833","0.0-1.0-1.3","../audio/teste-vocab--53.mp3","s","orientar","oryante"
"","null","html-keyboard-response","9","50337","0.0-1.0-0.4","+","null","",""
"","2632","audio-keyboard-response","10","53048","0.0-1.0-1.4","../audio/teste-vocab--93.mp3","s","felino","leopa"
"","null","html-keyboard-response","11","53552","0.0-1.0-0.5","+","null","",""
"","5331","audio-keyboard-response","12","58949","0.0-1.0-1.5","../audio/teste-vocab--110.mp3","n","prodígio","pwodij"
"","null","html-keyboard-response","13","59462","0.0-1.0-0.6","+","null","",""
"","2589","audio-keyboard-response","14","62116","0.0-1.0-1.6","../audio/teste-vocab--99.mp3","n","arqueólogo","akeyológ"
"","null","html-keyboard-response","15","62622","0.0-1.0-0.7","+","null","",""
"","1859","audio-keyboard-response","16","64542","0.0-1.0-1.7","../audio/teste-vocab--67.mp3","s","corrimão","ranp"
"","null","html-keyboard-response","17","65062","0.0-1.0-0.8","+","null","",""
"","3909","audio-keyboard-response","18","69044","0.0-1.0-1.8","../audio/teste-vocab--102.mp3","s","arrogante","arogan"
"","null","html-keyboard-response","19","69557","0.0-1.0-0.9","+","null","",""
"","27120","audio-keyboard-response","20","96763","0.0-1.0-1.9","../audio/teste-vocab--24.mp3","s","acidente","aksidan"
"","null","html-keyboard-response","21","97272","0.0-1.0-0.10","+","null","",""
"","2480","audio-keyboard-response","22","99824","0.0-1.0-1.10","../audio/teste-vocab--07.mp3","s","abajur","lanp"
"","null","html-keyboard-response","23","100333","0.0-1.0-0.11","+","null","",""
"","2659","audio-keyboard-response","24","103059","0.0-1.0-1.11","../audio/teste-vocab--41.mp3","s","médico","doktè,"
"","null","html-keyboard-response","25","103562","0.0-1.0-0.12","+","null","",""
"","2891","audio-keyboard-response","26","106525","0.0-1.0-1.12","../audio/teste-vocab--88.mp3","s","portátil","pòtab"
"","null","html-keyboard-response","27","107042","0.0-1.0-0.13","+","null","",""
"","3541","audio-keyboard-response","28","110652","0.0-1.0-1.13","../audio/teste-vocab--62.mp3","n","carretel","bobin"
"","null","html-keyboard-response","29","111172","0.0-1.0-0.14","+","null","",""
"","3061","audio-keyboard-response","30","114329","0.0-1.0-1.14","../audio/teste-vocab--74.mp3","n","desilusão","dezilizyon"
"","null","html-keyboard-response","31","114842","0.0-1.0-0.15","+","null","",""
"","1640","audio-keyboard-response","32","116544","0.0-1.0-1.15","../audio/teste-vocab--49.mp3","s","humano","moun"
"","null","html-keyboard-response","33","117052","0.0-1.0-0.16","+","null","",""
"","1939","audio-keyboard-response","34","119059","0.0-1.0-1.16","../audio/teste-vocab--114.mp3","s","fragmentar","dechire"
"","null","html-keyboard-response","35","119572","0.0-1.0-0.17","+","null","",""
"","2189","audio-keyboard-response","36","121827","0.0-1.0-1.17","../audio/teste-vocab--126.mp3","s","ambulante","promennen"
"","null","html-keyboard-response","37","122342","0.0-1.0-0.18","+","null","",""
"","1629","audio-keyboard-response","38","124026","0.0-1.0-1.18","../audio/teste-vocab--30.mp3","s","pintor","pent"
"","null","html-keyboard-response","39","124542","0.0-1.0-0.19","+","null","",""
"","2400","audio-keyboard-response","40","127005","0.0-1.0-1.19","../audio/teste-vocab--66.mp3","s","cooperação","koperasyon"
"","null","html-keyboard-response","41","127512","0.0-1.0-0.20","+","null","",""
"","1880","audio-keyboard-response","42","129477","0.0-1.0-1.20","../audio/teste-vocab--125.mp3","s","lamaçal","labou"
"","null","html-keyboard-response","43","129992","0.0-1.0-0.21","+","null","",""
"","1912","audio-keyboard-response","44","131974","0.0-1.0-1.21","../audio/teste-vocab--33.mp3","s","uniforme","inifòm"
"","null","html-keyboard-response","45","132492","0.0-1.0-0.22","+","null","",""
"","1680","audio-keyboard-response","46","134234","0.0-1.0-1.22","../audio/teste-vocab--27.mp3","s","rio","rivyè"
"","null","html-keyboard-response","47","134741","0.0-1.0-0.23","+","null","",""
"","2160","audio-keyboard-response","48","136943","0.0-1.0-1.23","../audio/teste-vocab--103.mp3","s","utensílio","istansil"
"","null","html-keyboard-response","49","137462","0.0-1.0-0.24","+","null","",""
"","1659","audio-keyboard-response","50","139191","0.0-1.0-1.24","../audio/teste-vocab--03.mp3","s","balançar","balanse"
"","null","html-keyboard-response","51","139691","0.0-1.0-0.25","+","null","",""
"","1589","audio-keyboard-response","52","141336","0.0-1.0-1.25","../audio/teste-vocab--36.mp3","s","grupo","gwoup"
"","null","html-keyboard-response","53","141842","0.0-1.0-0.26","+","null","",""
"","1800","audio-keyboard-response","54","143705","0.0-1.0-1.26","../audio/teste-vocab--127.mp3","s","côncavo","konkav"
"","null","html-keyboard-response","55","144222","0.0-1.0-0.27","+","null","",""
"","1699","audio-keyboard-response","56","145990","0.0-1.0-1.27","../audio/teste-vocab--79.mp3","s","moldura"," chanbranl"
"","null","html-keyboard-response","57","146502","0.0-1.0-0.28","+","null","",""
"","1931","audio-keyboard-response","58","148515","0.0-1.0-1.28","../audio/teste-vocab--111.mp3","s","jubilosa","rejwisans"
"","null","html-keyboard-response","59","149022","0.0-1.0-0.29","+","null","",""
"","1709","audio-keyboard-response","60","150802","0.0-1.0-1.29","../audio/teste-vocab--47.mp3","s","envelope","anvlope"
"","null","html-keyboard-response","61","151322","0.0-1.0-0.30","+","null","",""
"","2259","audio-keyboard-response","62","153665","0.0-1.0-1.30","../audio/teste-vocab--75.mp3","s","carpinteiro","chapantye"
"","null","html-keyboard-response","63","154182","0.0-1.0-0.31","+","null","",""
"","1400","audio-keyboard-response","64","155649","0.0-1.0-1.31","../audio/teste-vocab--18.mp3","s","abelha","myèl"
"","null","html-keyboard-response","65","156151","0.0-1.0-0.32","+","null","",""
"","1621","audio-keyboard-response","66","157835","0.0-1.0-1.32","../audio/teste-vocab--96.mp3","s","árido","sechrès"
"","null","html-keyboard-response","67","158351","0.0-1.0-0.33","+","null","",""
"","1640","audio-keyboard-response","68","160051","0.0-1.0-1.33","../audio/teste-vocab--13.mp3","s","ambulância","anbilans"
"","null","html-keyboard-response","69","160562","0.0-1.0-0.34","+","null","",""
"","2560","audio-keyboard-response","70","163176","0.0-1.0-1.34","../audio/teste-vocab--34.mp3","s","tronco","twon"
"","null","html-keyboard-response","71","163692","0.0-1.0-0.35","+","null","",""
"","3011","audio-keyboard-response","72","166748","0.0-1.0-1.35","../audio/teste-vocab--19.mp3","s","hora","è"
"","null","html-keyboard-response","73","167257","0.0-1.0-0.36","+","null","",""
"","2859","audio-keyboard-response","74","170145","0.0-1.0-1.36","../audio/teste-vocab--122.mp3","s","transeunte","pasajè"
"","null","html-keyboard-response","75","170663","0.0-1.0-0.37","+","null","",""
"","2040","audio-keyboard-response","76","172772","0.0-1.0-1.37","../audio/teste-vocab--105.mp3","s","cítrico","sitrik"
"","null","html-keyboard-response","77","173291","0.0-1.0-0.38","+","null","",""
"","4389","audio-keyboard-response","78","177741","0.0-1.0-1.38","../audio/teste-vocab--73.mp3","s","ângulo","ang"
"","null","html-keyboard-response","79","178257","0.0-1.0-0.39","+","null","",""
"","2261","audio-keyboard-response","80","180611","0.0-1.0-1.39","../audio/teste-vocab--69.mp3","s","pingar","degoute"
"","null","html-keyboard-response","81","181122","0.0-1.0-0.40","+","null","",""
"","480","audio-keyboard-response","82","181672","0.0-1.0-1.40","../audio/teste-vocab--117.mp3","s","córnea","kòn"
"","null","html-keyboard-response","83","182192","0.0-1.0-0.41","+","null","",""
"","1600","audio-keyboard-response","84","183861","0.0-1.0-1.41","../audio/teste-vocab--82.mp3","s","roer","ronje"
"","null","html-keyboard-response","85","184368","0.0-1.0-0.42","+","null","",""
"","1440","audio-keyboard-response","86","185849","0.0-1.0-1.42","../audio/teste-vocab--107.mp3","s","elo","emay"
"","null","html-keyboard-response","87","186358","0.0-1.0-0.43","+","null","",""
"","3019","audio-keyboard-response","88","189466","0.0-1.0-1.43","../audio/teste-vocab--115.mp3","s","perpendicular","pèpandikilè"
"","null","html-keyboard-response","89","189972","0.0-1.0-0.44","+","null","",""
"","2149","audio-keyboard-response","90","192204","0.0-1.0-1.44","../audio/teste-vocab--89.mp3","s","classificar","klasifika"
"","null","html-keyboard-response","91","192707","0.0-1.0-0.45","+","null","",""
"","1781","audio-keyboard-response","92","194566","0.0-1.0-1.45","../audio/teste-vocab--85.mp3","s","trio","trio"
"","null","html-keyboard-response","93","195077","0.0-1.0-0.46","+","null","",""
"","1440","audio-keyboard-response","94","196581","0.0-1.0-1.46","../audio/teste-vocab--12.mp3","s","jaula","kaj"
"","null","html-keyboard-response","95","197093","0.0-1.0-0.47","+","null","",""
"","1520","audio-keyboard-response","96","198683","0.0-1.0-1.47","../audio/teste-vocab--55.mp3","s","bosque","forè"
"","null","html-keyboard-response","97","199195","0.0-1.0-0.48","+","null","",""
"","1851","audio-keyboard-response","98","201122","0.0-1.0-1.48","../audio/teste-vocab--51.mp3","s","recolher","kolekte"
"","null","html-keyboard-response","99","201639","0.0-1.0-0.49","+","null","",""
"","1411","audio-keyboard-response","100","203118","0.0-1.0-1.49","../audio/teste-vocab--45.mp3","s","dentista","dantis"
"","null","html-keyboard-response","101","203636","0.0-1.0-0.50","+","null","",""
"","1581","audio-keyboard-response","102","205278","0.0-1.0-1.50","../audio/teste-vocab--26.mp3","s","cotovelo","koud"
"","null","html-keyboard-response","103","205782","0.0-1.0-0.51","+","null","",""
"","1328","audio-keyboard-response","104","207185","0.0-1.0-1.51","../audio/teste-vocab--104.mp3","s","ira","pwal"
"","null","html-keyboard-response","105","207697","0.0-1.0-0.52","+","null","",""
"","1229","audio-keyboard-response","106","208987","0.0-1.0-1.52","../audio/teste-vocab--04.mp3","s","roda","wonn"
"","null","html-keyboard-response","107","209503","0.0-1.0-0.53","+","null","",""
"","1811","audio-keyboard-response","108","211388","0.0-1.0-1.53","../audio/teste-vocab--87.mp3","s","ave","zwazo"
"","null","html-keyboard-response","109","211898","0.0-1.0-0.54","+","null","",""
"","1819","audio-keyboard-response","110","213792","0.0-1.0-1.54","../audio/teste-vocab--68.mp3","s","surpreendido","sezi"
"","null","html-keyboard-response","111","214299","0.0-1.0-0.55","+","null","",""
"","1331","audio-keyboard-response","112","215685","0.0-1.0-1.55","../audio/teste-vocab--108.mp3","s","moradia","kay"
"","null","html-keyboard-response","113","216201","0.0-1.0-0.56","+","null","",""
"","1520","audio-keyboard-response","114","217786","0.0-1.0-1.56","../audio/teste-vocab--17.mp3","s","móvel","mobil"
"","null","html-keyboard-response","115","218302","0.0-1.0-0.57","+","null","",""
"","1291","audio-keyboard-response","116","219654","0.0-1.0-1.57","../audio/teste-vocab--16.mp3","s","pescoço","kou"
"","null","html-keyboard-response","117","220169","0.0-1.0-0.58","+","null","",""
"","1920","audio-keyboard-response","118","222153","0.0-1.0-1.58","../audio/teste-vocab--78.mp3","s","quarteto","qwatèt"
"","null","html-keyboard-response","119","222670","0.0-1.0-0.59","+","null","",""
"","2272","audio-keyboard-response","120","225006","0.0-1.0-1.59","../audio/teste-vocab--22.mp3","s","quebrado","kraze"
"","null","html-keyboard-response","121","225522","0.0-1.0-0.60","+","null","",""
"","2411","audio-keyboard-response","122","227990","0.0-1.0-1.60","../audio/teste-vocab--80.mp3","s","binóculo","longvi"
"","null","html-keyboard-response","123","228502","0.0-1.0-0.61","+","null","",""
"","1949","audio-keyboard-response","124","230521","0.0-1.0-1.61","../audio/teste-vocab--84.mp3","s","confiar","konfye"
"","null","html-keyboard-response","125","231033","0.0-1.0-0.62","+","null","",""
"","1941","audio-keyboard-response","126","233044","0.0-1.0-1.62","../audio/teste-vocab--09.mp3","s","vela","bouji"
"","null","html-keyboard-response","127","233552","0.0-1.0-0.63","+","null","",""
"","2051","audio-keyboard-response","128","235673","0.0-1.0-1.63","../audio/teste-vocab--95.mp3","s","submergir","plonje"
"","null","html-keyboard-response","129","236192","0.0-1.0-0.64","+","null","",""
"","2251","audio-keyboard-response","130","238509","0.0-1.0-1.64","../audio/teste-vocab--44.mp3","s","premiar","rekonpanse"
"","null","html-keyboard-response","131","239012","0.0-1.0-0.65","+","null","",""
"","1651","audio-keyboard-response","132","240733","0.0-1.0-1.65","../audio/teste-vocab--21.mp3","s","baleia","balèn"
"","null","html-keyboard-response","133","241242","0.0-1.0-0.66","+","null","",""
"","1581","audio-keyboard-response","134","242886","0.0-1.0-1.66","../audio/teste-vocab--15.mp3","s","flecha","flèch"
"","null","html-keyboard-response","135","243393","0.0-1.0-0.67","+","null","",""
"","2120","audio-keyboard-response","136","245581","0.0-1.0-1.67","../audio/teste-vocab--120.mp3","s","induzir","pwovoke"
"","null","html-keyboard-response","137","246091","0.0-1.0-0.68","+","null","",""
"","2029","audio-keyboard-response","138","248195","0.0-1.0-1.68","../audio/teste-vocab--124.mp3","s","obelisco","obelisk"
"","null","html-keyboard-response","139","248702","0.0-1.0-0.69","+","null","",""
"","2008","audio-keyboard-response","140","250780","0.0-1.0-1.69","../audio/teste-vocab--05.mp3","s","limpar","netwaye"
"","null","html-keyboard-response","141","251292","0.0-1.0-0.70","+","null","",""
"","461","audio-keyboard-response","142","251814","0.0-1.0-1.70","../audio/teste-vocab--128.mp3","s","incisivo","ensisiv"
"","null","html-keyboard-response","143","252332","0.0-1.0-0.71","+","null","",""
"","1931","audio-keyboard-response","144","254330","0.0-1.0-1.71","../audio/teste-vocab--116.mp3","s","vestuário","vestyè"
"","null","html-keyboard-response","145","254843","0.0-1.0-0.72","+","null","",""
"","1821","audio-keyboard-response","146","256719","0.0-1.0-1.72","../audio/teste-vocab--25.mp3","s","canguru","kanguwou"
"","null","html-keyboard-response","147","257233","0.0-1.0-0.73","+","null","",""
"","1811","audio-keyboard-response","148","259109","0.0-1.0-1.73","../audio/teste-vocab--100.mp3","s","consumir","konsome"
"","null","html-keyboard-response","149","259612","0.0-1.0-0.74","+","null","",""
"","869","audio-keyboard-response","150","260541","0.0-1.0-1.74","../audio/teste-vocab--29.mp3","s","rasgar","chire"
"","null","html-keyboard-response","151","261042","0.0-1.0-0.75","+","null","",""
"","2011","audio-keyboard-response","152","263113","0.0-1.0-1.75","../audio/teste-vocab--70.mp3","s","funil","antónwa"
"","null","html-keyboard-response","153","263632","0.0-1.0-0.76","+","null","",""
"","1640","audio-keyboard-response","154","265338","0.0-1.0-1.76","../audio/teste-vocab--38.mp3","s","cerimônia","seremoni"
"","null","html-keyboard-response","155","265845","0.0-1.0-0.77","+","null","",""
"","1861","audio-keyboard-response","156","267774","0.0-1.0-1.77","../audio/teste-vocab--106.mp3","s","lubrificar","grese"
"","null","html-keyboard-response","157","268282","0.0-1.0-0.78","+","null","",""
"","1589","audio-keyboard-response","158","269941","0.0-1.0-1.78","../audio/teste-vocab--97.mp3","s","frágil","frajil"
"","null","html-keyboard-response","159","270461","0.0-1.0-0.79","+","null","",""
"","1531","audio-keyboard-response","160","272053","0.0-1.0-1.79","../audio/teste-vocab--39.mp3","s","cobra","koulèv"
"","null","html-keyboard-response","161","272572","0.0-1.0-0.80","+","null","",""
"","1989","audio-keyboard-response","162","274616","0.0-1.0-1.80","../audio/teste-vocab--71.mp3","s","caule","tij"
"","null","html-keyboard-response","163","275132","0.0-1.0-0.81","+","null","",""
"","2051","audio-keyboard-response","164","277244","0.0-1.0-1.81","../audio/teste-vocab--56.mp3","s","agricultura","agrikilti"
"","null","html-keyboard-response","165","277752","0.0-1.0-0.82","+","null","",""
"","752","audio-keyboard-response","166","278574","0.0-1.0-1.82","../audio/teste-vocab--42.mp3","s","isolamento","izòlman"
"","null","html-keyboard-response","167","279083","0.0-1.0-0.83","+","null","",""
"","1672","audio-keyboard-response","168","280807","0.0-1.0-1.83","../audio/teste-vocab--130.mp3","s","gentil","dou"
"","null","html-keyboard-response","169","281312","0.0-1.0-0.84","+","null","",""
"","2368","audio-keyboard-response","170","283737","0.0-1.0-1.84","../audio/teste-vocab--43.mp3","s","mecânico","mekanisyen"
"","null","html-keyboard-response","171","284237","0.0-1.0-0.85","+","null","",""
"","1840","audio-keyboard-response","172","286141","0.0-1.0-1.85","../audio/teste-vocab--90.mp3","s","carniça","kanivò"
"","null","html-keyboard-response","173","286652","0.0-1.0-0.86","+","null","",""
"","2021","audio-keyboard-response","174","288728","0.0-1.0-1.86","../audio/teste-vocab--11.mp3","s","joelho","jenou"
"","null","html-keyboard-response","175","289242","0.0-1.0-0.87","+","null","",""
"","1880","audio-keyboard-response","176","291195","0.0-1.0-1.87","../audio/teste-vocab--121.mp3","s","atônito","sezi"
"","null","html-keyboard-response","177","291697","0.0-1.0-0.88","+","null","",""
"","1939","audio-keyboard-response","178","293697","0.0-1.0-1.88","../audio/teste-vocab--46.mp3","s","ombro","zepòl"
"","null","html-keyboard-response","179","294212","0.0-1.0-0.89","+","null","",""
"","1301","audio-keyboard-response","180","295572","0.0-1.0-1.89","../audio/teste-vocab--59.mp3","s","par","pè"
"","null","html-keyboard-response","181","296092","0.0-1.0-0.90","+","null","",""
"","1891","audio-keyboard-response","182","298038","0.0-1.0-1.90","../audio/teste-vocab--37.mp3","s","músico","mizisyen"
"","null","html-keyboard-response","183","298552","0.0-1.0-0.91","+","null","",""
"","3400","audio-keyboard-response","184","301993","0.0-1.0-1.91","../audio/teste-vocab--118.mp3","s","paralelogramo","paralelogram"
"","null","html-keyboard-response","185","302511","0.0-1.0-0.92","+","null","",""
"","2709","audio-keyboard-response","186","305273","0.0-1.0-1.92","../audio/teste-vocab--65.mp3","s","discussão","diskisyon"
"","null","html-keyboard-response","187","305781","0.0-1.0-0.93","+","null","",""
"","2040","audio-keyboard-response","188","307865","0.0-1.0-1.93","../audio/teste-vocab--57.mp3","s","raiz","rasin"
"","null","html-keyboard-response","189","308372","0.0-1.0-0.94","+","null","",""
"","1891","audio-keyboard-response","190","310306","0.0-1.0-1.94","../audio/teste-vocab--40.mp3","s","bebida","bwason"
"","null","html-keyboard-response","191","310821","0.0-1.0-0.95","+","null","",""
"","2141","audio-keyboard-response","192","313000","0.0-1.0-1.95","../audio/teste-vocab--20.mp3","s","medir","mezire"
"","null","html-keyboard-response","193","313512","0.0-1.0-0.96","+","null","",""
"","2171","audio-keyboard-response","194","315736","0.0-1.0-1.96","../audio/teste-vocab--52.mp3","s","construção","konstriksyon"
"","null","html-keyboard-response","195","316247","0.0-1.0-0.97","+","null","",""
"","1939","audio-keyboard-response","196","318217","0.0-1.0-1.97","../audio/teste-vocab--72.mp3","s","ilha","zile"
"","null","html-keyboard-response","197","318732","0.0-1.0-0.98","+","null","",""
"","1869","audio-keyboard-response","198","320669","0.0-1.0-1.98","../audio/teste-vocab--98.mp3","s","instruir","enstwi"
"","null","html-keyboard-response","199","321177","0.0-1.0-0.99","+","null","",""
"","2019","audio-keyboard-response","200","323261","0.0-1.0-1.99","../audio/teste-vocab--113.mp3","s","ascender","limen"
"","null","html-keyboard-response","201","323776","0.0-1.0-0.100","+","null","",""
"","1869","audio-keyboard-response","202","325720","0.0-1.0-1.100","../audio/teste-vocab--86.mp3","s","pensar","panse"
"","null","html-keyboard-response","203","326223","0.0-1.0-0.101","+","null","",""
"","4200","audio-keyboard-response","204","330494","0.0-1.0-1.101","../audio/teste-vocab--58.mp3","s","nutritivo","nourisan"
"","null","html-keyboard-response","205","331006","0.0-1.0-0.102","+","null","",""
"","2309","audio-keyboard-response","206","333395","0.0-1.0-1.102","../audio/teste-vocab--83.mp3","n","morsa","mòs"
"","null","html-keyboard-response","207","333912","0.0-1.0-0.103","+","null","",""
"","1891","audio-keyboard-response","208","335871","0.0-1.0-1.103","../audio/teste-vocab--50.mp3","s","artista","atis"
"","null","html-keyboard-response","209","336383","0.0-1.0-0.104","+","null","",""
"","2701","audio-keyboard-response","210","339166","0.0-1.0-1.104","../audio/teste-vocab--101.mp3","s","incandescente","enkandesan"
"","null","html-keyboard-response","211","339673","0.0-1.0-0.105","+","null","",""
"","2891","audio-keyboard-response","212","342633","0.0-1.0-1.105","../audio/teste-vocab--129.mp3","n","elipse","elips"
"","null","html-keyboard-response","213","343152","0.0-1.0-0.106","+","null","",""
"","1971","audio-keyboard-response","214","345195","0.0-1.0-1.106","../audio/teste-vocab--119.mp3","s","numeroso","anpil"
"","null","html-keyboard-response","215","345702","0.0-1.0-0.107","+","null","",""
"","1720","audio-keyboard-response","216","347491","0.0-1.0-1.107","../audio/teste-vocab--02.mp3","s","homem","gason"
"","null","html-keyboard-response","217","347993","0.0-1.0-0.108","+","null","",""
"","1451","audio-keyboard-response","218","349507","0.0-1.0-1.108","../audio/teste-vocab--48.mp3","s","joia","bijou"
"","null","html-keyboard-response","219","350013","0.0-1.0-0.109","+","null","",""
"","1320","audio-keyboard-response","220","351396","0.0-1.0-1.109","../audio/teste-vocab--14.mp3","s","ler","li"
"","null","html-keyboard-response","221","351902","0.0-1.0-0.110","+","null","",""
"","1360","audio-keyboard-response","222","353324","0.0-1.0-1.110","../audio/teste-vocab--92.mp3","s","esférico","won"
"","null","html-keyboard-response","223","353838","0.0-1.0-0.111","+","null","",""
"","2029","audio-keyboard-response","224","355946","0.0-1.0-1.111","../audio/teste-vocab--81.mp3","s","judicial","jidisyè"
"","null","html-keyboard-response","225","356453","0.0-1.0-0.112","+","null","",""
"","2232","audio-keyboard-response","226","358774","0.0-1.0-1.112","../audio/teste-vocab--63.mp3","s","transparente","transparan"
"","null","html-keyboard-response","227","359282","0.0-1.0-0.113","+","null","",""
"","2389","audio-keyboard-response","228","361760","0.0-1.0-1.113","../audio/teste-vocab--109.mp3","s","anfíbio","anfibyen"
"","null","html-keyboard-response","229","362273","0.0-1.0-0.114","+","null","",""
"","1341","audio-keyboard-response","230","363679","0.0-1.0-1.114","../audio/teste-vocab--28.mp3","s","águia","èg"
"","null","html-keyboard-response","231","364182","0.0-1.0-0.115","+","null","",""
"","1741","audio-keyboard-response","232","366005","0.0-1.0-1.115","../audio/teste-vocab--123.mp3","s","emissão","emisyon"
"","null","html-keyboard-response","233","366512","0.0-1.0-0.116","+","null","",""
"","1832","audio-keyboard-response","234","368407","0.0-1.0-1.116","../audio/teste-vocab--32.mp3","s","descascar","dekale"
"","null","html-keyboard-response","235","368922","0.0-1.0-0.117","+","null","",""
"","1611","audio-keyboard-response","236","370605","0.0-1.0-1.117","../audio/teste-vocab--77.mp3","s","comércio","komès"
"","null","html-keyboard-response","237","371122","0.0-1.0-0.118","+","null","",""
"","1851","audio-keyboard-response","238","373027","0.0-1.0-1.118","../audio/teste-vocab--31.mp3","s","vazio","vid"
"","null","html-keyboard-response","239","373542","0.0-1.0-0.119","+","null","",""
"","1240","audio-keyboard-response","240","374808","0.0-1.0-1.119","../audio/teste-vocab--23.mp3","s","acariciar","karese"
"","null","html-keyboard-response","241","375313","0.0-1.0-0.120","+","null","",""
"","1821","audio-keyboard-response","242","377204","0.0-1.0-1.120","../audio/teste-vocab--64.mp3","s","colher","kiyè"
"","null","html-keyboard-response","243","377717","0.0-1.0-0.121","+","null","",""
"","3771","audio-keyboard-response","244","381547","0.0-1.0-1.121","../audio/teste-vocab--91.mp3","n","bússola","bousòl"
"","null","html-keyboard-response","245","382052","0.0-1.0-0.122","+","null","",""
"","2760","audio-keyboard-response","246","384880","0.0-1.0-1.122","../audio/teste-vocab--08.mp3","n","vaca","vach"
"","null","html-keyboard-response","247","385392","0.0-1.0-0.123","+","null","",""
"","2760","audio-keyboard-response","248","388244","0.0-1.0-1.123","../audio/teste-vocab--112.mp3","s","aparição","aparisyon"
"","null","html-keyboard-response","249","388752","0.0-1.0-0.124","+","null","",""
"","1408","audio-keyboard-response","250","390224","0.0-1.0-1.124","../audio/teste-vocab--10.mp3","s","corneta","kòn"
"","null","html-keyboard-response","251","390732","0.0-1.0-0.125","+","null","",""
"","2200","audio-keyboard-response","252","393009","0.0-1.0-1.125","../audio/teste-vocab--94.mp3","s","paralelo","paralèl"
"","null","html-keyboard-response","253","393522","0.0-1.0-0.126","+","null","",""
"","1752","audio-keyboard-response","254","395331","0.0-1.0-1.126","../audio/teste-vocab--01.mp3","s","boneca","pope"
"","null","html-keyboard-response","255","395842","0.0-1.0-0.127","+","null","",""
"","1920","audio-keyboard-response","256","397828","0.0-1.0-1.127","../audio/teste-vocab--54.mp3","s","arbusto","raje"
"","null","html-keyboard-response","257","398332","0.0-1.0-0.128","+","null","",""
"","1731","audio-keyboard-response","258","400135","0.0-1.0-1.128","../audio/teste-vocab--06.mp3","s","barco","bato"
"","null","html-keyboard-response","259","400652","0.0-1.0-0.129","+","null","",""
"","2139","audio-keyboard-response","260","402867","0.0-1.0-1.129","../audio/teste-vocab--60.mp3","s","secretaria","sekretè"
