"view_history","rt","trial_type","trial_index","time_elapsed","internal_node_id","stimulus","response","trial_part","word","question","answer","trial","accuracy"
"[{""page_index"":0,""viewing_time"":1102},{""page_index"":1,""viewing_time"":770}]","1872","instructions","0","1876","0.0-0.0","","","","","","","",""
"","null","html-keyboard-response","1","2999","0.0-1.0-0.0-0.0","<span style= ""font-size:30px; font-family: monospace"">+</span>","null","fixation","","","","",""
"","861","audio-keyboard-response","2","4648","0.0-1.0-1.0","../audio/prac-question-1-1.mp3"," ","","O","","","",""
"","1592","audio-keyboard-response","3","6774","0.0-1.0-1.1","../audio/prac-question-1-2.mp3"," ","","dia","","","",""
"","1808","audio-keyboard-response","4","8948","0.0-1.0-1.2","../audio/prac-question-1-3.mp3"," ","","estará","","","",""
"","1760","audio-keyboard-response","5","11168","0.0-1.0-1.3","../audio/prac-question-1-4.mp3"," ","","cheio","","","",""
"","1640","audio-keyboard-response","6","13410","0.0-1.0-1.4","../audio/prac-question-1-5.mp3"," ","","de","","","",""
"","2120","audio-keyboard-response","7","15896","0.0-1.0-1.5","../audio/prac-question-1-6.mp3"," ","","nuvens","","","",""
"","1589","audio-keyboard-response","8","17909","0.0-1.0-1.6","../audio/prac-question-1-7.mp3"," ","","hoje.","","","",""
"","null","html-keyboard-response","9","19177","0.0-1.0-0.7-0.7","<span style= ""font-size:30px; font-family: monospace"">+</span>","null","fixation","","","","",""
"","1739","audio-keyboard-response","10","21351","0.0-1.0-1.7","../audio/prac-question-2-1.mp3"," ","","A","","","",""
"","2029","audio-keyboard-response","11","24206","0.0-1.0-1.8","../audio/prac-question-2-2.mp3"," ","","caneca","","","",""
"","3680","audio-keyboard-response","12","28317","0.0-1.0-1.9","../audio/prac-question-2-3.mp3"," ","","colorida","","","",""
"","3048","audio-keyboard-response","13","31819","0.0-1.0-1.10","../audio/prac-question-2-4.mp3"," ","","caiu","","","",""
"","1629","audio-keyboard-response","14","33917","0.0-1.0-1.11","../audio/prac-question-2-5.mp3"," ","","da","","","",""
"","1931","audio-keyboard-response","15","36391","0.0-1.0-1.12","../audio/prac-question-2-6.mp3"," ","","mesa","","","",""
"","1560","audio-keyboard-response","16","38377","0.0-1.0-1.13","../audio/prac-question-2-7.mp3"," ","","de","","","",""
"","2040","audio-keyboard-response","17","40791","0.0-1.0-1.14","../audio/prac-question-2-8.mp3"," ","","jantar.","","","",""
"","18830","html-keyboard-response","18","59886","0.0-1.0-2.14-0.14","<span style=""font-size:25px; font-family: monospace"">A caneca era colorida?</span>","s","","","A caneca era colorida?","null","prac-sent","false"
"[{""page_index"":0,""viewing_time"":30561}]","30561","instructions","19","90961","0.0-2.0","","","","","","","",""
"","null","html-keyboard-response","20","92092","0.0-3.0-0.0-0.0","<span style= ""font-size:30px; font-family: monospace"">+</span>","null","fixation","","","","",""
"","1701","audio-keyboard-response","21","94240","0.0-3.0-1.0","../audio/44-1-masc.mp3"," ","","Meus","","","",""
"","1640","audio-keyboard-response","22","96334","0.0-3.0-1.1","../audio/44-2-masc.mp3"," ","","irmãos","","","",""
"","1429","audio-keyboard-response","23","98227","0.0-3.0-1.2","../audio/44-3-masc.mp3"," ","","brigam","","","",""
"","1232","audio-keyboard-response","24","99811","0.0-3.0-1.3","../audio/44-4-masc.mp3"," ","","por","","","",""
"","1469","audio-keyboard-response","25","101648","0.0-3.0-1.4","../audio/44-5-masc.mp3"," ","","bobagem","","","",""
"","1400","audio-keyboard-response","26","103410","0.0-3.0-1.5","../audio/44-6-masc.mp3"," ","","todos","","","",""
"","1621","audio-keyboard-response","27","105408","0.0-3.0-1.6","../audio/44-7-masc.mp3"," ","","os","","","",""
"","1699","audio-keyboard-response","28","107466","0.0-3.0-1.7","../audio/44-8-masc.mp3"," ","","dias.","","","",""
"","null","html-keyboard-response","29","108738","0.0-3.0-0.8-0.8","<span style= ""font-size:30px; font-family: monospace"">+</span>","null","fixation","","","","",""
"","1160","audio-keyboard-response","30","110443","0.0-3.0-1.8","../audio/41-1-masc.mp3"," ","","A","","","",""
"","1411","audio-keyboard-response","31","112205","0.0-3.0-1.9","../audio/41-2-masc.mp3"," ","","novela","","","",""
"","1259","audio-keyboard-response","32","113830","0.0-3.0-1.10","../audio/41-3-masc.mp3"," ","","falava","","","",""
"","1120","audio-keyboard-response","33","115317","0.0-3.0-1.11","../audio/41-4-masc.mp3"," ","","de","","","",""
"","1472","audio-keyboard-response","34","117175","0.0-3.0-1.12","../audio/41-5-masc.mp3"," ","","paixão","","","",""
"","1099","audio-keyboard-response","35","118620","0.0-3.0-1.13","../audio/41-6-masc.mp3"," ","","e","","","",""
"","1429","audio-keyboard-response","36","120420","0.0-3.0-1.14","../audio/41-7-masc.mp3"," ","","comédia.","","","",""
"","null","html-keyboard-response","37","121688","0.0-3.0-0.15-0.15","<span style= ""font-size:30px; font-family: monospace"">+</span>","null","fixation","","","","",""
"","1520","audio-keyboard-response","38","123719","0.0-3.0-1.15","../audio/43-1-fem.mp3"," ","","Eu","","","",""
"","1928","audio-keyboard-response","39","126059","0.0-3.0-1.16","../audio/43-2-fem.mp3"," ","","achei","","","",""
"","1200","audio-keyboard-response","40","127740","0.0-3.0-1.17","../audio/43-3-fem.mp3"," ","","um","","","",""
"","1632","audio-keyboard-response","41","129729","0.0-3.0-1.18","../audio/43-4-fem.mp3"," ","","colchão","","","",""
"","1480","audio-keyboard-response","42","131559","0.0-3.0-1.19","../audio/43-5-fem.mp3"," ","","velho","","","",""
"","1480","audio-keyboard-response","43","133396","0.0-3.0-1.20","../audio/43-6-fem.mp3"," ","","e","","","",""
"","1568","audio-keyboard-response","44","135339","0.0-3.0-1.21","../audio/43-7-fem.mp3"," ","","imundo","","","",""
"","1579","audio-keyboard-response","45","137259","0.0-3.0-1.22","../audio/43-8-fem.mp3"," ","","na","","","",""
"","1648","audio-keyboard-response","46","139268","0.0-3.0-1.23","../audio/43-9-fem.mp3"," ","","casa.","","","",""
"","null","html-keyboard-response","47","140556","0.0-3.0-0.24-0.24","<span style= ""font-size:30px; font-family: monospace"">+</span>","null","fixation","","","","",""
"","1259","audio-keyboard-response","48","142267","0.0-3.0-1.24","../audio/42-1-masc.mp3"," ","","Eu","","","",""
"","1088","audio-keyboard-response","49","143704","0.0-3.0-1.25","../audio/42-2-masc.mp3"," ","","fui","","","",""
"","1240","audio-keyboard-response","50","145290","0.0-3.0-1.26","../audio/42-3-masc.mp3"," ","","a","","","",""
"","1272","audio-keyboard-response","51","146934","0.0-3.0-1.27","../audio/42-4-masc.mp3"," ","","uma","","","",""
"","1480","audio-keyboard-response","52","148751","0.0-3.0-1.28","../audio/42-5-masc.mp3"," ","","loja","","","",""
"","1189","audio-keyboard-response","53","150281","0.0-3.0-1.29","../audio/42-6-masc.mp3"," ","","de","","","",""
"","1552","audio-keyboard-response","54","152171","0.0-3.0-1.30","../audio/42-7-masc.mp3"," ","","móveis","","","",""
"","1232","audio-keyboard-response","55","153733","0.0-3.0-1.31","../audio/42-8-masc.mp3"," ","","no","","","",""
"","1949","audio-keyboard-response","56","156022","0.0-3.0-1.32","../audio/42-9-masc.mp3"," ","","bairro.","","","",""
"","null","html-keyboard-response","57","157283","0.0-3.0-0.33-0.33","<span style= ""font-size:30px; font-family: monospace"">+</span>","null","fixation","","","","",""
"","1152","audio-keyboard-response","58","158849","0.0-3.0-1.33","../audio/45-1-fem.mp3"," ","","O","","","",""
"","1640","audio-keyboard-response","59","160868","0.0-3.0-1.34","../audio/45-2-fem.mp3"," ","","homem","","","",""
"","1760","audio-keyboard-response","60","162990","0.0-3.0-1.35","../audio/45-3-fem.mp3"," ","","pagou","","","",""
"","1312","audio-keyboard-response","61","164736","0.0-3.0-1.36","../audio/45-4-fem.mp3"," ","","o","","","",""
"","2040","audio-keyboard-response","62","167173","0.0-3.0-1.37","../audio/45-5-fem.mp3"," ","","aluguel","","","",""
"","1560","audio-keyboard-response","63","169210","0.0-3.0-1.38","../audio/45-6-fem.mp3"," ","","com","","","",""
"","1560","audio-keyboard-response","64","171129","0.0-3.0-1.39","../audio/45-7-fem.mp3"," ","","atraso.","","","",""
"","9258","html-keyboard-response","65","180645","0.0-3.0-2.39-0.39","<span style=""font-size:25px; font-family: monospace"">O homem pagou o aluguel em dia?</span>","s","","","O homem pagou o aluguel em dia?","null","exp-sent","false"
"","null","html-keyboard-response","66","182175","0.0-3.0-0.40-0.40","<span style= ""font-size:30px; font-family: monospace"">+</span>","null","fixation","","","","",""
"","2781","audio-keyboard-response","67","185410","0.0-3.0-1.40","../audio/73-1-fem.mp3"," ","","O","","","",""
"","1629","audio-keyboard-response","68","187484","0.0-3.0-1.41","../audio/73-2-fem.mp3"," ","","cliente","","","",""
"","1389","audio-keyboard-response","69","189594","0.0-3.0-1.42","../audio/73-3-fem.mp3"," ","","era","","","",""
"","1072","audio-keyboard-response","70","191011","0.0-3.0-1.43","../audio/73-4-fem.mp3"," ","","um","","","",""
"","1069","audio-keyboard-response","71","192425","0.0-3.0-1.44","../audio/73-5-fem.mp3"," ","","homem","","","",""
"","1200","audio-keyboard-response","72","193972","0.0-3.0-1.45","../audio/73-6-fem.mp3"," ","","muito","","","",""
"","1611","audio-keyboard-response","73","195953","0.0-3.0-1.46","../audio/73-7-fem.mp3"," ","","educado.","","","",""
"","null","html-keyboard-response","74","197226","0.0-3.0-0.47-0.47","<span style= ""font-size:30px; font-family: monospace"">+</span>","null","fixation","","","","",""
"","1349","audio-keyboard-response","75","199000","0.0-3.0-1.47","../audio/74-1-fem.mp3"," ","","Este","","","",""
"","2008","audio-keyboard-response","76","201382","0.0-3.0-1.48","../audio/74-2-fem.mp3"," ","","emprego","","","",""
"","1160","audio-keyboard-response","77","203009","0.0-3.0-1.49","../audio/74-3-fem.mp3"," ","","é","","","",""
"","1320","audio-keyboard-response","78","204681","0.0-3.0-1.50","../audio/74-4-fem.mp3"," ","","muito","","","",""
"","2672","audio-keyboard-response","79","207736","0.0-3.0-1.51","../audio/74-5-fem.mp3"," ","","cansativo","","","",""
"","1451","audio-keyboard-response","80","209652","0.0-3.0-1.52","../audio/74-6-fem.mp3"," ","","a","","","",""
"","1829","audio-keyboard-response","81","211834","0.0-3.0-1.53","../audio/74-7-fem.mp3"," ","","longo","","","",""
"","1312","audio-keyboard-response","82","213615","0.0-3.0-1.54","../audio/74-8-fem.mp3"," ","","prazo.","","","",""
"","null","html-keyboard-response","83","214876","0.0-3.0-0.55-0.55","<span style= ""font-size:30px; font-family: monospace"">+</span>","null","fixation","","","","",""
"","1632","audio-keyboard-response","84","216974","0.0-3.0-1.55","../audio/71-1-masc.mp3"," ","","Minhas","","","",""
"","1440","audio-keyboard-response","85","219015","0.0-3.0-1.56","../audio/71-2-masc.mp3"," ","","comidas","","","",""
"","1571","audio-keyboard-response","86","220952","0.0-3.0-1.57","../audio/71-3-masc.mp3"," ","","favoritas","","","",""
"","1192","audio-keyboard-response","87","222493","0.0-3.0-1.58","../audio/71-4-masc.mp3"," ","","são","","","",""
"","1451","audio-keyboard-response","88","224308","0.0-3.0-1.59","../audio/71-5-masc.mp3"," ","","morango","","","",""
"","1149","audio-keyboard-response","89","225828","0.0-3.0-1.60","../audio/71-6-masc.mp3"," ","","e","","","",""
"","1701","audio-keyboard-response","90","227882","0.0-3.0-1.61","../audio/71-7-masc.mp3"," ","","uva.","","","",""
"","null","html-keyboard-response","91","229149","0.0-3.0-0.62-0.62","<span style= ""font-size:30px; font-family: monospace"">+</span>","null","fixation","","","","",""
"","1029","audio-keyboard-response","92","230713","0.0-3.0-1.62","../audio/72-1-fem.mp3"," ","","A","","","",""
"","1819","audio-keyboard-response","93","232901","0.0-3.0-1.63","../audio/72-2-fem.mp3"," ","","vencedora","","","",""
"","1411","audio-keyboard-response","94","234737","0.0-3.0-1.64","../audio/72-3-fem.mp3"," ","","recebeu","","","",""
"","1021","audio-keyboard-response","95","236122","0.0-3.0-1.65","../audio/72-4-fem.mp3"," ","","um","","","",""
"","1200","audio-keyboard-response","96","237684","0.0-3.0-1.66","../audio/72-5-fem.mp3"," ","","prêmio","","","",""
"","1088","audio-keyboard-response","97","239220","0.0-3.0-1.67","../audio/72-6-fem.mp3"," ","","em","","","",""
"","1880","audio-keyboard-response","98","241479","0.0-3.0-1.68","../audio/72-7-fem.mp3"," ","","dinheiro.","","","",""
"","null","html-keyboard-response","99","242760","0.0-3.0-0.69-0.69","<span style= ""font-size:30px; font-family: monospace"">+</span>","null","fixation","","","","",""
"","2219","audio-keyboard-response","100","245516","0.0-3.0-1.69","../audio/75-1-fem.mp3"," ","","Só","","","",""
"","2331","audio-keyboard-response","101","248372","0.0-3.0-1.70","../audio/75-2-fem.mp3"," ","","existe","","","",""
"","1152","audio-keyboard-response","102","250210","0.0-3.0-1.71","../audio/75-3-fem.mp3"," ","","uma","","","",""
"","1488","audio-keyboard-response","103","252061","0.0-3.0-1.72","../audio/75-4-fem.mp3"," ","","pessoa","","","",""
"","1451","audio-keyboard-response","104","253915","0.0-3.0-1.73","../audio/75-5-fem.mp3"," ","","canhota","","","",""
"","1749","audio-keyboard-response","105","256027","0.0-3.0-1.74","../audio/75-6-fem.mp3"," ","","nesta","","","",""
"","2541","audio-keyboard-response","106","259123","0.0-3.0-1.75","../audio/75-7-fem.mp3"," ","","cidade.","","","",""
"","37183","html-keyboard-response","107","296567","0.0-3.0-2.75-0.75","<span style=""font-size:25px; font-family: monospace"">Só existe uma pessoa canhota na cidade?</span>","s","","","Só existe uma pessoa canhota na cidade?","null","exp-sent","false"
"","null","html-keyboard-response","108","298086","0.0-3.0-0.76-0.76","<span style= ""font-size:30px; font-family: monospace"">+</span>","null","fixation","","","","",""
"","4272","audio-keyboard-response","109","302848","0.0-3.0-1.76","../audio/06-1-masc.mp3"," ","","Ouvimos","","","",""
"","2051","audio-keyboard-response","110","305375","0.0-3.0-1.77","../audio/06-2-masc.mp3"," ","","a","","","",""
"","1541","audio-keyboard-response","111","307737","0.0-3.0-1.78","../audio/06-3-masc.mp3"," ","","fala","","","",""
"","1219","audio-keyboard-response","112","309348","0.0-3.0-1.79","../audio/06-4-masc.mp3"," ","","do","","","",""
"","1520","audio-keyboard-response","113","311247","0.0-3.0-1.80","../audio/06-5-masc.mp3"," ","","profeta","","","",""
"","1261","audio-keyboard-response","114","312895","0.0-3.0-1.81","../audio/06-6-masc.mp3"," ","","no","","","",""
"","1771","audio-keyboard-response","115","315030","0.0-3.0-1.82","../audio/06-7-masc.mp3"," ","","púlpito","","","",""
"","1232","audio-keyboard-response","116","316729","0.0-3.0-1.83","../audio/06-8-masc.mp3"," ","","da","","","",""
"","1581","audio-keyboard-response","117","318679","0.0-3.0-1.84","../audio/06-9-masc.mp3"," ","","igreja.","","","",""
"","null","html-keyboard-response","118","319955","0.0-3.0-0.85-0.85","<span style= ""font-size:30px; font-family: monospace"">+</span>","null","fixation","","","","",""
"","1091","audio-keyboard-response","119","321488","0.0-3.0-1.85","../audio/07-1-fem.mp3"," ","","Meu","","","",""
"","1088","audio-keyboard-response","120","322940","0.0-3.0-1.86","../audio/07-2-fem.mp3"," ","","filho","","","",""
"","891","audio-keyboard-response","121","324175","0.0-3.0-1.87","../audio/07-3-fem.mp3"," ","","é","","","",""
"","1240","audio-keyboard-response","122","325805","0.0-3.0-1.88","../audio/07-4-fem.mp3"," ","","muito","","","",""
"","1851","audio-keyboard-response","123","328039","0.0-3.0-1.89","../audio/07-5-fem.mp3"," ","","responsável","","","",""
"","1219","audio-keyboard-response","124","329739","0.0-3.0-1.90","../audio/07-6-fem.mp3"," ","","nos","","","",""
"","1309","audio-keyboard-response","125","331427","0.0-3.0-1.91","../audio/07-7-fem.mp3"," ","","estudos.","","","",""
"","null","html-keyboard-response","126","332696","0.0-3.0-0.92-0.92","<span style= ""font-size:30px; font-family: monospace"">+</span>","null","fixation","","","","",""
"","1139","audio-keyboard-response","127","334260","0.0-3.0-1.92","../audio/08-1-fem.mp3"," ","","A","","","",""
"","1739","audio-keyboard-response","128","337263","0.0-3.0-1.93","../audio/08-2-fem.mp3"," ","","receita","","","",""
"","2379","audio-keyboard-response","129","340060","0.0-3.0-1.94","../audio/08-3-fem.mp3"," ","","pede","","","",""
"","1160","audio-keyboard-response","130","341767","0.0-3.0-1.95","../audio/08-4-fem.mp3"," ","","um","","","",""
"","1509","audio-keyboard-response","131","343645","0.0-3.0-1.96","../audio/08-5-fem.mp3"," ","","litro","","","",""
"","1349","audio-keyboard-response","132","345361","0.0-3.0-1.97","../audio/08-6-fem.mp3"," ","","de","","","",""
"","1400","audio-keyboard-response","133","347119","0.0-3.0-1.98","../audio/08-7-fem.mp3"," ","","leite","","","",""
"","1629","audio-keyboard-response","134","349115","0.0-3.0-1.99","../audio/08-8-fem.mp3"," ","","integral.","","","",""
"","null","html-keyboard-response","135","350396","0.0-3.0-0.100-0.100","<span style= ""font-size:30px; font-family: monospace"">+</span>","null","fixation","","","","",""
"","1291","audio-keyboard-response","136","352109","0.0-3.0-1.100","../audio/09-1-fem.mp3"," ","","O","","","",""
"","1600","audio-keyboard-response","137","354083","0.0-3.0-1.101","../audio/09-2-fem.mp3"," ","","rapaz","","","",""
"","1488","audio-keyboard-response","138","355982","0.0-3.0-1.102","../audio/09-3-fem.mp3"," ","","limpou","","","",""
"","1181","audio-keyboard-response","139","357522","0.0-3.0-1.103","../audio/09-4-fem.mp3"," ","","o","","","",""
"","1429","audio-keyboard-response","140","359309","0.0-3.0-1.104","../audio/09-5-fem.mp3"," ","","terreno","","","",""
"","1099","audio-keyboard-response","141","360756","0.0-3.0-1.105","../audio/09-6-fem.mp3"," ","","com","","","",""
"","1091","audio-keyboard-response","142","362232","0.0-3.0-1.106","../audio/09-7-fem.mp3"," ","","uma","","","",""
"","1229","audio-keyboard-response","143","363830","0.0-3.0-1.107","../audio/09-8-fem.mp3"," ","","pá.","","","",""
"","null","html-keyboard-response","144","365105","0.0-3.0-0.108-0.108","<span style= ""font-size:30px; font-family: monospace"">+</span>","null","fixation","","","","",""
"","1280","audio-keyboard-response","145","366830","0.0-3.0-1.108","../audio/10-1-masc.mp3"," ","","O","","","",""
"","741","audio-keyboard-response","146","367924","0.0-3.0-1.109","../audio/10-2-masc.mp3"," ","","pássaro","","","",""
"","1080","audio-keyboard-response","147","369359","0.0-3.0-1.110","../audio/10-3-masc.mp3"," ","","azul","","","",""
"","1488","audio-keyboard-response","148","371224","0.0-3.0-1.111","../audio/10-4-masc.mp3"," ","","estava","","","",""
"","1200","audio-keyboard-response","149","372811","0.0-3.0-1.112","../audio/10-5-masc.mp3"," ","","vivo","","","",""
"","1080","audio-keyboard-response","150","374250","0.0-3.0-1.113","../audio/10-6-masc.mp3"," ","","e","","","",""
"","1360","audio-keyboard-response","151","376118","0.0-3.0-1.114","../audio/10-7-masc.mp3"," ","","em","","","",""
"","1469","audio-keyboard-response","152","377989","0.0-3.0-1.115","../audio/10-8-masc.mp3"," ","","segurança.","","","",""
"","42698","html-keyboard-response","153","420956","0.0-3.0-2.115-0.115","<span style=""font-size:25px; font-family: monospace"">O pássaro vermelho estava em segurança?</span>","s","","","O pássaro vermelho estava em segurança?","null","exp-sent","false"
"","null","html-keyboard-response","154","422466","0.0-3.0-0.116-0.116","<span style= ""font-size:30px; font-family: monospace"">+</span>","null","fixation","","","","",""
"","339","audio-keyboard-response","155","423477","0.0-3.0-1.116","../audio/31-1-fem.mp3"," ","","O","","","",""
"","1709","audio-keyboard-response","156","425605","0.0-3.0-1.117","../audio/31-2-fem.mp3"," ","","padeiro","","","",""
"","1571","audio-keyboard-response","157","427751","0.0-3.0-1.118","../audio/31-3-fem.mp3"," ","","usou","","","",""
"","1040","audio-keyboard-response","158","429151","0.0-3.0-1.119","../audio/31-4-fem.mp3"," ","","a","","","",""
"","1528","audio-keyboard-response","159","431065","0.0-3.0-1.120","../audio/31-5-fem.mp3"," ","","balança","","","",""
"","1168","audio-keyboard-response","160","432625","0.0-3.0-1.121","../audio/31-6-fem.mp3"," ","","o","","","",""
"","1389","audio-keyboard-response","161","434396","0.0-3.0-1.122","../audio/31-7-fem.mp3"," ","","dia","","","",""
"","1859","audio-keyboard-response","162","436668","0.0-3.0-1.123","../audio/31-8-fem.mp3"," ","","inteiro.","","","",""
"","null","html-keyboard-response","163","437946","0.0-3.0-0.124-0.124","<span style= ""font-size:30px; font-family: monospace"">+</span>","null","fixation","","","","",""
"","2600","audio-keyboard-response","164","441000","0.0-3.0-1.124","../audio/33-1-fem.mp3"," ","","Eles","","","",""
"","3451","audio-keyboard-response","165","444965","0.0-3.0-1.125","../audio/33-2-fem.mp3"," ","","sabem","","","",""
"","1120","audio-keyboard-response","166","446515","0.0-3.0-1.126","../audio/33-3-fem.mp3"," ","","do","","","",""
"","1248","audio-keyboard-response","167","448144","0.0-3.0-1.127","../audio/33-4-fem.mp3"," ","","seu","","","",""
"","1480","audio-keyboard-response","168","450040","0.0-3.0-1.128","../audio/33-5-fem.mp3"," ","","privilégio","","","",""
"","1211","audio-keyboard-response","169","451606","0.0-3.0-1.129","../audio/33-6-fem.mp3"," ","","nessa","","","",""
"","1541","audio-keyboard-response","170","453534","0.0-3.0-1.130","../audio/33-7-fem.mp3"," ","","confusão.","","","",""
"","null","html-keyboard-response","171","454816","0.0-3.0-0.131-0.131","<span style= ""font-size:30px; font-family: monospace"">+</span>","null","fixation","","","","",""
"","1000","audio-keyboard-response","172","456311","0.0-3.0-1.131","../audio/32-1-fem.mp3"," ","","A","","","",""
"","1371","audio-keyboard-response","173","458038","0.0-3.0-1.132","../audio/32-2-fem.mp3"," ","","tia","","","",""
"","1400","audio-keyboard-response","174","459802","0.0-3.0-1.133","../audio/32-3-fem.mp3"," ","","comprou","","","",""
"","1109","audio-keyboard-response","175","461269","0.0-3.0-1.134","../audio/32-4-fem.mp3"," ","","um","","","",""
"","1419","audio-keyboard-response","176","463064","0.0-3.0-1.135","../audio/32-5-fem.mp3"," ","","pilão","","","",""
"","1160","audio-keyboard-response","177","464587","0.0-3.0-1.136","../audio/32-6-fem.mp3"," ","","para","","","",""
"","1000","audio-keyboard-response","178","465969","0.0-3.0-1.137","../audio/32-7-fem.mp3"," ","","a","","","",""
"","1461","audio-keyboard-response","179","467806","0.0-3.0-1.138","../audio/32-8-fem.mp3"," ","","cozinha.","","","",""
"","null","html-keyboard-response","180","469096","0.0-3.0-0.139-0.139","<span style= ""font-size:30px; font-family: monospace"">+</span>","null","fixation","","","","",""
"","1920","audio-keyboard-response","181","471529","0.0-3.0-1.139","../audio/34-1-fem.mp3"," ","","Cobrança","","","",""
"","1840","audio-keyboard-response","182","473910","0.0-3.0-1.140","../audio/34-2-fem.mp3"," ","","excessiva","","","",""
"","851","audio-keyboard-response","183","475591","0.0-3.0-1.141","../audio/34-3-fem.mp3"," ","","é","","","",""
"","928","audio-keyboard-response","184","477023","0.0-3.0-1.142","../audio/34-4-fem.mp3"," ","","um","","","",""
"","1440","audio-keyboard-response","185","478882","0.0-3.0-1.143","../audio/34-5-fem.mp3"," ","","fardo","","","",""
"","1328","audio-keyboard-response","186","480708","0.0-3.0-1.144","../audio/34-6-fem.mp3"," ","","para","","","",""
"","1072","audio-keyboard-response","187","482177","0.0-3.0-1.145","../audio/34-7-fem.mp3"," ","","a","","","",""
"","1328","audio-keyboard-response","188","484302","0.0-3.0-1.146","../audio/34-8-fem.mp3"," ","","cabeça.","","","",""
"","null","html-keyboard-response","189","485576","0.0-3.0-0.147-0.147","<span style= ""font-size:30px; font-family: monospace"">+</span>","null","fixation","","","","",""
"","1699","audio-keyboard-response","190","487875","0.0-3.0-1.147","../audio/35-1-fem.mp3"," ","","A","","","",""
"","2299","audio-keyboard-response","191","491144","0.0-3.0-1.148","../audio/35-2-fem.mp3"," ","","receita","","","",""
"","1189","audio-keyboard-response","192","494232","0.0-3.0-1.149","../audio/35-3-fem.mp3"," ","","para","","","",""
"","891","audio-keyboard-response","193","496394","0.0-3.0-1.150","../audio/35-4-fem.mp3"," ","","a","","","",""
"","1720","audio-keyboard-response","194","498619","0.0-3.0-1.151","../audio/35-5-fem.mp3"," ","","preparação","","","",""
"","1011","audio-keyboard-response","195","500399","0.0-3.0-1.152","../audio/35-6-fem.mp3"," ","","do","","","",""
"","1200","audio-keyboard-response","196","502098","0.0-3.0-1.153","../audio/35-7-fem.mp3"," ","","bolo","","","",""
"","1021","audio-keyboard-response","197","503680","0.0-3.0-1.154","../audio/35-8-fem.mp3"," ","","é","","","",""
"","1360","audio-keyboard-response","198","505812","0.0-3.0-1.155","../audio/35-9-fem.mp3"," ","","leve.","","","",""
"","11150","html-keyboard-response","199","517226","0.0-3.0-2.155-0.155","<span style=""font-size:25px; font-family: monospace"">A receita do bolo é pesada?</span>","s","","","A receita do bolo é pesada?","null","exp-sent","false"
"","null","html-keyboard-response","200","518734","0.0-3.0-0.156-0.156","<span style= ""font-size:30px; font-family: monospace"">+</span>","null","fixation","","","","",""
"","329341","audio-keyboard-response","201","849635","0.0-3.0-1.156","../audio/66-1-masc.mp3"," ","","Não","","","",""
"","39405","audio-keyboard-response","202","891396","0.0-3.0-1.157","../audio/66-2-masc.mp3"," ","","gosto","","","",""
"","3211","audio-keyboard-response","203","895022","0.0-3.0-1.158","../audio/66-3-masc.mp3"," ","","de","","","",""
"","2011","audio-keyboard-response","204","897460","0.0-3.0-1.159","../audio/66-4-masc.mp3"," ","","gente","","","",""
"","2661","audio-keyboard-response","205","900584","0.0-3.0-1.160","../audio/66-5-masc.mp3"," ","","egoísta","","","",""
"","1709","audio-keyboard-response","206","902809","0.0-3.0-1.161","../audio/66-6-masc.mp3"," ","","nem","","","",""
"","1680","audio-keyboard-response","207","904966","0.0-3.0-1.162","../audio/66-7-masc.mp3"," ","","chata.","","","",""
"","null","html-keyboard-response","208","906227","0.0-3.0-0.163-0.163","<span style= ""font-size:30px; font-family: monospace"">+</span>","null","fixation","","","","",""
"","1632","audio-keyboard-response","209","908426","0.0-3.0-1.163","../audio/69-1-masc.mp3"," ","","A","","","",""
"","2088","audio-keyboard-response","210","910885","0.0-3.0-1.164","../audio/69-2-masc.mp3"," ","","loja","","","",""
"","1949","audio-keyboard-response","211","913295","0.0-3.0-1.165","../audio/69-3-masc.mp3"," ","","recebeu","","","",""
"","1651","audio-keyboard-response","212","915461","0.0-3.0-1.166","../audio/69-4-masc.mp3"," ","","uma","","","",""
"","1651","audio-keyboard-response","213","917456","0.0-3.0-1.167","../audio/69-5-masc.mp3"," ","","poltrona","","","",""
"","1712","audio-keyboard-response","214","919554","0.0-3.0-1.168","../audio/69-6-masc.mp3"," ","","de","","","",""
"","2411","audio-keyboard-response","215","922425","0.0-3.0-1.169","../audio/69-7-masc.mp3"," ","","couro","","","",""
"","2640","audio-keyboard-response","216","925552","0.0-3.0-1.170","../audio/69-8-masc.mp3"," ","","preto.","","","",""
"","null","html-keyboard-response","217","926834","0.0-3.0-0.171-0.171","<span style= ""font-size:30px; font-family: monospace"">+</span>","null","fixation","","","","",""
"","1808","audio-keyboard-response","218","929078","0.0-3.0-1.171","../audio/68-1-masc.mp3"," ","","Meu","","","",""
"","1789","audio-keyboard-response","219","931323","0.0-3.0-1.172","../audio/68-2-masc.mp3"," ","","irmão","","","",""
"","13200","audio-keyboard-response","220","944969","0.0-3.0-1.173","../audio/68-3-masc.mp3"," ","","teve","","","",""
"","1760","audio-keyboard-response","221","947165","0.0-3.0-1.174","../audio/68-4-masc.mp3"," ","","um","","","",""
"","2541","audio-keyboard-response","222","950181","0.0-3.0-1.175","../audio/68-5-masc.mp3"," ","","noivado","","","",""
"","1619","audio-keyboard-response","223","952247","0.0-3.0-1.176","../audio/68-6-masc.mp3"," ","","longo","","","",""
"","1280","audio-keyboard-response","224","953917","0.0-3.0-1.177","../audio/68-7-masc.mp3"," ","","e","","","",""
"","1960","audio-keyboard-response","225","956239","0.0-3.0-1.178","../audio/68-8-masc.mp3"," ","","maravilhoso.","","","",""
"","null","html-keyboard-response","226","957512","0.0-3.0-0.179-0.179","<span style= ""font-size:30px; font-family: monospace"">+</span>","null","fixation","","","","",""
"","1141","audio-keyboard-response","227","959221","0.0-3.0-1.179","../audio/67-1-masc.mp3"," ","","Minha","","","",""
"","1160","audio-keyboard-response","228","960754","0.0-3.0-1.180","../audio/67-2-masc.mp3"," ","","tia","","","",""
"","1139","audio-keyboard-response","229","962249","0.0-3.0-1.181","../audio/67-3-masc.mp3"," ","","comprou","","","",""
"","1472","audio-keyboard-response","230","964069","0.0-3.0-1.182","../audio/67-4-masc.mp3"," ","","um","","","",""
"","1299","audio-keyboard-response","231","965731","0.0-3.0-1.183","../audio/67-5-masc.mp3"," ","","cordão","","","",""
"","1360","audio-keyboard-response","232","967437","0.0-3.0-1.184","../audio/67-6-masc.mp3"," ","","para","","","",""
"","891","audio-keyboard-response","233","968703","0.0-3.0-1.185","../audio/67-7-masc.mp3"," ","","o","","","",""
"","1629","audio-keyboard-response","234","970694","0.0-3.0-1.186","../audio/67-8-masc.mp3"," ","","varal.","","","",""
"","null","html-keyboard-response","235","971965","0.0-3.0-0.187-0.187","<span style= ""font-size:30px; font-family: monospace"">+</span>","null","fixation","","","","",""
"","1112","audio-keyboard-response","236","973515","0.0-3.0-1.187","../audio/70-1-fem.mp3"," ","","O","","","",""
"","909","audio-keyboard-response","237","974796","0.0-3.0-1.188","../audio/70-2-fem.mp3"," ","","meu","","","",""
"","1179","audio-keyboard-response","238","976330","0.0-3.0-1.189","../audio/70-3-fem.mp3"," ","","filho","","","",""
"","1051","audio-keyboard-response","239","977729","0.0-3.0-1.190","../audio/70-4-fem.mp3"," ","","tem","","","",""
"","1259","audio-keyboard-response","240","979361","0.0-3.0-1.191","../audio/70-5-fem.mp3"," ","","medo","","","",""
"","1251","audio-keyboard-response","241","980966","0.0-3.0-1.192","../audio/70-6-fem.mp3"," ","","de","","","",""
"","1629","audio-keyboard-response","242","982964","0.0-3.0-1.193","../audio/70-7-fem.mp3"," ","","enguia","","","",""
"","1400","audio-keyboard-response","243","984710","0.0-3.0-1.194","../audio/70-8-fem.mp3"," ","","e","","","",""
"","2491","audio-keyboard-response","244","987574","0.0-3.0-1.195","../audio/70-9-fem.mp3"," ","","beija-flor.","","","",""
"","23552","html-keyboard-response","245","1011379","0.0-3.0-2.195-0.195","<span style=""font-size:25px; font-family: monospace"">O filho tem medo de tigre?</span>","s","","","O filho tem medo de tigre?","null","exp-sent","false"
"","null","html-keyboard-response","246","1012903","0.0-3.0-0.196-0.196","<span style= ""font-size:30px; font-family: monospace"">+</span>","null","fixation","","","","",""
"","1600","audio-keyboard-response","247","1014928","0.0-3.0-1.196","../audio/46-1-masc.mp3"," ","","Meu","","","",""
"","1080","audio-keyboard-response","248","1016382","0.0-3.0-1.197","../audio/46-2-masc.mp3"," ","","primo","","","",""
"","1051","audio-keyboard-response","249","1017785","0.0-3.0-1.198","../audio/46-3-masc.mp3"," ","","estava","","","",""
"","1219","audio-keyboard-response","250","1019407","0.0-3.0-1.199","../audio/46-4-masc.mp3"," ","","muito","","","",""
"","1621","audio-keyboard-response","251","1021391","0.0-3.0-1.200","../audio/46-5-masc.mp3"," ","","deprimido","","","",""
"","1091","audio-keyboard-response","252","1022852","0.0-3.0-1.201","../audio/46-6-masc.mp3"," ","","no","","","",""
"","1571","audio-keyboard-response","253","1024791","0.0-3.0-1.202","../audio/46-7-masc.mp3"," ","","inverno.","","","",""
"","null","html-keyboard-response","254","1026053","0.0-3.0-0.203-0.203","<span style= ""font-size:30px; font-family: monospace"">+</span>","null","fixation","","","","",""
"","960","audio-keyboard-response","255","1027446","0.0-3.0-1.203","../audio/47-1-masc.mp3"," ","","O","","","",""
"","1160","audio-keyboard-response","256","1028952","0.0-3.0-1.204","../audio/47-2-masc.mp3"," ","","tio","","","",""
"","1341","audio-keyboard-response","257","1030676","0.0-3.0-1.205","../audio/47-3-masc.mp3"," ","","recusou","","","",""
"","989","audio-keyboard-response","258","1032025","0.0-3.0-1.206","../audio/47-4-masc.mp3"," ","","a","","","",""
"","1701","audio-keyboard-response","259","1034105","0.0-3.0-1.207","../audio/47-5-masc.mp3"," ","","sobremesa","","","",""
"","989","audio-keyboard-response","260","1035528","0.0-3.0-1.208","../audio/47-6-masc.mp3"," ","","no","","","",""
"","1331","audio-keyboard-response","261","1037210","0.0-3.0-1.209","../audio/47-7-masc.mp3"," ","","almoço.","","","",""
"","null","html-keyboard-response","262","1038482","0.0-3.0-0.210-0.210","<span style= ""font-size:30px; font-family: monospace"">+</span>","null","fixation","","","","",""
"","1109","audio-keyboard-response","263","1040024","0.0-3.0-1.210","../audio/48-1-masc.mp3"," ","","Ela","","","",""
"","1019","audio-keyboard-response","264","1041406","0.0-3.0-1.211","../audio/48-2-masc.mp3"," ","","come","","","",""
"","1139","audio-keyboard-response","265","1042916","0.0-3.0-1.212","../audio/48-3-masc.mp3"," ","","feijão","","","",""
"","1000","audio-keyboard-response","266","1044290","0.0-3.0-1.213","../audio/48-4-masc.mp3"," ","","com","","","",""
"","1381","audio-keyboard-response","267","1046026","0.0-3.0-1.214","../audio/48-5-masc.mp3"," ","","arroz","","","",""
"","1421","audio-keyboard-response","268","1047821","0.0-3.0-1.215","../audio/48-6-masc.mp3"," ","","todos","","","",""
"","1131","audio-keyboard-response","269","1049294","0.0-3.0-1.216","../audio/48-7-masc.mp3"," ","","os","","","",""
"","1792","audio-keyboard-response","270","1051434","0.0-3.0-1.217","../audio/48-8-masc.mp3"," ","","dias.","","","",""
"","null","html-keyboard-response","271","1052712","0.0-3.0-0.218-0.218","<span style= ""font-size:30px; font-family: monospace"">+</span>","null","fixation","","","","",""
"","979","audio-keyboard-response","272","1054160","0.0-3.0-1.218","../audio/49-1-fem.mp3"," ","","Eu","","","",""
"","1101","audio-keyboard-response","273","1055623","0.0-3.0-1.219","../audio/49-2-fem.mp3"," ","","quero","","","",""
"","1021","audio-keyboard-response","274","1056994","0.0-3.0-1.220","../audio/49-3-fem.mp3"," ","","um","","","",""
"","1331","audio-keyboard-response","275","1058691","0.0-3.0-1.221","../audio/49-4-fem.mp3"," ","","lanche","","","",""
"","1240","audio-keyboard-response","276","1060282","0.0-3.0-1.222","../audio/49-5-fem.mp3"," ","","duplo","","","",""
"","931","audio-keyboard-response","277","1061589","0.0-3.0-1.223","../audio/49-6-fem.mp3"," ","","e","","","",""
"","1080","audio-keyboard-response","278","1063006","0.0-3.0-1.224","../audio/49-7-fem.mp3"," ","","um","","","",""
"","1531","audio-keyboard-response","279","1064911","0.0-3.0-1.225","../audio/49-8-fem.mp3"," ","","suco.","","","",""
"","null","html-keyboard-response","280","1066193","0.0-3.0-0.226-0.226","<span style= ""font-size:30px; font-family: monospace"">+</span>","null","fixation","","","","",""
"","971","audio-keyboard-response","281","1067588","0.0-3.0-1.226","../audio/50-1-masc.mp3"," ","","O","","","",""
"","1181","audio-keyboard-response","282","1069111","0.0-3.0-1.227","../audio/50-2-masc.mp3"," ","","pássaro","","","",""
"","1179","audio-keyboard-response","283","1070677","0.0-3.0-1.228","../audio/50-3-masc.mp3"," ","","fugiu","","","",""
"","1131","audio-keyboard-response","284","1072176","0.0-3.0-1.229","../audio/50-4-masc.mp3"," ","","da","","","",""
"","1360","audio-keyboard-response","285","1073898","0.0-3.0-1.230","../audio/50-5-masc.mp3"," ","","gaiola","","","",""
"","1160","audio-keyboard-response","286","1075412","0.0-3.0-1.231","../audio/50-6-masc.mp3"," ","","pela","","","",""
"","1400","audio-keyboard-response","287","1077167","0.0-3.0-1.232","../audio/50-7-masc.mp3"," ","","portinhola.","","","",""
"","11733","html-keyboard-response","288","1089152","0.0-3.0-2.232-0.232","<span style=""font-size:25px; font-family: monospace"">O pássaro fugiu da gaiola?</span>","n","","","O pássaro fugiu da gaiola?","null","exp-sent","false"
"","null","html-keyboard-response","289","1090662","0.0-3.0-0.233-0.233","<span style= ""font-size:30px; font-family: monospace"">+</span>","null","fixation","","","","",""
"","989","audio-keyboard-response","290","1092083","0.0-3.0-1.233","../audio/12-1-masc.mp3"," ","","O","","","",""
"","909","audio-keyboard-response","291","1093379","0.0-3.0-1.234","../audio/12-2-masc.mp3"," ","","dia","","","",""
"","1200","audio-keyboard-response","292","1094947","0.0-3.0-1.235","../audio/12-3-masc.mp3"," ","","estava","","","",""
"","1179","audio-keyboard-response","293","1096495","0.0-3.0-1.236","../audio/12-4-masc.mp3"," ","","quente,","","","",""
"","1379","audio-keyboard-response","294","1098245","0.0-3.0-1.237","../audio/12-5-masc.mp3"," ","","tranquilo","","","",""
"","1240","audio-keyboard-response","295","1099841","0.0-3.0-1.238","../audio/12-6-masc.mp3"," ","","e","","","",""
"","1760","audio-keyboard-response","296","1101961","0.0-3.0-1.239","../audio/12-7-masc.mp3"," ","","ensolarado.","","","",""
"","null","html-keyboard-response","297","1103223","0.0-3.0-0.240-0.240","<span style= ""font-size:30px; font-family: monospace"">+</span>","null","fixation","","","","",""
"","709","audio-keyboard-response","298","1104571","0.0-3.0-1.240","../audio/14-1-masc.mp3"," ","","O","","","",""
"","1760","audio-keyboard-response","299","1106683","0.0-3.0-1.241","../audio/14-2-masc.mp3"," ","","cachorro","","","",""
"","1011","audio-keyboard-response","300","1108114","0.0-3.0-1.242","../audio/14-3-masc.mp3"," ","","é","","","",""
"","1168","audio-keyboard-response","301","1109636","0.0-3.0-1.243","../audio/14-4-masc.mp3"," ","","muito","","","",""
"","171","audio-keyboard-response","302","1110150","0.0-3.0-1.244","../audio/14-5-masc.mp3"," ","","fiel","","","",""
"","1459","audio-keyboard-response","303","1111962","0.0-3.0-1.245","../audio/14-6-masc.mp3"," ","","a","","","",""
"","1360","audio-keyboard-response","304","1113690","0.0-3.0-1.246","../audio/14-7-masc.mp3"," ","","seus","","","",""
"","1469","audio-keyboard-response","305","1115518","0.0-3.0-1.247","../audio/14-8-masc.mp3"," ","","donos.","","","",""
"","null","html-keyboard-response","306","1116802","0.0-3.0-0.248-0.248","<span style= ""font-size:30px; font-family: monospace"">+</span>","null","fixation","","","","",""
"","1200","audio-keyboard-response","307","1118494","0.0-3.0-1.248","../audio/13-1-masc.mp3"," ","","Para","","","",""
"","1120","audio-keyboard-response","308","1120580","0.0-3.0-1.249","../audio/13-2-masc.mp3"," ","","mim","","","",""
"","1149","audio-keyboard-response","309","1122142","0.0-3.0-1.250","../audio/13-3-masc.mp3"," ","","é","","","",""
"","1691","audio-keyboard-response","310","1124181","0.0-3.0-1.251","../audio/13-4-masc.mp3"," ","","muito","","","",""
"","1509","audio-keyboard-response","311","1126165","0.0-3.0-1.252","../audio/13-5-masc.mp3"," ","","difícil","","","",""
"","1880","audio-keyboard-response","312","1129090","0.0-3.0-1.253","../audio/13-6-masc.mp3"," ","","acordar","","","",""
"","1261","audio-keyboard-response","313","1131458","0.0-3.0-1.254","../audio/13-7-masc.mp3"," ","","cedo.","","","",""
"","null","html-keyboard-response","314","1132733","0.0-3.0-0.255-0.255","<span style= ""font-size:30px; font-family: monospace"">+</span>","null","fixation","","","","",""
"","1421","audio-keyboard-response","315","1134633","0.0-3.0-1.255","../audio/11-1-fem.mp3"," ","","Elas","","","",""
"","1251","audio-keyboard-response","316","1137215","0.0-3.0-1.256","../audio/11-2-fem.mp3"," ","","gostam","","","",""
"","1288","audio-keyboard-response","317","1139959","0.0-3.0-1.257","../audio/11-3-fem.mp3"," ","","muito","","","",""
"","1139","audio-keyboard-response","318","1141809","0.0-3.0-1.258","../audio/11-4-fem.mp3"," ","","de","","","",""
"","2621","audio-keyboard-response","319","1144862","0.0-3.0-1.259","../audio/11-5-fem.mp3"," ","","aritmética","","","",""
"","941","audio-keyboard-response","320","1147316","0.0-3.0-1.260","../audio/11-6-fem.mp3"," ","","e","","","",""
"","989","audio-keyboard-response","321","1148655","0.0-3.0-1.261","../audio/11-7-fem.mp3"," ","","de","","","",""
"","1499","audio-keyboard-response","322","1150574","0.0-3.0-1.262","../audio/11-8-fem.mp3"," ","","leitura.","","","",""
"","null","html-keyboard-response","323","1151858","0.0-3.0-0.263-0.263","<span style= ""font-size:30px; font-family: monospace"">+</span>","null","fixation","","","","",""
"","1520","audio-keyboard-response","324","1154465","0.0-3.0-1.263","../audio/15-1-fem.mp3"," ","","Meu","","","",""
"","1280","audio-keyboard-response","325","1156226","0.0-3.0-1.264","../audio/15-2-fem.mp3"," ","","primo","","","",""
"","1461","audio-keyboard-response","326","1158467","0.0-3.0-1.265","../audio/15-3-fem.mp3"," ","","é","","","",""
"","960","audio-keyboard-response","327","1160074","0.0-3.0-1.266","../audio/15-4-fem.mp3"," ","","um","","","",""
"","1760","audio-keyboard-response","328","1162197","0.0-3.0-1.267","../audio/15-5-fem.mp3"," ","","grande","","","",""
"","2261","audio-keyboard-response","329","1164902","0.0-3.0-1.268","../audio/15-6-fem.mp3"," ","","vendedor","","","",""
"","1029","audio-keyboard-response","330","1166454","0.0-3.0-1.269","../audio/15-7-fem.mp3"," ","","de","","","",""
"","1251","audio-keyboard-response","331","1168070","0.0-3.0-1.270","../audio/15-8-fem.mp3"," ","","carros.","","","",""
"","3842","html-keyboard-response","332","1172176","0.0-3.0-2.270-0.270","<span style=""font-size:25px; font-family: monospace"">O primo é um vendedor de carros?</span>","s","","","O primo é um vendedor de carros?","null","exp-sent","false"
"","null","html-keyboard-response","333","1173702","0.0-3.0-0.271-0.271","<span style= ""font-size:30px; font-family: monospace"">+</span>","null","fixation","","","","",""
"","21","audio-keyboard-response","334","1174186","0.0-3.0-1.271","../audio/53-1-fem.mp3"," ","","O","","","",""
"","2309","audio-keyboard-response","335","1176858","0.0-3.0-1.272","../audio/53-2-fem.mp3"," ","","médico","","","",""
"","1629","audio-keyboard-response","336","1179637","0.0-3.0-1.273","../audio/53-3-fem.mp3"," ","","foi","","","",""
"","1520","audio-keyboard-response","337","1181606","0.0-3.0-1.274","../audio/53-4-fem.mp3"," ","","bastante","","","",""
"","1648","audio-keyboard-response","338","1183643","0.0-3.0-1.275","../audio/53-5-fem.mp3"," ","","preciso","","","",""
"","1608","audio-keyboard-response","339","1185766","0.0-3.0-1.276","../audio/53-6-fem.mp3"," ","","durante","","","",""
"","1160","audio-keyboard-response","340","1187372","0.0-3.0-1.277","../audio/53-7-fem.mp3"," ","","a","","","",""
"","2909","audio-keyboard-response","341","1190655","0.0-3.0-1.278","../audio/53-8-fem.mp3"," ","","cirurgia.","","","",""
"","null","html-keyboard-response","342","1191932","0.0-3.0-0.279-0.279","<span style= ""font-size:30px; font-family: monospace"">+</span>","null","fixation","","","","",""
"","1640","audio-keyboard-response","343","1194031","0.0-3.0-1.279","../audio/54-1-masc.mp3"," ","","Estou","","","",""
"","1419","audio-keyboard-response","344","1195850","0.0-3.0-1.280","../audio/54-2-masc.mp3"," ","","com","","","",""
"","1261","audio-keyboard-response","345","1197746","0.0-3.0-1.281","../audio/54-3-masc.mp3"," ","","medo","","","",""
"","1131","audio-keyboard-response","346","1199288","0.0-3.0-1.282","../audio/54-4-masc.mp3"," ","","da","","","",""
"","1800","audio-keyboard-response","347","1201461","0.0-3.0-1.283","../audio/54-5-masc.mp3"," ","","atual","","","",""
"","2331","audio-keyboard-response","348","1204335","0.0-3.0-1.284","../audio/54-6-masc.mp3"," ","","organização","","","",""
"","1589","audio-keyboard-response","349","1206738","0.0-3.0-1.285","../audio/54-7-masc.mp3"," ","","do","","","",""
"","1920","audio-keyboard-response","350","1209028","0.0-3.0-1.286","../audio/54-8-masc.mp3"," ","","país.","","","",""
"","null","html-keyboard-response","351","1210303","0.0-3.0-0.287-0.287","<span style= ""font-size:30px; font-family: monospace"">+</span>","null","fixation","","","","",""
"","1221","audio-keyboard-response","352","1211950","0.0-3.0-1.287","../audio/51-1-masc.mp3"," ","","Suco","","","",""
"","1229","audio-keyboard-response","353","1213563","0.0-3.0-1.288","../audio/51-2-masc.mp3"," ","","de","","","",""
"","1592","audio-keyboard-response","354","1215506","0.0-3.0-1.289","../audio/51-3-masc.mp3"," ","","acerola","","","",""
"","1739","audio-keyboard-response","355","1217616","0.0-3.0-1.290","../audio/51-4-masc.mp3"," ","","é","","","",""
"","1739","audio-keyboard-response","356","1219805","0.0-3.0-1.291","../audio/51-5-masc.mp3"," ","","azedo","","","",""
"","1981","audio-keyboard-response","357","1222217","0.0-3.0-1.292","../audio/51-6-masc.mp3"," ","","e","","","",""
"","1392","audio-keyboard-response","358","1224034","0.0-3.0-1.293","../audio/51-7-masc.mp3"," ","","até","","","",""
"","1851","audio-keyboard-response","359","1226253","0.0-3.0-1.294","../audio/51-8-masc.mp3"," ","","barato.","","","",""
"","null","html-keyboard-response","360","1227515","0.0-3.0-0.295-0.295","<span style= ""font-size:30px; font-family: monospace"">+</span>","null","fixation","","","","",""
"","931","audio-keyboard-response","361","1228870","0.0-3.0-1.295","../audio/52-1-masc.mp3"," ","","Às","","","",""
"","1008","audio-keyboard-response","362","1230443","0.0-3.0-1.296","../audio/52-2-masc.mp3"," ","","vezes","","","",""
"","971","audio-keyboard-response","363","1231777","0.0-3.0-1.297","../audio/52-3-masc.mp3"," ","","eu","","","",""
"","1080","audio-keyboard-response","364","1233213","0.0-3.0-1.298","../audio/52-4-masc.mp3"," ","","tenho","","","",""
"","1741","audio-keyboard-response","365","1235346","0.0-3.0-1.299","../audio/52-5-masc.mp3"," ","","azia","","","",""
"","1149","audio-keyboard-response","366","1236944","0.0-3.0-1.300","../audio/52-6-masc.mp3"," ","","depois","","","",""
"","939","audio-keyboard-response","367","1238255","0.0-3.0-1.301","../audio/52-7-masc.mp3"," ","","da","","","",""
"","1309","audio-keyboard-response","368","1239936","0.0-3.0-1.302","../audio/52-8-masc.mp3"," ","","janta.","","","",""
"","null","html-keyboard-response","369","1241222","0.0-3.0-0.303-0.303","<span style= ""font-size:30px; font-family: monospace"">+</span>","null","fixation","","","","",""
"","1000","audio-keyboard-response","370","1242728","0.0-3.0-1.303","../audio/55-1-fem.mp3"," ","","O","","","",""
"","1651","audio-keyboard-response","371","1244769","0.0-3.0-1.304","../audio/55-2-fem.mp3"," ","","insulto","","","",""
"","1480","audio-keyboard-response","372","1247026","0.0-3.0-1.305","../audio/55-3-fem.mp3"," ","","recente","","","",""
"","1400","audio-keyboard-response","373","1248802","0.0-3.0-1.306","../audio/55-4-fem.mp3"," ","","causou","","","",""
"","2419","audio-keyboard-response","374","1251595","0.0-3.0-1.307","../audio/55-5-fem.mp3"," ","","indignação","","","",""
"","1331","audio-keyboard-response","375","1253537","0.0-3.0-1.308","../audio/55-6-fem.mp3"," ","","em","","","",""
"","3011","audio-keyboard-response","376","1256913","0.0-3.0-1.309","../audio/55-7-fem.mp3"," ","","todos.","","","",""
"","8410","html-keyboard-response","377","1265578","0.0-3.0-2.309-0.309","<span style=""font-size:25px; font-family: monospace"">O insulto causou calmaria?</span>","s","","","O insulto causou calmaria?","null","exp-sent","false"
"","null","html-keyboard-response","378","1267094","0.0-3.0-0.310-0.310","<span style= ""font-size:30px; font-family: monospace"">+</span>","null","fixation","","","","",""
"","1061","audio-keyboard-response","379","1268636","0.0-3.0-1.310","../audio/02-2-masc.mp3"," ","","Havia","","","",""
"","960","audio-keyboard-response","380","1269857","0.0-3.0-1.311","../audio/02-2-masc.mp3"," ","","um","","","",""
"","1109","audio-keyboard-response","381","1271573","0.0-3.0-1.312","../audio/02-3-masc.mp3"," ","","cheiro","","","",""
"","971","audio-keyboard-response","382","1272897","0.0-3.0-1.313","../audio/02-4-masc.mp3"," ","","de","","","",""
"","1149","audio-keyboard-response","383","1274409","0.0-3.0-1.314","../audio/02-5-masc.mp3"," ","","gasolina","","","",""
"","1088","audio-keyboard-response","384","1275843","0.0-3.0-1.315","../audio/02-6-masc.mp3"," ","","na","","","",""
"","1389","audio-keyboard-response","385","1277596","0.0-3.0-1.316","../audio/02-7-masc.mp3"," ","","garagem.","","","",""
"","null","html-keyboard-response","386","1278873","0.0-3.0-0.317-0.317","<span style= ""font-size:30px; font-family: monospace"">+</span>","null","fixation","","","","",""
"","789","audio-keyboard-response","387","1280131","0.0-3.0-1.317","../audio/03-1-fem.mp3"," ","","O","","","",""
"","1200","audio-keyboard-response","388","1281718","0.0-3.0-1.318","../audio/03-2-fem.mp3"," ","","coelho","","","",""
"","928","audio-keyboard-response","389","1283001","0.0-3.0-1.319","../audio/03-3-fem.mp3"," ","","foi","","","",""
"","1381","audio-keyboard-response","390","1284745","0.0-3.0-1.320","../audio/03-4-fem.mp3"," ","","bastante","","","",""
"","1272","audio-keyboard-response","391","1286468","0.0-3.0-1.321","../audio/03-5-fem.mp3"," ","","dócil","","","",""
"","909","audio-keyboard-response","392","1287719","0.0-3.0-1.322","../audio/03-6-fem.mp3"," ","","com","","","",""
"","1000","audio-keyboard-response","393","1289076","0.0-3.0-1.323","../audio/03-7-fem.mp3"," ","","as","","","",""
"","851","audio-keyboard-response","394","1290514","0.0-3.0-1.324","../audio/03-8-fem.mp3"," ","","crianças.","","","",""
"","null","html-keyboard-response","395","1291780","0.0-3.0-0.325-0.325","<span style= ""font-size:30px; font-family: monospace"">+</span>","null","fixation","","","","",""
"","1760","audio-keyboard-response","396","1294679","0.0-3.0-1.325","../audio/04-1-masc.mp3"," ","","Duzentos","","","",""
"","1701","audio-keyboard-response","397","1296796","0.0-3.0-1.326","../audio/04-2-masc.mp3"," ","","carros","","","",""
"","1371","audio-keyboard-response","398","1298609","0.0-3.0-1.327","../audio/04-3-masc.mp3"," ","","passaram","","","",""
"","979","audio-keyboard-response","399","1300046","0.0-3.0-1.328","../audio/04-4-masc.mp3"," ","","pela","","","",""
"","1349","audio-keyboard-response","400","1301777","0.0-3.0-1.329","../audio/04-5-masc.mp3"," ","","ponte","","","",""
"","1349","audio-keyboard-response","401","1303486","0.0-3.0-1.330","../audio/04-6-masc.mp3"," ","","hoje","","","",""
"","1160","audio-keyboard-response","402","1305285","0.0-3.0-1.331","../audio/04-7-masc.mp3"," ","","de","","","",""
"","1291","audio-keyboard-response","403","1307035","0.0-3.0-1.332","../audio/04-8-masc.mp3"," ","","tarde.","","","",""
"","null","html-keyboard-response","404","1308314","0.0-3.0-0.333-0.333","<span style= ""font-size:30px; font-family: monospace"">+</span>","null","fixation","","","","",""
"","1032","audio-keyboard-response","405","1310067","0.0-3.0-1.333","../audio/01-1-masc.mp3"," ","","O","","","",""
"","1451","audio-keyboard-response","406","1311903","0.0-3.0-1.334","../audio/01-2-masc.mp3"," ","","menino","","","",""
"","1349","audio-keyboard-response","407","1313744","0.0-3.0-1.335","../audio/01-3-masc.mp3"," ","","derrubou","","","",""
"","1091","audio-keyboard-response","408","1315236","0.0-3.0-1.336","../audio/01-4-masc.mp3"," ","","a","","","",""
"","1291","audio-keyboard-response","409","1316914","0.0-3.0-1.337","../audio/01-5-masc.mp3"," ","","guitarra","","","",""
"","1360","audio-keyboard-response","410","1318732","0.0-3.0-1.338","../audio/01-6-masc.mp3"," ","","no","","","",""
"","1149","audio-keyboard-response","411","1320286","0.0-3.0-1.339","../audio/01-7-masc.mp3"," ","","chão.","","","",""
"","null","html-keyboard-response","412","1321553","0.0-3.0-0.340-0.340","<span style= ""font-size:30px; font-family: monospace"">+</span>","null","fixation","","","","",""
"","32","audio-keyboard-response","413","1322314","0.0-3.0-1.340","../audio/05-1-masc.mp3"," ","","A","","","",""
"","1640","audio-keyboard-response","414","1324324","0.0-3.0-1.341","../audio/05-2-masc.mp3"," ","","vendedora","","","",""
"","1240","audio-keyboard-response","415","1325987","0.0-3.0-1.342","../audio/05-3-masc.mp3"," ","","ajudou","","","",""
"","1139","audio-keyboard-response","416","1327488","0.0-3.0-1.343","../audio/05-4-masc.mp3"," ","","um","","","",""
"","1341","audio-keyboard-response","417","1329194","0.0-3.0-1.344","../audio/05-5-masc.mp3"," ","","turista","","","",""
"","1221","audio-keyboard-response","418","1330795","0.0-3.0-1.345","../audio/05-6-masc.mp3"," ","","na","","","",""
"","1461","audio-keyboard-response","419","1332632","0.0-3.0-1.346","../audio/05-7-masc.mp3"," ","","loja.","","","",""
"","4505","html-keyboard-response","420","1337391","0.0-3.0-2.346-0.346","<span style=""font-size:25px; font-family: monospace"">A vendedora ajudou um turista?</span>","s","","","A vendedora ajudou um turista?","null","exp-sent","false"
"","null","html-keyboard-response","421","1338913","0.0-3.0-0.347-0.347","<span style= ""font-size:30px; font-family: monospace"">+</span>","null","fixation","","","","",""
"","1061","audio-keyboard-response","422","1340585","0.0-3.0-1.347","../audio/78-1-masc.mp3"," ","","Eles","","","",""
"","1219","audio-keyboard-response","423","1342208","0.0-3.0-1.348","../audio/78-2-masc.mp3"," ","","trazem","","","",""
"","1160","audio-keyboard-response","424","1343758","0.0-3.0-1.349","../audio/78-3-masc.mp3"," ","","um","","","",""
"","1171","audio-keyboard-response","425","1345292","0.0-3.0-1.350","../audio/78-4-masc.mp3"," ","","fato","","","",""
"","1301","audio-keyboard-response","426","1347061","0.0-3.0-1.351","../audio/78-5-masc.mp3"," ","","urgente","","","",""
"","1240","audio-keyboard-response","427","1348637","0.0-3.0-1.352","../audio/78-6-masc.mp3"," ","","todos","","","",""
"","1051","audio-keyboard-response","428","1350063","0.0-3.0-1.353","../audio/78-7-masc.mp3"," ","","os","","","",""
"","1429","audio-keyboard-response","429","1351905","0.0-3.0-1.354","../audio/78-8-masc.mp3"," ","","dias.","","","",""
"","null","html-keyboard-response","430","1353183","0.0-3.0-0.355-0.355","<span style= ""font-size:30px; font-family: monospace"">+</span>","null","fixation","","","","",""
"","1221","audio-keyboard-response","431","1355144","0.0-3.0-1.355","../audio/79-1-masc.mp3"," ","","A","","","",""
"","1600","audio-keyboard-response","432","1357117","0.0-3.0-1.356","../audio/79-2-masc.mp3"," ","","médica","","","",""
"","1909","audio-keyboard-response","433","1359463","0.0-3.0-1.357","../audio/79-3-masc.mp3"," ","","verificou","","","",""
"","1741","audio-keyboard-response","434","1361833","0.0-3.0-1.358","../audio/79-4-masc.mp3"," ","","a","","","",""
"","4749","audio-keyboard-response","435","1367178","0.0-3.0-1.359","../audio/79-5-masc.mp3"," ","","gengiva","","","",""
"","1029","audio-keyboard-response","436","1368965","0.0-3.0-1.360","../audio/79-6-masc.mp3"," ","","por","","","",""
"","1621","audio-keyboard-response","437","1370982","0.0-3.0-1.361","../audio/79-7-masc.mp3"," ","","último.","","","",""
"","null","html-keyboard-response","438","1372248","0.0-3.0-0.362-0.362","<span style= ""font-size:30px; font-family: monospace"">+</span>","null","fixation","","","","",""
"","1349","audio-keyboard-response","439","1374253","0.0-3.0-1.362","../audio/77-1-fem.mp3"," ","","A","","","",""
"","1901","audio-keyboard-response","440","1376538","0.0-3.0-1.363","../audio/77-2-fem.mp3"," ","","criança","","","",""
"","2240","audio-keyboard-response","441","1379330","0.0-3.0-1.364","../audio/77-3-fem.mp3"," ","","ficou","","","",""
"","1669","audio-keyboard-response","442","1381732","0.0-3.0-1.365","../audio/77-4-fem.mp3"," ","","muito","","","",""
"","1408","audio-keyboard-response","443","1383842","0.0-3.0-1.366","../audio/77-5-fem.mp3"," ","","feliz","","","",""
"","3149","audio-keyboard-response","444","1387367","0.0-3.0-1.367","../audio/77-6-fem.mp3"," ","","com","","","",""
"","1251","audio-keyboard-response","445","1389736","0.0-3.0-1.368","../audio/77-7-fem.mp3"," ","","o","","","",""
"","2539","audio-keyboard-response","446","1392655","0.0-3.0-1.369","../audio/77-8-fem.mp3"," ","","brinquedo.","","","",""
"","null","html-keyboard-response","447","1393923","0.0-3.0-0.370-0.370","<span style= ""font-size:30px; font-family: monospace"">+</span>","null","fixation","","","","",""
"","1752","audio-keyboard-response","448","1396155","0.0-3.0-1.370","../audio/76-1-fem.mp3"," ","","O","","","",""
"","1949","audio-keyboard-response","449","1398604","0.0-3.0-1.371","../audio/76-2-fem.mp3"," ","","bisavô","","","",""
"","1691","audio-keyboard-response","450","1400851","0.0-3.0-1.372","../audio/76-3-fem.mp3"," ","","comprou","","","",""
"","1141","audio-keyboard-response","451","1402912","0.0-3.0-1.373","../audio/76-4-fem.mp3"," ","","um","","","",""
"","1560","audio-keyboard-response","452","1404858","0.0-3.0-1.374","../audio/76-5-fem.mp3"," ","","ralador","","","",""
"","859","audio-keyboard-response","453","1406093","0.0-3.0-1.375","../audio/76-6-fem.mp3"," ","","de","","","",""
"","1320","audio-keyboard-response","454","1407933","0.0-3.0-1.376","../audio/76-7-fem.mp3"," ","","queijo.","","","",""
"","null","html-keyboard-response","455","1409207","0.0-3.0-0.377-0.377","<span style= ""font-size:30px; font-family: monospace"">+</span>","null","fixation","","","","",""
"","1021","audio-keyboard-response","456","1410677","0.0-3.0-1.377","../audio/80-1-fem.mp3"," ","","Meu","","","",""
"","2381","audio-keyboard-response","457","1413516","0.0-3.0-1.378","../audio/80-2-fem.mp3"," ","","primo","","","",""
"","2360","audio-keyboard-response","458","1416954","0.0-3.0-1.379","../audio/80-3-fem.mp3"," ","","conheceu","","","",""
"","2011","audio-keyboard-response","459","1419347","0.0-3.0-1.380","../audio/80-4-fem.mp3"," ","","um","","","",""
"","1648","audio-keyboard-response","460","1421477","0.0-3.0-1.381","../audio/80-5-fem.mp3"," ","","jovem","","","",""
"","1581","audio-keyboard-response","461","1423636","0.0-3.0-1.382","../audio/80-6-fem.mp3"," ","","amável","","","",""
"","1232","audio-keyboard-response","462","1425227","0.0-3.0-1.383","../audio/80-7-fem.mp3"," ","","e","","","",""
"","2120","audio-keyboard-response","463","1427717","0.0-3.0-1.384","../audio/80-8-fem.mp3"," ","","confiante.","","","",""
"","7885","html-keyboard-response","464","1435868","0.0-3.0-2.384-0.384","<span style=""font-size:25px; font-family: monospace"">O primo conheceu um jovem irritante?</span>","s","","","O primo conheceu um jovem irritante?","null","exp-sent","false"
"","null","html-keyboard-response","465","1437394","0.0-3.0-0.385-0.385","<span style= ""font-size:30px; font-family: monospace"">+</span>","null","fixation","","","","",""
"","1368","audio-keyboard-response","466","1439439","0.0-3.0-1.385","../audio/26-1-fem.mp3"," ","","Amanhã","","","",""
"","1048","audio-keyboard-response","467","1440843","0.0-3.0-1.386","../audio/26-2-fem.mp3"," ","","temos","","","",""
"","1109","audio-keyboard-response","468","1442482","0.0-3.0-1.387","../audio/26-3-fem.mp3"," ","","festa","","","",""
"","971","audio-keyboard-response","469","1444010","0.0-3.0-1.388","../audio/26-4-fem.mp3"," ","","na","","","",""
"","1480","audio-keyboard-response","470","1445856","0.0-3.0-1.389","../audio/26-5-fem.mp3"," ","","piscina","","","",""
"","1101","audio-keyboard-response","471","1447312","0.0-3.0-1.390","../audio/26-6-fem.mp3"," ","","o","","","",""
"","1579","audio-keyboard-response","472","1449248","0.0-3.0-1.391","../audio/26-7-fem.mp3"," ","","dia","","","",""
"","1331","audio-keyboard-response","473","1450931","0.0-3.0-1.392","../audio/26-8-fem.mp3"," ","","todo.","","","",""
"","null","html-keyboard-response","474","1452199","0.0-3.0-0.393-0.393","<span style= ""font-size:30px; font-family: monospace"">+</span>","null","fixation","","","","",""
"","709","audio-keyboard-response","475","1453336","0.0-3.0-1.393","../audio/27-1-masc.mp3"," ","","O","","","",""
"","1189","audio-keyboard-response","476","1454906","0.0-3.0-1.394","../audio/27-2-masc.mp3"," ","","dinheiro","","","",""
"","971","audio-keyboard-response","477","1456259","0.0-3.0-1.395","../audio/27-3-masc.mp3"," ","","chegou","","","",""
"","840","audio-keyboard-response","478","1457444","0.0-3.0-1.396","../audio/27-4-masc.mp3"," ","","à","","","",""
"","968","audio-keyboard-response","479","1458884","0.0-3.0-1.397","../audio/27-5-masc.mp3"," ","","elite","","","",""
"","1331","audio-keyboard-response","480","1460632","0.0-3.0-1.398","../audio/27-6-masc.mp3"," ","","deste","","","",""
"","1528","audio-keyboard-response","481","1462521","0.0-3.0-1.399","../audio/27-7-masc.mp3"," ","","país.","","","",""
"","null","html-keyboard-response","482","1463784","0.0-3.0-0.400-0.400","<span style= ""font-size:30px; font-family: monospace"">+</span>","null","fixation","","","","",""
"","1040","audio-keyboard-response","483","1467789","0.0-3.0-1.400","../audio/29-1-fem.mp3"," ","","Hoje","","","",""
"","1309","audio-keyboard-response","484","1469638","0.0-3.0-1.401","../audio/29-2-fem.mp3"," ","","vamos","","","",""
"","1629","audio-keyboard-response","485","1471802","0.0-3.0-1.402","../audio/29-3-fem.mp3"," ","","fazer","","","",""
"","1331","audio-keyboard-response","486","1473795","0.0-3.0-1.403","../audio/29-4-fem.mp3"," ","","uma","","","",""
"","1701","audio-keyboard-response","487","1475938","0.0-3.0-1.404","../audio/29-5-fem.mp3"," ","","atividade","","","",""
"","1352","audio-keyboard-response","488","1478156","0.0-3.0-1.405","../audio/29-6-fem.mp3"," ","","sobre","","","",""
"","1101","audio-keyboard-response","489","1479707","0.0-3.0-1.406","../audio/29-7-fem.mp3"," ","","fauna","","","",""
"","1221","audio-keyboard-response","490","1481714","0.0-3.0-1.407","../audio/29-8-fem.mp3"," ","","marinha.","","","",""
"","null","html-keyboard-response","491","1482973","0.0-3.0-0.408-0.408","<span style= ""font-size:30px; font-family: monospace"">+</span>","null","fixation","","","","",""
"","629","audio-keyboard-response","492","1485132","0.0-3.0-1.408","../audio/28-1-fem.mp3"," ","","O","","","",""
"","960","audio-keyboard-response","493","1486511","0.0-3.0-1.409","../audio/28-2-fem.mp3"," ","","time","","","",""
"","931","audio-keyboard-response","494","1488342","0.0-3.0-1.410","../audio/28-3-fem.mp3"," ","","quer","","","",""
"","789","audio-keyboard-response","495","1489971","0.0-3.0-1.411","../audio/28-4-fem.mp3"," ","","a","","","",""
"","1109","audio-keyboard-response","496","1492279","0.0-3.0-1.412","../audio/28-5-fem.mp3"," ","","vitória","","","",""
"","1859","audio-keyboard-response","497","1494799","0.0-3.0-1.413","../audio/28-6-fem.mp3"," ","","no","","","",""
"","928","audio-keyboard-response","498","1496242","0.0-3.0-1.414","../audio/28-7-fem.mp3"," ","","jogo","","","",""
"","880","audio-keyboard-response","499","1497485","0.0-3.0-1.415","../audio/28-8-fem.mp3"," ","","de","","","",""
"","1152","audio-keyboard-response","500","1499073","0.0-3.0-1.416","../audio/28-9-fem.mp3"," ","","vôlei.","","","",""
"","null","html-keyboard-response","501","1500354","0.0-3.0-0.417-0.417","<span style= ""font-size:30px; font-family: monospace"">+</span>","null","fixation","","","","",""
"","661","audio-keyboard-response","502","1501993","0.0-3.0-1.417","../audio/30-1-fem.mp3"," ","","O","","","",""
"","4141","audio-keyboard-response","503","1506544","0.0-3.0-1.418","../audio/30-2-fem.mp3"," ","","funcionário","","","",""
"","1272","audio-keyboard-response","504","1508509","0.0-3.0-1.419","../audio/30-3-fem.mp3"," ","","entregou","","","",""
"","1099","audio-keyboard-response","505","1510003","0.0-3.0-1.420","../audio/30-4-fem.mp3"," ","","o","","","",""
"","1341","audio-keyboard-response","506","1511704","0.0-3.0-1.421","../audio/30-5-fem.mp3"," ","","restante","","","",""
"","848","audio-keyboard-response","507","1513126","0.0-3.0-1.422","../audio/30-6-fem.mp3"," ","","do","","","",""
"","1440","audio-keyboard-response","508","1514926","0.0-3.0-1.423","../audio/30-7-fem.mp3"," ","","dinheiro.","","","",""
"","6876","html-keyboard-response","509","1522060","0.0-3.0-2.423-0.423","<span style=""font-size:25px; font-family: monospace"">O funcionário entregou o contrato?</span>","n","","","O funcionário entregou o contrato?","null","exp-sent","false"
"","null","html-keyboard-response","510","1523563","0.0-3.0-0.424-0.424","<span style= ""font-size:30px; font-family: monospace"">+</span>","null","fixation","","","","",""
"","1059","audio-keyboard-response","511","1525048","0.0-3.0-1.424","../audio/36-1-masc.mp3"," ","","Meu","","","",""
"","968","audio-keyboard-response","512","1526366","0.0-3.0-1.425","../audio/36-2-masc.mp3"," ","","tio","","","",""
"","971","audio-keyboard-response","513","1527714","0.0-3.0-1.426","../audio/36-3-masc.mp3"," ","","comprou","","","",""
"","859","audio-keyboard-response","514","1528965","0.0-3.0-1.427","../audio/36-4-masc.mp3"," ","","um","","","",""
"","939","audio-keyboard-response","515","1530480","0.0-3.0-1.428","../audio/36-5-masc.mp3"," ","","filtro","","","",""
"","989","audio-keyboard-response","516","1531817","0.0-3.0-1.429","../audio/36-6-masc.mp3"," ","","de","","","",""
"","949","audio-keyboard-response","517","1533129","0.0-3.0-1.430","../audio/36-7-masc.mp3"," ","","água","","","",""
"","811","audio-keyboard-response","518","1534303","0.0-3.0-1.431","../audio/36-8-masc.mp3"," ","","hoje","","","",""
"","989","audio-keyboard-response","519","1535688","0.0-3.0-1.432","../audio/36-9-masc.mp3"," ","","cedo.","","","",""
"","null","html-keyboard-response","520","1536944","0.0-3.0-0.433-0.433","<span style= ""font-size:30px; font-family: monospace"">+</span>","null","fixation","","","","",""
"","320","audio-keyboard-response","521","1537711","0.0-3.0-1.433","../audio/38-1-fem.mp3"," ","","A","","","",""
"","1392","audio-keyboard-response","522","1539476","0.0-3.0-1.434","../audio/38-2-fem.mp3"," ","","empresa","","","",""
"","752","audio-keyboard-response","523","1540588","0.0-3.0-1.435","../audio/38-3-fem.mp3"," ","","criou","","","",""
"","931","audio-keyboard-response","524","1541897","0.0-3.0-1.436","../audio/38-4-fem.mp3"," ","","a","","","",""
"","1309","audio-keyboard-response","525","1543578","0.0-3.0-1.437","../audio/38-5-fem.mp3"," ","","patente","","","",""
"","1029","audio-keyboard-response","526","1544966","0.0-3.0-1.438","../audio/38-6-fem.mp3"," ","","da","","","",""
"","120","audio-keyboard-response","527","1545461","0.0-3.0-1.439","../audio/38-7-fem.mp3"," ","","frigideira.","","","",""
"","null","html-keyboard-response","528","1546726","0.0-3.0-0.440-0.440","<span style= ""font-size:30px; font-family: monospace"">+</span>","null","fixation","","","","",""
"","600","audio-keyboard-response","529","1547724","0.0-3.0-1.440","../audio/37-1-masc.mp3"," ","","Eu","","","",""
"","1000","audio-keyboard-response","530","1549085","0.0-3.0-1.441","../audio/37-2-masc.mp3"," ","","adoro","","","",""
"","1008","audio-keyboard-response","531","1550486","0.0-3.0-1.442","../audio/37-3-masc.mp3"," ","","suco","","","",""
"","1072","audio-keyboard-response","532","1551909","0.0-3.0-1.443","../audio/37-4-masc.mp3"," ","","de","","","",""
"","1291","audio-keyboard-response","533","1553584","0.0-3.0-1.444","../audio/37-5-masc.mp3"," ","","manga","","","",""
"","1000","audio-keyboard-response","534","1554943","0.0-3.0-1.445","../audio/37-6-masc.mp3"," ","","com","","","",""
"","1219","audio-keyboard-response","535","1556520","0.0-3.0-1.446","../audio/37-7-masc.mp3"," ","","hortelã.","","","",""
"","null","html-keyboard-response","536","1557778","0.0-3.0-0.447-0.447","<span style= ""font-size:30px; font-family: monospace"">+</span>","null","fixation","","","","",""
"","688","audio-keyboard-response","537","1558924","0.0-3.0-1.447","../audio/39-1-masc.mp3"," ","","O","","","",""
"","1160","audio-keyboard-response","538","1560451","0.0-3.0-1.448","../audio/39-2-masc.mp3"," ","","conselho","","","",""
"","939","audio-keyboard-response","539","1561757","0.0-3.0-1.449","../audio/39-3-masc.mp3"," ","","foi","","","",""
"","1181","audio-keyboard-response","540","1563305","0.0-3.0-1.450","../audio/39-4-masc.mp3"," ","","muito","","","",""
"","899","audio-keyboard-response","541","1564566","0.0-3.0-1.451","../audio/39-5-masc.mp3"," ","","útil","","","",""
"","1101","audio-keyboard-response","542","1566026","0.0-3.0-1.452","../audio/39-6-masc.mp3"," ","","para","","","",""
"","992","audio-keyboard-response","543","1567396","0.0-3.0-1.453","../audio/39-7-masc.mp3"," ","","minha","","","",""
"","1472","audio-keyboard-response","544","1569235","0.0-3.0-1.454","../audio/39-8-masc.mp3"," ","","tia.","","","",""
"","null","html-keyboard-response","545","1570493","0.0-3.0-0.455-0.455","<span style= ""font-size:30px; font-family: monospace"">+</span>","null","fixation","","","","",""
"","1509","audio-keyboard-response","546","1572443","0.0-3.0-1.455","../audio/40-1-fem.mp3"," ","","O","","","",""
"","469","audio-keyboard-response","547","1573618","0.0-3.0-1.456","../audio/40-2-fem.mp3"," ","","jogo","","","",""
"","1648","audio-keyboard-response","548","1575641","0.0-3.0-1.457","../audio/40-3-fem.mp3"," ","","falava","","","",""
"","2480","audio-keyboard-response","549","1578470","0.0-3.0-1.458","../audio/40-4-fem.mp3"," ","","de","","","",""
"","1851","audio-keyboard-response","550","1580747","0.0-3.0-1.459","../audio/40-5-fem.mp3"," ","","fantasia","","","",""
"","1920","audio-keyboard-response","551","1583131","0.0-3.0-1.460","../audio/40-6-fem.mp3"," ","","e","","","",""
"","1291","audio-keyboard-response","552","1584847","0.0-3.0-1.461","../audio/40-7-fem.mp3"," ","","de","","","",""
"","1560","audio-keyboard-response","553","1586776","0.0-3.0-1.462","../audio/40-8-fem.mp3"," ","","aventura.","","","",""
"","5038","html-keyboard-response","554","1592082","0.0-3.0-2.462-0.462","<span style=""font-size:25px; font-family: monospace"">O jogo tinha fantasia e aventura?</span>","s","","","O jogo tinha fantasia e aventura?","null","exp-sent","false"
"","null","html-keyboard-response","555","1593623","0.0-3.0-0.463-0.463","<span style= ""font-size:30px; font-family: monospace"">+</span>","null","fixation","","","","",""
"","672","audio-keyboard-response","556","1594793","0.0-3.0-1.463","../audio/57-1-masc.mp3"," ","","O","","","",""
"","1032","audio-keyboard-response","557","1596194","0.0-3.0-1.464","../audio/57-2-masc.mp3"," ","","capitão","","","",""
"","731","audio-keyboard-response","558","1597267","0.0-3.0-1.465","../audio/57-3-masc.mp3"," ","","deu","","","",""
"","931","audio-keyboard-response","559","1598543","0.0-3.0-1.466","../audio/57-4-masc.mp3"," ","","uma","","","",""
"","1211","audio-keyboard-response","560","1600141","0.0-3.0-1.467","../audio/57-5-masc.mp3"," ","","instrução","","","",""
"","819","audio-keyboard-response","561","1601324","0.0-3.0-1.468","../audio/57-6-masc.mp3"," ","","para","","","",""
"","779","audio-keyboard-response","562","1602490","0.0-3.0-1.469","../audio/57-7-masc.mp3"," ","","as","","","",""
"","851","audio-keyboard-response","563","1603750","0.0-3.0-1.470","../audio/57-8-masc.mp3"," ","","pessoas.","","","",""
"","null","html-keyboard-response","564","1605019","0.0-3.0-0.471-0.471","<span style= ""font-size:30px; font-family: monospace"">+</span>","null","fixation","","","","",""
"","539","audio-keyboard-response","565","1606247","0.0-3.0-1.471","../audio/56-1-masc.mp3"," ","","A","","","",""
"","872","audio-keyboard-response","566","1607635","0.0-3.0-1.472","../audio/56-2-masc.mp3"," ","","moça","","","",""
"","731","audio-keyboard-response","567","1608813","0.0-3.0-1.473","../audio/56-3-masc.mp3"," ","","foi","","","",""
"","781","audio-keyboard-response","568","1609991","0.0-3.0-1.474","../audio/56-4-masc.mp3"," ","","à","","","",""
"","928","audio-keyboard-response","569","1611358","0.0-3.0-1.475","../audio/56-5-masc.mp3"," ","","agência","","","",""
"","960","audio-keyboard-response","570","1612709","0.0-3.0-1.476","../audio/56-6-masc.mp3"," ","","bancária","","","",""
"","811","audio-keyboard-response","571","1614021","0.0-3.0-1.477","../audio/56-7-masc.mp3"," ","","ontem","","","",""
"","760","audio-keyboard-response","572","1615162","0.0-3.0-1.478","../audio/56-8-masc.mp3"," ","","de","","","",""
"","1021","audio-keyboard-response","573","1616551","0.0-3.0-1.479","../audio/56-9-masc.mp3"," ","","tarde.","","","",""
"","null","html-keyboard-response","574","1617834","0.0-3.0-0.480-0.480","<span style= ""font-size:30px; font-family: monospace"">+</span>","null","fixation","","","","",""
"","1480","audio-keyboard-response","575","1619809","0.0-3.0-1.480","../audio/58-1-fem.mp3"," ","","Havia","","","",""
"","1189","audio-keyboard-response","576","1621376","0.0-3.0-1.481","../audio/58-2-fem.mp3"," ","","apenas","","","",""
"","749","audio-keyboard-response","577","1622503","0.0-3.0-1.482","../audio/58-3-fem.mp3"," ","","um","","","",""
"","920","audio-keyboard-response","578","1623795","0.0-3.0-1.483","../audio/58-4-fem.mp3"," ","","último","","","",""
"","1101","audio-keyboard-response","579","1625266","0.0-3.0-1.484","../audio/58-5-fem.mp3"," ","","herdeiro","","","",""
"","901","audio-keyboard-response","580","1626510","0.0-3.0-1.485","../audio/58-6-fem.mp3"," ","","do","","","",""
"","989","audio-keyboard-response","581","1627866","0.0-3.0-1.486","../audio/58-7-fem.mp3"," ","","dinheiro.","","","",""
"","null","html-keyboard-response","582","1629134","0.0-3.0-0.487-0.487","<span style= ""font-size:30px; font-family: monospace"">+</span>","null","fixation","","","","",""
"","680","audio-keyboard-response","583","1630245","0.0-3.0-1.487","../audio/59-1-masc.mp3"," ","","O","","","",""
"","4411","audio-keyboard-response","584","1635017","0.0-3.0-1.488","../audio/59-2-masc.mp3"," ","","carteiro","","","",""
"","1101","audio-keyboard-response","585","1636595","0.0-3.0-1.489","../audio/59-3-masc.mp3"," ","","fez","","","",""
"","1011","audio-keyboard-response","586","1637968","0.0-3.0-1.490","../audio/59-4-masc.mp3"," ","","uma","","","",""
"","1229","audio-keyboard-response","587","1639581","0.0-3.0-1.491","../audio/59-5-masc.mp3"," ","","tentativa","","","",""
"","781","audio-keyboard-response","588","1640715","0.0-3.0-1.492","../audio/59-6-masc.mp3"," ","","de","","","",""
"","1029","audio-keyboard-response","589","1642105","0.0-3.0-1.493","../audio/59-7-masc.mp3"," ","","entrega.","","","",""
"","null","html-keyboard-response","590","1643363","0.0-3.0-0.494-0.494","<span style= ""font-size:30px; font-family: monospace"">+</span>","null","fixation","","","","",""
"","629","audio-keyboard-response","591","1644452","0.0-3.0-1.494","../audio/60-1-masc.mp3"," ","","Ondas","","","",""
"","880","audio-keyboard-response","592","1645677","0.0-3.0-1.495","../audio/60-2-masc.mp3"," ","","têm","","","",""
"","909","audio-keyboard-response","593","1646946","0.0-3.0-1.496","../audio/60-3-masc.mp3"," ","","um","","","",""
"","1048","audio-keyboard-response","594","1648363","0.0-3.0-1.497","../audio/60-4-masc.mp3"," ","","impacto","","","",""
"","1309","audio-keyboard-response","595","1650083","0.0-3.0-1.498","../audio/60-5-masc.mp3"," ","","destrutivo","","","",""
"","960","audio-keyboard-response","596","1651396","0.0-3.0-1.499","../audio/60-6-masc.mp3"," ","","no","","","",""
"","1032","audio-keyboard-response","597","1652795","0.0-3.0-1.500","../audio/60-7-masc.mp3"," ","","litoral.","","","",""
"","16854","html-keyboard-response","598","1669911","0.0-3.0-2.500-0.500","<span style=""font-size:25px; font-family: monospace"">Ondas têm um impacto destrutivo?</span>","s","","","Ondas têm um impacto destrutivo?","null","exp-sent","false"
"","null","html-keyboard-response","599","1671444","0.0-3.0-0.501-0.501","<span style= ""font-size:30px; font-family: monospace"">+</span>","null","fixation","","","","",""
"","661","audio-keyboard-response","600","1672594","0.0-3.0-1.501","../audio/24-1-fem.mp3"," ","","As","","","",""
"","1149","audio-keyboard-response","601","1674103","0.0-3.0-1.502","../audio/24-2-fem.mp3"," ","","crianças","","","",""
"","861","audio-keyboard-response","602","1675349","0.0-3.0-1.503","../audio/24-3-fem.mp3"," ","","vão","","","",""
"","779","audio-keyboard-response","603","1676481","0.0-3.0-1.504","../audio/24-4-fem.mp3"," ","","ao","","","",""
"","1101","audio-keyboard-response","604","1677937","0.0-3.0-1.505","../audio/24-5-fem.mp3"," ","","cinema","","","",""
"","781","audio-keyboard-response","605","1679099","0.0-3.0-1.506","../audio/24-6-fem.mp3"," ","","mais","","","",""
"","859","audio-keyboard-response","606","1680331","0.0-3.0-1.507","../audio/24-7-fem.mp3"," ","","tarde.","","","",""
"","null","html-keyboard-response","607","1681593","0.0-3.0-0.508-0.508","<span style= ""font-size:30px; font-family: monospace"">+</span>","null","fixation","","","","",""
"","840","audio-keyboard-response","608","1682872","0.0-3.0-1.508","../audio/22-1-masc.mp3"," ","","Eu","","","",""
"","920","audio-keyboard-response","609","1684147","0.0-3.0-1.509","../audio/22-2-masc.mp3"," ","","detesto","","","",""
"","971","audio-keyboard-response","610","1685515","0.0-3.0-1.510","../audio/22-3-masc.mp3"," ","","fumaça","","","",""
"","1011","audio-keyboard-response","611","1686868","0.0-3.0-1.511","../audio/22-4-masc.mp3"," ","","de","","","",""
"","1131","audio-keyboard-response","612","1688391","0.0-3.0-1.512","../audio/22-5-masc.mp3"," ","","cachimbo","","","",""
"","720","audio-keyboard-response","613","1689474","0.0-3.0-1.513","../audio/22-6-masc.mp3"," ","","e","","","",""
"","1021","audio-keyboard-response","614","1690874","0.0-3.0-1.514","../audio/22-7-masc.mp3"," ","","de","","","",""
"","880","audio-keyboard-response","615","1692119","0.0-3.0-1.515","../audio/22-8-masc.mp3"," ","","cigarro.","","","",""
"","null","html-keyboard-response","616","1693388","0.0-3.0-0.516-0.516","<span style= ""font-size:30px; font-family: monospace"">+</span>","null","fixation","","","","",""
"","581","audio-keyboard-response","617","1694501","0.0-3.0-1.516","../audio/21-1-masc.mp3"," ","","Precisamos","","","",""
"","861","audio-keyboard-response","618","1695707","0.0-3.0-1.517","../audio/21-2-masc.mp3"," ","","de","","","",""
"","1139","audio-keyboard-response","619","1697208","0.0-3.0-1.518","../audio/21-3-masc.mp3"," ","","paciência","","","",""
"","781","audio-keyboard-response","620","1698352","0.0-3.0-1.519","../audio/21-4-masc.mp3"," ","","e","","","",""
"","1051","audio-keyboard-response","621","1699766","0.0-3.0-1.520","../audio/21-5-masc.mp3"," ","","bondade","","","",""
"","939","audio-keyboard-response","622","1701055","0.0-3.0-1.521","../audio/21-6-masc.mp3"," ","","para","","","",""
"","1059","audio-keyboard-response","623","1702477","0.0-3.0-1.522","../audio/21-7-masc.mp3"," ","","um","","","",""
"","1011","audio-keyboard-response","624","1703866","0.0-3.0-1.523","../audio/21-8-masc.mp3"," ","","mundo","","","",""
"","1091","audio-keyboard-response","625","1705315","0.0-3.0-1.524","../audio/21-9-masc.mp3"," ","","melhor.","","","",""
"","null","html-keyboard-response","626","1706583","0.0-3.0-0.525-0.525","<span style= ""font-size:30px; font-family: monospace"">+</span>","null","fixation","","","","",""
"","1160","audio-keyboard-response","627","1708196","0.0-3.0-1.525","../audio/23-1-masc.mp3"," ","","Português","","","",""
"","1000","audio-keyboard-response","628","1709596","0.0-3.0-1.526","../audio/23-2-masc.mp3"," ","","é","","","",""
"","939","audio-keyboard-response","629","1710880","0.0-3.0-1.527","../audio/23-3-masc.mp3"," ","","um","","","",""
"","1349","audio-keyboard-response","630","1712605","0.0-3.0-1.528","../audio/23-4-masc.mp3"," ","","assunto","","","",""
"","1531","audio-keyboard-response","631","1714511","0.0-3.0-1.529","../audio/23-5-masc.mp3"," ","","elementar","","","",""
"","1320","audio-keyboard-response","632","1716176","0.0-3.0-1.530","../audio/23-6-masc.mp3"," ","","para","","","",""
"","1320","audio-keyboard-response","633","1717845","0.0-3.0-1.531","../audio/23-7-masc.mp3"," ","","os","","","",""
"","1211","audio-keyboard-response","634","1719425","0.0-3.0-1.532","../audio/23-8-masc.mp3"," ","","alunos.","","","",""
"","null","html-keyboard-response","635","1720703","0.0-3.0-0.533-0.533","<span style= ""font-size:30px; font-family: monospace"">+</span>","null","fixation","","","","",""
"","789","audio-keyboard-response","636","1721905","0.0-3.0-1.533","../audio/25-1-masc.mp3"," ","","Ela","","","",""
"","949","audio-keyboard-response","637","1723206","0.0-3.0-1.534","../audio/25-2-masc.mp3"," ","","faz","","","",""
"","941","audio-keyboard-response","638","1724515","0.0-3.0-1.535","../audio/25-3-masc.mp3"," ","","tanto","","","",""
"","861","audio-keyboard-response","639","1725746","0.0-3.0-1.536","../audio/25-4-masc.mp3"," ","","cabelo","","","",""
"","1029","audio-keyboard-response","640","1727142","0.0-3.0-1.537","../audio/25-5-masc.mp3"," ","","liso","","","",""
"","1160","audio-keyboard-response","641","1728667","0.0-3.0-1.538","../audio/25-6-masc.mp3"," ","","quanto","","","",""
"","1261","audio-keyboard-response","642","1730308","0.0-3.0-1.539","../audio/25-7-masc.mp3"," ","","cacheado.","","","",""
"","3538","html-keyboard-response","643","1734102","0.0-3.0-2.539-0.539","<span style=""font-size:25px; font-family: monospace"">Ela só faz cabelo cacheado?</span>","s","","","Ela só faz cabelo cacheado?","null","exp-sent","false"
"","null","html-keyboard-response","644","1735623","0.0-3.0-0.540-0.540","<span style= ""font-size:30px; font-family: monospace"">+</span>","null","fixation","","","","",""
"","832","audio-keyboard-response","645","1736993","0.0-3.0-1.540","../audio/16-1-fem.mp3"," ","","Eu","","","",""
"","1269","audio-keyboard-response","646","1738657","0.0-3.0-1.541","../audio/16-2-fem.mp3"," ","","nunca","","","",""
"","1312","audio-keyboard-response","647","1740353","0.0-3.0-1.542","../audio/16-3-fem.mp3"," ","","conheci","","","",""
"","880","audio-keyboard-response","648","1741588","0.0-3.0-1.543","../audio/16-4-fem.mp3"," ","","um","","","",""
"","1400","audio-keyboard-response","649","1743381","0.0-3.0-1.544","../audio/16-5-fem.mp3"," ","","general","","","",""
"","941","audio-keyboard-response","650","1744659","0.0-3.0-1.545","../audio/16-6-fem.mp3"," ","","do","","","",""
"","1251","audio-keyboard-response","651","1746305","0.0-3.0-1.546","../audio/16-7-fem.mp3"," ","","exército.","","","",""
"","null","html-keyboard-response","652","1747573","0.0-3.0-0.547-0.547","<span style= ""font-size:30px; font-family: monospace"">+</span>","null","fixation","","","","",""
"","840","audio-keyboard-response","653","1748850","0.0-3.0-1.547","../audio/18-1-masc.mp3"," ","","O","","","",""
"","1181","audio-keyboard-response","654","1750377","0.0-3.0-1.548","../audio/18-2-masc.mp3"," ","","enredo","","","",""
"","989","audio-keyboard-response","655","1751717","0.0-3.0-1.549","../audio/18-3-masc.mp3"," ","","traz","","","",""
"","859","audio-keyboard-response","656","1752927","0.0-3.0-1.550","../audio/18-4-masc.mp3"," ","","um","","","",""
"","1040","audio-keyboard-response","657","1754351","0.0-3.0-1.551","../audio/18-5-masc.mp3"," ","","dragão","","","",""
"","1040","audio-keyboard-response","658","1755734","0.0-3.0-1.552","../audio/18-6-masc.mp3"," ","","forte","","","",""
"","1181","audio-keyboard-response","659","1757270","0.0-3.0-1.553","../audio/18-7-masc.mp3"," ","","e","","","",""
"","1240","audio-keyboard-response","660","1758872","0.0-3.0-1.554","../audio/18-8-masc.mp3"," ","","solitário.","","","",""
"","null","html-keyboard-response","661","1760153","0.0-3.0-0.555-0.555","<span style= ""font-size:30px; font-family: monospace"">+</span>","null","fixation","","","","",""
"","709","audio-keyboard-response","662","1761296","0.0-3.0-1.555","../audio/19-1-masc.mp3"," ","","O","","","",""
"","1149","audio-keyboard-response","663","1762814","0.0-3.0-1.556","../audio/19-2-masc.mp3"," ","","menino","","","",""
"","1371","audio-keyboard-response","664","1764529","0.0-3.0-1.557","../audio/19-3-masc.mp3"," ","","ganhou","","","",""
"","1240","audio-keyboard-response","665","1766165","0.0-3.0-1.558","../audio/19-4-masc.mp3"," ","","uma","","","",""
"","1272","audio-keyboard-response","666","1767872","0.0-3.0-1.559","../audio/19-5-masc.mp3"," ","","bala","","","",""
"","1312","audio-keyboard-response","667","1769707","0.0-3.0-1.560","../audio/19-6-masc.mp3"," ","","depois","","","",""
"","1240","audio-keyboard-response","668","1771350","0.0-3.0-1.561","../audio/19-7-masc.mp3"," ","","do","","","",""
"","1469","audio-keyboard-response","669","1773376","0.0-3.0-1.562","../audio/19-8-masc.mp3"," ","","almoço.","","","",""
"","null","html-keyboard-response","670","1774643","0.0-3.0-0.563-0.563","<span style= ""font-size:30px; font-family: monospace"">+</span>","null","fixation","","","","",""
"","1579","audio-keyboard-response","671","1779250","0.0-3.0-1.563","../audio/17-1-fem.mp3"," ","","Falaram","","","",""
"","949","audio-keyboard-response","672","1781205","0.0-3.0-1.564","../audio/17-2-fem.mp3"," ","","da","","","",""
"","1200","audio-keyboard-response","673","1782878","0.0-3.0-1.565","../audio/17-3-fem.mp3"," ","","lei","","","",""
"","971","audio-keyboard-response","674","1784295","0.0-3.0-1.566","../audio/17-4-fem.mp3"," ","","no","","","",""
"","1688","audio-keyboard-response","675","1786883","0.0-3.0-1.567","../audio/17-5-fem.mp3"," ","","ministério","","","",""
"","1261","audio-keyboard-response","676","1788715","0.0-3.0-1.568","../audio/17-6-fem.mp3"," ","","diversas","","","",""
"","1040","audio-keyboard-response","677","1790366","0.0-3.0-1.569","../audio/17-7-fem.mp3"," ","","vezes.","","","",""
"","null","html-keyboard-response","678","1791643","0.0-3.0-0.570-0.570","<span style= ""font-size:30px; font-family: monospace"">+</span>","null","fixation","","","","",""
"","949","audio-keyboard-response","679","1793008","0.0-3.0-1.570","../audio/20-1-fem.mp3"," ","","O","","","",""
"","1141","audio-keyboard-response","680","1794784","0.0-3.0-1.571","../audio/20-2-fem.mp3"," ","","colega","","","",""
"","1411","audio-keyboard-response","681","1796615","0.0-3.0-1.572","../audio/20-3-fem.mp3"," ","","parecia","","","",""
"","1171","audio-keyboard-response","682","1798186","0.0-3.0-1.573","../audio/20-4-fem.mp3"," ","","muito","","","",""
"","1429","audio-keyboard-response","683","1799986","0.0-3.0-1.574","../audio/20-5-fem.mp3"," ","","gripado","","","",""
"","1301","audio-keyboard-response","684","1801666","0.0-3.0-1.575","../audio/20-6-fem.mp3"," ","","no","","","",""
"","1040","audio-keyboard-response","685","1803065","0.0-3.0-1.576","../audio/20-7-fem.mp3"," ","","dia","","","",""
"","1691","audio-keyboard-response","686","1805114","0.0-3.0-1.577","../audio/20-8-fem.mp3"," ","","anterior.","","","",""
"","5910","html-keyboard-response","687","1811284","0.0-3.0-2.577-0.577","<span style=""font-size:25px; font-family: monospace"">O colega parecia muito gripado?</span>","s","","","O colega parecia muito gripado?","null","exp-sent","false"
"","null","html-keyboard-response","688","1812811","0.0-3.0-0.578-0.578","<span style= ""font-size:30px; font-family: monospace"">+</span>","null","fixation","","","","",""
"","21","audio-keyboard-response","689","1813258","0.0-3.0-1.578","../audio/61-1-masc.mp3"," ","","Aquele","","","",""
"","1160","audio-keyboard-response","690","1814783","0.0-3.0-1.579","../audio/61-2-masc.mp3"," ","","senhor","","","",""
"","789","audio-keyboard-response","691","1815919","0.0-3.0-1.580","../audio/61-3-masc.mp3"," ","","é","","","",""
"","1061","audio-keyboard-response","692","1817342","0.0-3.0-1.581","../audio/61-4-masc.mp3"," ","","muito","","","",""
"","1339","audio-keyboard-response","693","1819056","0.0-3.0-1.582","../audio/61-5-masc.mp3"," ","","sovina","","","",""
"","989","audio-keyboard-response","694","1820398","0.0-3.0-1.583","../audio/61-6-masc.mp3"," ","","e","","","",""
"","1560","audio-keyboard-response","695","1822319","0.0-3.0-1.584","../audio/61-7-masc.mp3"," ","","inflexível.","","","",""
"","null","html-keyboard-response","696","1823593","0.0-3.0-0.585-0.585","<span style= ""font-size:30px; font-family: monospace"">+</span>","null","fixation","","","","",""
"","1131","audio-keyboard-response","697","1825154","0.0-3.0-1.585","../audio/64-1-masc.mp3"," ","","O","","","",""
"","989","audio-keyboard-response","698","1826569","0.0-3.0-1.586","../audio/64-2-masc.mp3"," ","","dia","","","",""
"","1139","audio-keyboard-response","699","1828086","0.0-3.0-1.587","../audio/64-3-masc.mp3"," ","","começou","","","",""
"","979","audio-keyboard-response","700","1829412","0.0-3.0-1.588","../audio/64-4-masc.mp3"," ","","com","","","",""
"","1259","audio-keyboard-response","701","1831041","0.0-3.0-1.589","../audio/64-5-masc.mp3"," ","","garoa","","","",""
"","1371","audio-keyboard-response","702","1832792","0.0-3.0-1.590","../audio/64-6-masc.mp3"," ","","gelada","","","",""
"","1291","audio-keyboard-response","703","1834453","0.0-3.0-1.591","../audio/64-7-masc.mp3"," ","","e","","","",""
"","1069","audio-keyboard-response","704","1835935","0.0-3.0-1.592","../audio/64-8-masc.mp3"," ","","leve.","","","",""
"","null","html-keyboard-response","705","1837214","0.0-3.0-0.593-0.593","<span style= ""font-size:30px; font-family: monospace"">+</span>","null","fixation","","","","",""
"","861","audio-keyboard-response","706","1838584","0.0-3.0-1.593","../audio/63-1-masc.mp3"," ","","A","","","",""
"","1040","audio-keyboard-response","707","1840061","0.0-3.0-1.594","../audio/63-2-masc.mp3"," ","","chuva","","","",""
"","1160","audio-keyboard-response","708","1841539","0.0-3.0-1.595","../audio/63-3-masc.mp3"," ","","entrou","","","",""
"","1032","audio-keyboard-response","709","1842913","0.0-3.0-1.596","../audio/63-4-masc.mp3"," ","","pela","","","",""
"","1229","audio-keyboard-response","710","1844486","0.0-3.0-1.597","../audio/63-5-masc.mp3"," ","","abertura","","","",""
"","989","audio-keyboard-response","711","1845843","0.0-3.0-1.598","../audio/63-6-masc.mp3"," ","","na","","","",""
"","1339","audio-keyboard-response","712","1847562","0.0-3.0-1.599","../audio/63-7-masc.mp3"," ","","janela.","","","",""
"","null","html-keyboard-response","713","1848833","0.0-3.0-0.600-0.600","<span style= ""font-size:30px; font-family: monospace"">+</span>","null","fixation","","","","",""
"","952","audio-keyboard-response","714","1850226","0.0-3.0-1.600","../audio/62-1-masc.mp3"," ","","As","","","",""
"","1421","audio-keyboard-response","715","1852062","0.0-3.0-1.601","../audio/62-2-masc.mp3"," ","","artesãs","","","",""
"","1080","audio-keyboard-response","716","1853507","0.0-3.0-1.602","../audio/62-3-masc.mp3"," ","","gostam","","","",""
"","979","audio-keyboard-response","717","1854843","0.0-3.0-1.603","../audio/62-4-masc.mp3"," ","","de","","","",""
"","1440","audio-keyboard-response","718","1856675","0.0-3.0-1.604","../audio/62-5-masc.mp3"," ","","maquiagem","","","",""
"","1112","audio-keyboard-response","719","1858192","0.0-3.0-1.605","../audio/62-6-masc.mp3"," ","","e","","","",""
"","1051","audio-keyboard-response","720","1859635","0.0-3.0-1.606","../audio/62-7-masc.mp3"," ","","de","","","",""
"","1219","audio-keyboard-response","721","1861203","0.0-3.0-1.607","../audio/62-8-masc.mp3"," ","","crochê.","","","",""
"","null","html-keyboard-response","722","1862483","0.0-3.0-0.608-0.608","<span style= ""font-size:30px; font-family: monospace"">+</span>","null","fixation","","","","",""
"","821","audio-keyboard-response","723","1863978","0.0-3.0-1.608","../audio/65-1-masc.mp3"," ","","O","","","",""
"","1371","audio-keyboard-response","724","1865714","0.0-3.0-1.609","../audio/65-2-masc.mp3"," ","","fantasma","","","",""
"","1160","audio-keyboard-response","725","1867280","0.0-3.0-1.610","../audio/65-3-masc.mp3"," ","","veio","","","",""
"","920","audio-keyboard-response","726","1868600","0.0-3.0-1.611","../audio/65-4-masc.mp3"," ","","da","","","",""
"","1819","audio-keyboard-response","727","1870851","0.0-3.0-1.612","../audio/65-5-masc.mp3"," ","","escuridão","","","",""
"","1131","audio-keyboard-response","728","1872416","0.0-3.0-1.613","../audio/65-6-masc.mp3"," ","","do","","","",""
"","1149","audio-keyboard-response","729","1874135","0.0-3.0-1.614","../audio/65-7-masc.mp3"," ","","armário.","","","",""
"","5761","html-keyboard-response","730","1880155","0.0-3.0-2.614-0.614","<span style=""font-size:25px; font-family: monospace"">O fantasma veio da escuridão do armário?</span>","s","","","O fantasma veio da escuridão do armário?","null","exp-sent","false"
"[{""page_index"":0,""viewing_time"":18244}]","18244","instructions","731","1898909","0.0-4.0","","","","","","","",""
