[
	{
		"view_history": [
			{
				"page_index": 0,
				"viewing_time": 1102
			},
			{
				"page_index": 1,
				"viewing_time": 770
			}
		],
		"rt": 1872,
		"trial_type": "instructions",
		"trial_index": 0,
		"time_elapsed": 1876,
		"internal_node_id": "0.0-0.0"
	},
	{
		"rt": null,
		"stimulus": "<span style= \"font-size:30px; font-family: monospace\">+</span>",
		"response": null,
		"trial_part": "fixation",
		"trial_type": "html-keyboard-response",
		"trial_index": 1,
		"time_elapsed": 2999,
		"internal_node_id": "0.0-1.0-0.0-0.0"
	},
	{
		"rt": 861,
		"stimulus": "../audio/prac-question-1-1.mp3",
		"response": " ",
		"word": "O",
		"trial_type": "audio-keyboard-response",
		"trial_index": 2,
		"time_elapsed": 4648,
		"internal_node_id": "0.0-1.0-1.0"
	},
	{
		"rt": 1592,
		"stimulus": "../audio/prac-question-1-2.mp3",
		"response": " ",
		"word": "dia",
		"trial_type": "audio-keyboard-response",
		"trial_index": 3,
		"time_elapsed": 6774,
		"internal_node_id": "0.0-1.0-1.1"
	},
	{
		"rt": 1808,
		"stimulus": "../audio/prac-question-1-3.mp3",
		"response": " ",
		"word": "estará",
		"trial_type": "audio-keyboard-response",
		"trial_index": 4,
		"time_elapsed": 8948,
		"internal_node_id": "0.0-1.0-1.2"
	},
	{
		"rt": 1760,
		"stimulus": "../audio/prac-question-1-4.mp3",
		"response": " ",
		"word": "cheio",
		"trial_type": "audio-keyboard-response",
		"trial_index": 5,
		"time_elapsed": 11168,
		"internal_node_id": "0.0-1.0-1.3"
	},
	{
		"rt": 1640,
		"stimulus": "../audio/prac-question-1-5.mp3",
		"response": " ",
		"word": "de",
		"trial_type": "audio-keyboard-response",
		"trial_index": 6,
		"time_elapsed": 13410,
		"internal_node_id": "0.0-1.0-1.4"
	},
	{
		"rt": 2120,
		"stimulus": "../audio/prac-question-1-6.mp3",
		"response": " ",
		"word": "nuvens",
		"trial_type": "audio-keyboard-response",
		"trial_index": 7,
		"time_elapsed": 15896,
		"internal_node_id": "0.0-1.0-1.5"
	},
	{
		"rt": 1589,
		"stimulus": "../audio/prac-question-1-7.mp3",
		"response": " ",
		"word": "hoje.",
		"trial_type": "audio-keyboard-response",
		"trial_index": 8,
		"time_elapsed": 17909,
		"internal_node_id": "0.0-1.0-1.6"
	},
	{
		"rt": null,
		"stimulus": "<span style= \"font-size:30px; font-family: monospace\">+</span>",
		"response": null,
		"trial_part": "fixation",
		"trial_type": "html-keyboard-response",
		"trial_index": 9,
		"time_elapsed": 19177,
		"internal_node_id": "0.0-1.0-0.7-0.7"
	},
	{
		"rt": 1739,
		"stimulus": "../audio/prac-question-2-1.mp3",
		"response": " ",
		"word": "A",
		"trial_type": "audio-keyboard-response",
		"trial_index": 10,
		"time_elapsed": 21351,
		"internal_node_id": "0.0-1.0-1.7"
	},
	{
		"rt": 2029,
		"stimulus": "../audio/prac-question-2-2.mp3",
		"response": " ",
		"word": "caneca",
		"trial_type": "audio-keyboard-response",
		"trial_index": 11,
		"time_elapsed": 24206,
		"internal_node_id": "0.0-1.0-1.8"
	},
	{
		"rt": 3680,
		"stimulus": "../audio/prac-question-2-3.mp3",
		"response": " ",
		"word": "colorida",
		"trial_type": "audio-keyboard-response",
		"trial_index": 12,
		"time_elapsed": 28317,
		"internal_node_id": "0.0-1.0-1.9"
	},
	{
		"rt": 3048,
		"stimulus": "../audio/prac-question-2-4.mp3",
		"response": " ",
		"word": "caiu",
		"trial_type": "audio-keyboard-response",
		"trial_index": 13,
		"time_elapsed": 31819,
		"internal_node_id": "0.0-1.0-1.10"
	},
	{
		"rt": 1629,
		"stimulus": "../audio/prac-question-2-5.mp3",
		"response": " ",
		"word": "da",
		"trial_type": "audio-keyboard-response",
		"trial_index": 14,
		"time_elapsed": 33917,
		"internal_node_id": "0.0-1.0-1.11"
	},
	{
		"rt": 1931,
		"stimulus": "../audio/prac-question-2-6.mp3",
		"response": " ",
		"word": "mesa",
		"trial_type": "audio-keyboard-response",
		"trial_index": 15,
		"time_elapsed": 36391,
		"internal_node_id": "0.0-1.0-1.12"
	},
	{
		"rt": 1560,
		"stimulus": "../audio/prac-question-2-7.mp3",
		"response": " ",
		"word": "de",
		"trial_type": "audio-keyboard-response",
		"trial_index": 16,
		"time_elapsed": 38377,
		"internal_node_id": "0.0-1.0-1.13"
	},
	{
		"rt": 2040,
		"stimulus": "../audio/prac-question-2-8.mp3",
		"response": " ",
		"word": "jantar.",
		"trial_type": "audio-keyboard-response",
		"trial_index": 17,
		"time_elapsed": 40791,
		"internal_node_id": "0.0-1.0-1.14"
	},
	{
		"rt": 18830,
		"stimulus": "<span style=\"font-size:25px; font-family: monospace\">A caneca era colorida?</span>",
		"response": "s",
		"question": "A caneca era colorida?",
		"answer": "null",
		"trial": "prac-sent",
		"trial_type": "html-keyboard-response",
		"trial_index": 18,
		"time_elapsed": 59886,
		"internal_node_id": "0.0-1.0-2.14-0.14",
		"accuracy": false
	},
	{
		"view_history": [
			{
				"page_index": 0,
				"viewing_time": 30561
			}
		],
		"rt": 30561,
		"trial_type": "instructions",
		"trial_index": 19,
		"time_elapsed": 90961,
		"internal_node_id": "0.0-2.0"
	},
	{
		"rt": null,
		"stimulus": "<span style= \"font-size:30px; font-family: monospace\">+</span>",
		"response": null,
		"trial_part": "fixation",
		"trial_type": "html-keyboard-response",
		"trial_index": 20,
		"time_elapsed": 92092,
		"internal_node_id": "0.0-3.0-0.0-0.0"
	},
	{
		"rt": 1701,
		"stimulus": "../audio/44-1-masc.mp3",
		"response": " ",
		"word": "Meus",
		"trial_type": "audio-keyboard-response",
		"trial_index": 21,
		"time_elapsed": 94240,
		"internal_node_id": "0.0-3.0-1.0"
	},
	{
		"rt": 1640,
		"stimulus": "../audio/44-2-masc.mp3",
		"response": " ",
		"word": "irmãos",
		"trial_type": "audio-keyboard-response",
		"trial_index": 22,
		"time_elapsed": 96334,
		"internal_node_id": "0.0-3.0-1.1"
	},
	{
		"rt": 1429,
		"stimulus": "../audio/44-3-masc.mp3",
		"response": " ",
		"word": "brigam",
		"trial_type": "audio-keyboard-response",
		"trial_index": 23,
		"time_elapsed": 98227,
		"internal_node_id": "0.0-3.0-1.2"
	},
	{
		"rt": 1232,
		"stimulus": "../audio/44-4-masc.mp3",
		"response": " ",
		"word": "por",
		"trial_type": "audio-keyboard-response",
		"trial_index": 24,
		"time_elapsed": 99811,
		"internal_node_id": "0.0-3.0-1.3"
	},
	{
		"rt": 1469,
		"stimulus": "../audio/44-5-masc.mp3",
		"response": " ",
		"word": "bobagem",
		"trial_type": "audio-keyboard-response",
		"trial_index": 25,
		"time_elapsed": 101648,
		"internal_node_id": "0.0-3.0-1.4"
	},
	{
		"rt": 1400,
		"stimulus": "../audio/44-6-masc.mp3",
		"response": " ",
		"word": "todos",
		"trial_type": "audio-keyboard-response",
		"trial_index": 26,
		"time_elapsed": 103410,
		"internal_node_id": "0.0-3.0-1.5"
	},
	{
		"rt": 1621,
		"stimulus": "../audio/44-7-masc.mp3",
		"response": " ",
		"word": "os",
		"trial_type": "audio-keyboard-response",
		"trial_index": 27,
		"time_elapsed": 105408,
		"internal_node_id": "0.0-3.0-1.6"
	},
	{
		"rt": 1699,
		"stimulus": "../audio/44-8-masc.mp3",
		"response": " ",
		"word": "dias.",
		"trial_type": "audio-keyboard-response",
		"trial_index": 28,
		"time_elapsed": 107466,
		"internal_node_id": "0.0-3.0-1.7"
	},
	{
		"rt": null,
		"stimulus": "<span style= \"font-size:30px; font-family: monospace\">+</span>",
		"response": null,
		"trial_part": "fixation",
		"trial_type": "html-keyboard-response",
		"trial_index": 29,
		"time_elapsed": 108738,
		"internal_node_id": "0.0-3.0-0.8-0.8"
	},
	{
		"rt": 1160,
		"stimulus": "../audio/41-1-masc.mp3",
		"response": " ",
		"word": "A",
		"trial_type": "audio-keyboard-response",
		"trial_index": 30,
		"time_elapsed": 110443,
		"internal_node_id": "0.0-3.0-1.8"
	},
	{
		"rt": 1411,
		"stimulus": "../audio/41-2-masc.mp3",
		"response": " ",
		"word": "novela",
		"trial_type": "audio-keyboard-response",
		"trial_index": 31,
		"time_elapsed": 112205,
		"internal_node_id": "0.0-3.0-1.9"
	},
	{
		"rt": 1259,
		"stimulus": "../audio/41-3-masc.mp3",
		"response": " ",
		"word": "falava",
		"trial_type": "audio-keyboard-response",
		"trial_index": 32,
		"time_elapsed": 113830,
		"internal_node_id": "0.0-3.0-1.10"
	},
	{
		"rt": 1120,
		"stimulus": "../audio/41-4-masc.mp3",
		"response": " ",
		"word": "de",
		"trial_type": "audio-keyboard-response",
		"trial_index": 33,
		"time_elapsed": 115317,
		"internal_node_id": "0.0-3.0-1.11"
	},
	{
		"rt": 1472,
		"stimulus": "../audio/41-5-masc.mp3",
		"response": " ",
		"word": "paixão",
		"trial_type": "audio-keyboard-response",
		"trial_index": 34,
		"time_elapsed": 117175,
		"internal_node_id": "0.0-3.0-1.12"
	},
	{
		"rt": 1099,
		"stimulus": "../audio/41-6-masc.mp3",
		"response": " ",
		"word": "e",
		"trial_type": "audio-keyboard-response",
		"trial_index": 35,
		"time_elapsed": 118620,
		"internal_node_id": "0.0-3.0-1.13"
	},
	{
		"rt": 1429,
		"stimulus": "../audio/41-7-masc.mp3",
		"response": " ",
		"word": "comédia.",
		"trial_type": "audio-keyboard-response",
		"trial_index": 36,
		"time_elapsed": 120420,
		"internal_node_id": "0.0-3.0-1.14"
	},
	{
		"rt": null,
		"stimulus": "<span style= \"font-size:30px; font-family: monospace\">+</span>",
		"response": null,
		"trial_part": "fixation",
		"trial_type": "html-keyboard-response",
		"trial_index": 37,
		"time_elapsed": 121688,
		"internal_node_id": "0.0-3.0-0.15-0.15"
	},
	{
		"rt": 1520,
		"stimulus": "../audio/43-1-fem.mp3",
		"response": " ",
		"word": "Eu",
		"trial_type": "audio-keyboard-response",
		"trial_index": 38,
		"time_elapsed": 123719,
		"internal_node_id": "0.0-3.0-1.15"
	},
	{
		"rt": 1928,
		"stimulus": "../audio/43-2-fem.mp3",
		"response": " ",
		"word": "achei",
		"trial_type": "audio-keyboard-response",
		"trial_index": 39,
		"time_elapsed": 126059,
		"internal_node_id": "0.0-3.0-1.16"
	},
	{
		"rt": 1200,
		"stimulus": "../audio/43-3-fem.mp3",
		"response": " ",
		"word": "um",
		"trial_type": "audio-keyboard-response",
		"trial_index": 40,
		"time_elapsed": 127740,
		"internal_node_id": "0.0-3.0-1.17"
	},
	{
		"rt": 1632,
		"stimulus": "../audio/43-4-fem.mp3",
		"response": " ",
		"word": "colchão",
		"trial_type": "audio-keyboard-response",
		"trial_index": 41,
		"time_elapsed": 129729,
		"internal_node_id": "0.0-3.0-1.18"
	},
	{
		"rt": 1480,
		"stimulus": "../audio/43-5-fem.mp3",
		"response": " ",
		"word": "velho",
		"trial_type": "audio-keyboard-response",
		"trial_index": 42,
		"time_elapsed": 131559,
		"internal_node_id": "0.0-3.0-1.19"
	},
	{
		"rt": 1480,
		"stimulus": "../audio/43-6-fem.mp3",
		"response": " ",
		"word": "e",
		"trial_type": "audio-keyboard-response",
		"trial_index": 43,
		"time_elapsed": 133396,
		"internal_node_id": "0.0-3.0-1.20"
	},
	{
		"rt": 1568,
		"stimulus": "../audio/43-7-fem.mp3",
		"response": " ",
		"word": "imundo",
		"trial_type": "audio-keyboard-response",
		"trial_index": 44,
		"time_elapsed": 135339,
		"internal_node_id": "0.0-3.0-1.21"
	},
	{
		"rt": 1579,
		"stimulus": "../audio/43-8-fem.mp3",
		"response": " ",
		"word": "na",
		"trial_type": "audio-keyboard-response",
		"trial_index": 45,
		"time_elapsed": 137259,
		"internal_node_id": "0.0-3.0-1.22"
	},
	{
		"rt": 1648,
		"stimulus": "../audio/43-9-fem.mp3",
		"response": " ",
		"word": "casa.",
		"trial_type": "audio-keyboard-response",
		"trial_index": 46,
		"time_elapsed": 139268,
		"internal_node_id": "0.0-3.0-1.23"
	},
	{
		"rt": null,
		"stimulus": "<span style= \"font-size:30px; font-family: monospace\">+</span>",
		"response": null,
		"trial_part": "fixation",
		"trial_type": "html-keyboard-response",
		"trial_index": 47,
		"time_elapsed": 140556,
		"internal_node_id": "0.0-3.0-0.24-0.24"
	},
	{
		"rt": 1259,
		"stimulus": "../audio/42-1-masc.mp3",
		"response": " ",
		"word": "Eu",
		"trial_type": "audio-keyboard-response",
		"trial_index": 48,
		"time_elapsed": 142267,
		"internal_node_id": "0.0-3.0-1.24"
	},
	{
		"rt": 1088,
		"stimulus": "../audio/42-2-masc.mp3",
		"response": " ",
		"word": "fui",
		"trial_type": "audio-keyboard-response",
		"trial_index": 49,
		"time_elapsed": 143704,
		"internal_node_id": "0.0-3.0-1.25"
	},
	{
		"rt": 1240,
		"stimulus": "../audio/42-3-masc.mp3",
		"response": " ",
		"word": "a",
		"trial_type": "audio-keyboard-response",
		"trial_index": 50,
		"time_elapsed": 145290,
		"internal_node_id": "0.0-3.0-1.26"
	},
	{
		"rt": 1272,
		"stimulus": "../audio/42-4-masc.mp3",
		"response": " ",
		"word": "uma",
		"trial_type": "audio-keyboard-response",
		"trial_index": 51,
		"time_elapsed": 146934,
		"internal_node_id": "0.0-3.0-1.27"
	},
	{
		"rt": 1480,
		"stimulus": "../audio/42-5-masc.mp3",
		"response": " ",
		"word": "loja",
		"trial_type": "audio-keyboard-response",
		"trial_index": 52,
		"time_elapsed": 148751,
		"internal_node_id": "0.0-3.0-1.28"
	},
	{
		"rt": 1189,
		"stimulus": "../audio/42-6-masc.mp3",
		"response": " ",
		"word": "de",
		"trial_type": "audio-keyboard-response",
		"trial_index": 53,
		"time_elapsed": 150281,
		"internal_node_id": "0.0-3.0-1.29"
	},
	{
		"rt": 1552,
		"stimulus": "../audio/42-7-masc.mp3",
		"response": " ",
		"word": "móveis",
		"trial_type": "audio-keyboard-response",
		"trial_index": 54,
		"time_elapsed": 152171,
		"internal_node_id": "0.0-3.0-1.30"
	},
	{
		"rt": 1232,
		"stimulus": "../audio/42-8-masc.mp3",
		"response": " ",
		"word": "no",
		"trial_type": "audio-keyboard-response",
		"trial_index": 55,
		"time_elapsed": 153733,
		"internal_node_id": "0.0-3.0-1.31"
	},
	{
		"rt": 1949,
		"stimulus": "../audio/42-9-masc.mp3",
		"response": " ",
		"word": "bairro.",
		"trial_type": "audio-keyboard-response",
		"trial_index": 56,
		"time_elapsed": 156022,
		"internal_node_id": "0.0-3.0-1.32"
	},
	{
		"rt": null,
		"stimulus": "<span style= \"font-size:30px; font-family: monospace\">+</span>",
		"response": null,
		"trial_part": "fixation",
		"trial_type": "html-keyboard-response",
		"trial_index": 57,
		"time_elapsed": 157283,
		"internal_node_id": "0.0-3.0-0.33-0.33"
	},
	{
		"rt": 1152,
		"stimulus": "../audio/45-1-fem.mp3",
		"response": " ",
		"word": "O",
		"trial_type": "audio-keyboard-response",
		"trial_index": 58,
		"time_elapsed": 158849,
		"internal_node_id": "0.0-3.0-1.33"
	},
	{
		"rt": 1640,
		"stimulus": "../audio/45-2-fem.mp3",
		"response": " ",
		"word": "homem",
		"trial_type": "audio-keyboard-response",
		"trial_index": 59,
		"time_elapsed": 160868,
		"internal_node_id": "0.0-3.0-1.34"
	},
	{
		"rt": 1760,
		"stimulus": "../audio/45-3-fem.mp3",
		"response": " ",
		"word": "pagou",
		"trial_type": "audio-keyboard-response",
		"trial_index": 60,
		"time_elapsed": 162990,
		"internal_node_id": "0.0-3.0-1.35"
	},
	{
		"rt": 1312,
		"stimulus": "../audio/45-4-fem.mp3",
		"response": " ",
		"word": "o",
		"trial_type": "audio-keyboard-response",
		"trial_index": 61,
		"time_elapsed": 164736,
		"internal_node_id": "0.0-3.0-1.36"
	},
	{
		"rt": 2040,
		"stimulus": "../audio/45-5-fem.mp3",
		"response": " ",
		"word": "aluguel",
		"trial_type": "audio-keyboard-response",
		"trial_index": 62,
		"time_elapsed": 167173,
		"internal_node_id": "0.0-3.0-1.37"
	},
	{
		"rt": 1560,
		"stimulus": "../audio/45-6-fem.mp3",
		"response": " ",
		"word": "com",
		"trial_type": "audio-keyboard-response",
		"trial_index": 63,
		"time_elapsed": 169210,
		"internal_node_id": "0.0-3.0-1.38"
	},
	{
		"rt": 1560,
		"stimulus": "../audio/45-7-fem.mp3",
		"response": " ",
		"word": "atraso.",
		"trial_type": "audio-keyboard-response",
		"trial_index": 64,
		"time_elapsed": 171129,
		"internal_node_id": "0.0-3.0-1.39"
	},
	{
		"rt": 9258,
		"stimulus": "<span style=\"font-size:25px; font-family: monospace\">O homem pagou o aluguel em dia?</span>",
		"response": "s",
		"question": "O homem pagou o aluguel em dia?",
		"answer": "null",
		"trial": "exp-sent",
		"trial_type": "html-keyboard-response",
		"trial_index": 65,
		"time_elapsed": 180645,
		"internal_node_id": "0.0-3.0-2.39-0.39",
		"accuracy": false
	},
	{
		"rt": null,
		"stimulus": "<span style= \"font-size:30px; font-family: monospace\">+</span>",
		"response": null,
		"trial_part": "fixation",
		"trial_type": "html-keyboard-response",
		"trial_index": 66,
		"time_elapsed": 182175,
		"internal_node_id": "0.0-3.0-0.40-0.40"
	},
	{
		"rt": 2781,
		"stimulus": "../audio/73-1-fem.mp3",
		"response": " ",
		"word": "O",
		"trial_type": "audio-keyboard-response",
		"trial_index": 67,
		"time_elapsed": 185410,
		"internal_node_id": "0.0-3.0-1.40"
	},
	{
		"rt": 1629,
		"stimulus": "../audio/73-2-fem.mp3",
		"response": " ",
		"word": "cliente",
		"trial_type": "audio-keyboard-response",
		"trial_index": 68,
		"time_elapsed": 187484,
		"internal_node_id": "0.0-3.0-1.41"
	},
	{
		"rt": 1389,
		"stimulus": "../audio/73-3-fem.mp3",
		"response": " ",
		"word": "era",
		"trial_type": "audio-keyboard-response",
		"trial_index": 69,
		"time_elapsed": 189594,
		"internal_node_id": "0.0-3.0-1.42"
	},
	{
		"rt": 1072,
		"stimulus": "../audio/73-4-fem.mp3",
		"response": " ",
		"word": "um",
		"trial_type": "audio-keyboard-response",
		"trial_index": 70,
		"time_elapsed": 191011,
		"internal_node_id": "0.0-3.0-1.43"
	},
	{
		"rt": 1069,
		"stimulus": "../audio/73-5-fem.mp3",
		"response": " ",
		"word": "homem",
		"trial_type": "audio-keyboard-response",
		"trial_index": 71,
		"time_elapsed": 192425,
		"internal_node_id": "0.0-3.0-1.44"
	},
	{
		"rt": 1200,
		"stimulus": "../audio/73-6-fem.mp3",
		"response": " ",
		"word": "muito",
		"trial_type": "audio-keyboard-response",
		"trial_index": 72,
		"time_elapsed": 193972,
		"internal_node_id": "0.0-3.0-1.45"
	},
	{
		"rt": 1611,
		"stimulus": "../audio/73-7-fem.mp3",
		"response": " ",
		"word": "educado.",
		"trial_type": "audio-keyboard-response",
		"trial_index": 73,
		"time_elapsed": 195953,
		"internal_node_id": "0.0-3.0-1.46"
	},
	{
		"rt": null,
		"stimulus": "<span style= \"font-size:30px; font-family: monospace\">+</span>",
		"response": null,
		"trial_part": "fixation",
		"trial_type": "html-keyboard-response",
		"trial_index": 74,
		"time_elapsed": 197226,
		"internal_node_id": "0.0-3.0-0.47-0.47"
	},
	{
		"rt": 1349,
		"stimulus": "../audio/74-1-fem.mp3",
		"response": " ",
		"word": "Este",
		"trial_type": "audio-keyboard-response",
		"trial_index": 75,
		"time_elapsed": 199000,
		"internal_node_id": "0.0-3.0-1.47"
	},
	{
		"rt": 2008,
		"stimulus": "../audio/74-2-fem.mp3",
		"response": " ",
		"word": "emprego",
		"trial_type": "audio-keyboard-response",
		"trial_index": 76,
		"time_elapsed": 201382,
		"internal_node_id": "0.0-3.0-1.48"
	},
	{
		"rt": 1160,
		"stimulus": "../audio/74-3-fem.mp3",
		"response": " ",
		"word": "é",
		"trial_type": "audio-keyboard-response",
		"trial_index": 77,
		"time_elapsed": 203009,
		"internal_node_id": "0.0-3.0-1.49"
	},
	{
		"rt": 1320,
		"stimulus": "../audio/74-4-fem.mp3",
		"response": " ",
		"word": "muito",
		"trial_type": "audio-keyboard-response",
		"trial_index": 78,
		"time_elapsed": 204681,
		"internal_node_id": "0.0-3.0-1.50"
	},
	{
		"rt": 2672,
		"stimulus": "../audio/74-5-fem.mp3",
		"response": " ",
		"word": "cansativo",
		"trial_type": "audio-keyboard-response",
		"trial_index": 79,
		"time_elapsed": 207736,
		"internal_node_id": "0.0-3.0-1.51"
	},
	{
		"rt": 1451,
		"stimulus": "../audio/74-6-fem.mp3",
		"response": " ",
		"word": "a",
		"trial_type": "audio-keyboard-response",
		"trial_index": 80,
		"time_elapsed": 209652,
		"internal_node_id": "0.0-3.0-1.52"
	},
	{
		"rt": 1829,
		"stimulus": "../audio/74-7-fem.mp3",
		"response": " ",
		"word": "longo",
		"trial_type": "audio-keyboard-response",
		"trial_index": 81,
		"time_elapsed": 211834,
		"internal_node_id": "0.0-3.0-1.53"
	},
	{
		"rt": 1312,
		"stimulus": "../audio/74-8-fem.mp3",
		"response": " ",
		"word": "prazo.",
		"trial_type": "audio-keyboard-response",
		"trial_index": 82,
		"time_elapsed": 213615,
		"internal_node_id": "0.0-3.0-1.54"
	},
	{
		"rt": null,
		"stimulus": "<span style= \"font-size:30px; font-family: monospace\">+</span>",
		"response": null,
		"trial_part": "fixation",
		"trial_type": "html-keyboard-response",
		"trial_index": 83,
		"time_elapsed": 214876,
		"internal_node_id": "0.0-3.0-0.55-0.55"
	},
	{
		"rt": 1632,
		"stimulus": "../audio/71-1-masc.mp3",
		"response": " ",
		"word": "Minhas",
		"trial_type": "audio-keyboard-response",
		"trial_index": 84,
		"time_elapsed": 216974,
		"internal_node_id": "0.0-3.0-1.55"
	},
	{
		"rt": 1440,
		"stimulus": "../audio/71-2-masc.mp3",
		"response": " ",
		"word": "comidas",
		"trial_type": "audio-keyboard-response",
		"trial_index": 85,
		"time_elapsed": 219015,
		"internal_node_id": "0.0-3.0-1.56"
	},
	{
		"rt": 1571,
		"stimulus": "../audio/71-3-masc.mp3",
		"response": " ",
		"word": "favoritas",
		"trial_type": "audio-keyboard-response",
		"trial_index": 86,
		"time_elapsed": 220952,
		"internal_node_id": "0.0-3.0-1.57"
	},
	{
		"rt": 1192,
		"stimulus": "../audio/71-4-masc.mp3",
		"response": " ",
		"word": "são",
		"trial_type": "audio-keyboard-response",
		"trial_index": 87,
		"time_elapsed": 222493,
		"internal_node_id": "0.0-3.0-1.58"
	},
	{
		"rt": 1451,
		"stimulus": "../audio/71-5-masc.mp3",
		"response": " ",
		"word": "morango",
		"trial_type": "audio-keyboard-response",
		"trial_index": 88,
		"time_elapsed": 224308,
		"internal_node_id": "0.0-3.0-1.59"
	},
	{
		"rt": 1149,
		"stimulus": "../audio/71-6-masc.mp3",
		"response": " ",
		"word": "e",
		"trial_type": "audio-keyboard-response",
		"trial_index": 89,
		"time_elapsed": 225828,
		"internal_node_id": "0.0-3.0-1.60"
	},
	{
		"rt": 1701,
		"stimulus": "../audio/71-7-masc.mp3",
		"response": " ",
		"word": "uva.",
		"trial_type": "audio-keyboard-response",
		"trial_index": 90,
		"time_elapsed": 227882,
		"internal_node_id": "0.0-3.0-1.61"
	},
	{
		"rt": null,
		"stimulus": "<span style= \"font-size:30px; font-family: monospace\">+</span>",
		"response": null,
		"trial_part": "fixation",
		"trial_type": "html-keyboard-response",
		"trial_index": 91,
		"time_elapsed": 229149,
		"internal_node_id": "0.0-3.0-0.62-0.62"
	},
	{
		"rt": 1029,
		"stimulus": "../audio/72-1-fem.mp3",
		"response": " ",
		"word": "A",
		"trial_type": "audio-keyboard-response",
		"trial_index": 92,
		"time_elapsed": 230713,
		"internal_node_id": "0.0-3.0-1.62"
	},
	{
		"rt": 1819,
		"stimulus": "../audio/72-2-fem.mp3",
		"response": " ",
		"word": "vencedora",
		"trial_type": "audio-keyboard-response",
		"trial_index": 93,
		"time_elapsed": 232901,
		"internal_node_id": "0.0-3.0-1.63"
	},
	{
		"rt": 1411,
		"stimulus": "../audio/72-3-fem.mp3",
		"response": " ",
		"word": "recebeu",
		"trial_type": "audio-keyboard-response",
		"trial_index": 94,
		"time_elapsed": 234737,
		"internal_node_id": "0.0-3.0-1.64"
	},
	{
		"rt": 1021,
		"stimulus": "../audio/72-4-fem.mp3",
		"response": " ",
		"word": "um",
		"trial_type": "audio-keyboard-response",
		"trial_index": 95,
		"time_elapsed": 236122,
		"internal_node_id": "0.0-3.0-1.65"
	},
	{
		"rt": 1200,
		"stimulus": "../audio/72-5-fem.mp3",
		"response": " ",
		"word": "prêmio",
		"trial_type": "audio-keyboard-response",
		"trial_index": 96,
		"time_elapsed": 237684,
		"internal_node_id": "0.0-3.0-1.66"
	},
	{
		"rt": 1088,
		"stimulus": "../audio/72-6-fem.mp3",
		"response": " ",
		"word": "em",
		"trial_type": "audio-keyboard-response",
		"trial_index": 97,
		"time_elapsed": 239220,
		"internal_node_id": "0.0-3.0-1.67"
	},
	{
		"rt": 1880,
		"stimulus": "../audio/72-7-fem.mp3",
		"response": " ",
		"word": "dinheiro.",
		"trial_type": "audio-keyboard-response",
		"trial_index": 98,
		"time_elapsed": 241479,
		"internal_node_id": "0.0-3.0-1.68"
	},
	{
		"rt": null,
		"stimulus": "<span style= \"font-size:30px; font-family: monospace\">+</span>",
		"response": null,
		"trial_part": "fixation",
		"trial_type": "html-keyboard-response",
		"trial_index": 99,
		"time_elapsed": 242760,
		"internal_node_id": "0.0-3.0-0.69-0.69"
	},
	{
		"rt": 2219,
		"stimulus": "../audio/75-1-fem.mp3",
		"response": " ",
		"word": "Só",
		"trial_type": "audio-keyboard-response",
		"trial_index": 100,
		"time_elapsed": 245516,
		"internal_node_id": "0.0-3.0-1.69"
	},
	{
		"rt": 2331,
		"stimulus": "../audio/75-2-fem.mp3",
		"response": " ",
		"word": "existe",
		"trial_type": "audio-keyboard-response",
		"trial_index": 101,
		"time_elapsed": 248372,
		"internal_node_id": "0.0-3.0-1.70"
	},
	{
		"rt": 1152,
		"stimulus": "../audio/75-3-fem.mp3",
		"response": " ",
		"word": "uma",
		"trial_type": "audio-keyboard-response",
		"trial_index": 102,
		"time_elapsed": 250210,
		"internal_node_id": "0.0-3.0-1.71"
	},
	{
		"rt": 1488,
		"stimulus": "../audio/75-4-fem.mp3",
		"response": " ",
		"word": "pessoa",
		"trial_type": "audio-keyboard-response",
		"trial_index": 103,
		"time_elapsed": 252061,
		"internal_node_id": "0.0-3.0-1.72"
	},
	{
		"rt": 1451,
		"stimulus": "../audio/75-5-fem.mp3",
		"response": " ",
		"word": "canhota",
		"trial_type": "audio-keyboard-response",
		"trial_index": 104,
		"time_elapsed": 253915,
		"internal_node_id": "0.0-3.0-1.73"
	},
	{
		"rt": 1749,
		"stimulus": "../audio/75-6-fem.mp3",
		"response": " ",
		"word": "nesta",
		"trial_type": "audio-keyboard-response",
		"trial_index": 105,
		"time_elapsed": 256027,
		"internal_node_id": "0.0-3.0-1.74"
	},
	{
		"rt": 2541,
		"stimulus": "../audio/75-7-fem.mp3",
		"response": " ",
		"word": "cidade.",
		"trial_type": "audio-keyboard-response",
		"trial_index": 106,
		"time_elapsed": 259123,
		"internal_node_id": "0.0-3.0-1.75"
	},
	{
		"rt": 37183,
		"stimulus": "<span style=\"font-size:25px; font-family: monospace\">Só existe uma pessoa canhota na cidade?</span>",
		"response": "s",
		"question": "Só existe uma pessoa canhota na cidade?",
		"answer": "null",
		"trial": "exp-sent",
		"trial_type": "html-keyboard-response",
		"trial_index": 107,
		"time_elapsed": 296567,
		"internal_node_id": "0.0-3.0-2.75-0.75",
		"accuracy": false
	},
	{
		"rt": null,
		"stimulus": "<span style= \"font-size:30px; font-family: monospace\">+</span>",
		"response": null,
		"trial_part": "fixation",
		"trial_type": "html-keyboard-response",
		"trial_index": 108,
		"time_elapsed": 298086,
		"internal_node_id": "0.0-3.0-0.76-0.76"
	},
	{
		"rt": 4272,
		"stimulus": "../audio/06-1-masc.mp3",
		"response": " ",
		"word": "Ouvimos",
		"trial_type": "audio-keyboard-response",
		"trial_index": 109,
		"time_elapsed": 302848,
		"internal_node_id": "0.0-3.0-1.76"
	},
	{
		"rt": 2051,
		"stimulus": "../audio/06-2-masc.mp3",
		"response": " ",
		"word": "a",
		"trial_type": "audio-keyboard-response",
		"trial_index": 110,
		"time_elapsed": 305375,
		"internal_node_id": "0.0-3.0-1.77"
	},
	{
		"rt": 1541,
		"stimulus": "../audio/06-3-masc.mp3",
		"response": " ",
		"word": "fala",
		"trial_type": "audio-keyboard-response",
		"trial_index": 111,
		"time_elapsed": 307737,
		"internal_node_id": "0.0-3.0-1.78"
	},
	{
		"rt": 1219,
		"stimulus": "../audio/06-4-masc.mp3",
		"response": " ",
		"word": "do",
		"trial_type": "audio-keyboard-response",
		"trial_index": 112,
		"time_elapsed": 309348,
		"internal_node_id": "0.0-3.0-1.79"
	},
	{
		"rt": 1520,
		"stimulus": "../audio/06-5-masc.mp3",
		"response": " ",
		"word": "profeta",
		"trial_type": "audio-keyboard-response",
		"trial_index": 113,
		"time_elapsed": 311247,
		"internal_node_id": "0.0-3.0-1.80"
	},
	{
		"rt": 1261,
		"stimulus": "../audio/06-6-masc.mp3",
		"response": " ",
		"word": "no",
		"trial_type": "audio-keyboard-response",
		"trial_index": 114,
		"time_elapsed": 312895,
		"internal_node_id": "0.0-3.0-1.81"
	},
	{
		"rt": 1771,
		"stimulus": "../audio/06-7-masc.mp3",
		"response": " ",
		"word": "púlpito",
		"trial_type": "audio-keyboard-response",
		"trial_index": 115,
		"time_elapsed": 315030,
		"internal_node_id": "0.0-3.0-1.82"
	},
	{
		"rt": 1232,
		"stimulus": "../audio/06-8-masc.mp3",
		"response": " ",
		"word": "da",
		"trial_type": "audio-keyboard-response",
		"trial_index": 116,
		"time_elapsed": 316729,
		"internal_node_id": "0.0-3.0-1.83"
	},
	{
		"rt": 1581,
		"stimulus": "../audio/06-9-masc.mp3",
		"response": " ",
		"word": "igreja.",
		"trial_type": "audio-keyboard-response",
		"trial_index": 117,
		"time_elapsed": 318679,
		"internal_node_id": "0.0-3.0-1.84"
	},
	{
		"rt": null,
		"stimulus": "<span style= \"font-size:30px; font-family: monospace\">+</span>",
		"response": null,
		"trial_part": "fixation",
		"trial_type": "html-keyboard-response",
		"trial_index": 118,
		"time_elapsed": 319955,
		"internal_node_id": "0.0-3.0-0.85-0.85"
	},
	{
		"rt": 1091,
		"stimulus": "../audio/07-1-fem.mp3",
		"response": " ",
		"word": "Meu",
		"trial_type": "audio-keyboard-response",
		"trial_index": 119,
		"time_elapsed": 321488,
		"internal_node_id": "0.0-3.0-1.85"
	},
	{
		"rt": 1088,
		"stimulus": "../audio/07-2-fem.mp3",
		"response": " ",
		"word": "filho",
		"trial_type": "audio-keyboard-response",
		"trial_index": 120,
		"time_elapsed": 322940,
		"internal_node_id": "0.0-3.0-1.86"
	},
	{
		"rt": 891,
		"stimulus": "../audio/07-3-fem.mp3",
		"response": " ",
		"word": "é",
		"trial_type": "audio-keyboard-response",
		"trial_index": 121,
		"time_elapsed": 324175,
		"internal_node_id": "0.0-3.0-1.87"
	},
	{
		"rt": 1240,
		"stimulus": "../audio/07-4-fem.mp3",
		"response": " ",
		"word": "muito",
		"trial_type": "audio-keyboard-response",
		"trial_index": 122,
		"time_elapsed": 325805,
		"internal_node_id": "0.0-3.0-1.88"
	},
	{
		"rt": 1851,
		"stimulus": "../audio/07-5-fem.mp3",
		"response": " ",
		"word": "responsável",
		"trial_type": "audio-keyboard-response",
		"trial_index": 123,
		"time_elapsed": 328039,
		"internal_node_id": "0.0-3.0-1.89"
	},
	{
		"rt": 1219,
		"stimulus": "../audio/07-6-fem.mp3",
		"response": " ",
		"word": "nos",
		"trial_type": "audio-keyboard-response",
		"trial_index": 124,
		"time_elapsed": 329739,
		"internal_node_id": "0.0-3.0-1.90"
	},
	{
		"rt": 1309,
		"stimulus": "../audio/07-7-fem.mp3",
		"response": " ",
		"word": "estudos.",
		"trial_type": "audio-keyboard-response",
		"trial_index": 125,
		"time_elapsed": 331427,
		"internal_node_id": "0.0-3.0-1.91"
	},
	{
		"rt": null,
		"stimulus": "<span style= \"font-size:30px; font-family: monospace\">+</span>",
		"response": null,
		"trial_part": "fixation",
		"trial_type": "html-keyboard-response",
		"trial_index": 126,
		"time_elapsed": 332696,
		"internal_node_id": "0.0-3.0-0.92-0.92"
	},
	{
		"rt": 1139,
		"stimulus": "../audio/08-1-fem.mp3",
		"response": " ",
		"word": "A",
		"trial_type": "audio-keyboard-response",
		"trial_index": 127,
		"time_elapsed": 334260,
		"internal_node_id": "0.0-3.0-1.92"
	},
	{
		"rt": 1739,
		"stimulus": "../audio/08-2-fem.mp3",
		"response": " ",
		"word": "receita",
		"trial_type": "audio-keyboard-response",
		"trial_index": 128,
		"time_elapsed": 337263,
		"internal_node_id": "0.0-3.0-1.93"
	},
	{
		"rt": 2379,
		"stimulus": "../audio/08-3-fem.mp3",
		"response": " ",
		"word": "pede",
		"trial_type": "audio-keyboard-response",
		"trial_index": 129,
		"time_elapsed": 340060,
		"internal_node_id": "0.0-3.0-1.94"
	},
	{
		"rt": 1160,
		"stimulus": "../audio/08-4-fem.mp3",
		"response": " ",
		"word": "um",
		"trial_type": "audio-keyboard-response",
		"trial_index": 130,
		"time_elapsed": 341767,
		"internal_node_id": "0.0-3.0-1.95"
	},
	{
		"rt": 1509,
		"stimulus": "../audio/08-5-fem.mp3",
		"response": " ",
		"word": "litro",
		"trial_type": "audio-keyboard-response",
		"trial_index": 131,
		"time_elapsed": 343645,
		"internal_node_id": "0.0-3.0-1.96"
	},
	{
		"rt": 1349,
		"stimulus": "../audio/08-6-fem.mp3",
		"response": " ",
		"word": "de",
		"trial_type": "audio-keyboard-response",
		"trial_index": 132,
		"time_elapsed": 345361,
		"internal_node_id": "0.0-3.0-1.97"
	},
	{
		"rt": 1400,
		"stimulus": "../audio/08-7-fem.mp3",
		"response": " ",
		"word": "leite",
		"trial_type": "audio-keyboard-response",
		"trial_index": 133,
		"time_elapsed": 347119,
		"internal_node_id": "0.0-3.0-1.98"
	},
	{
		"rt": 1629,
		"stimulus": "../audio/08-8-fem.mp3",
		"response": " ",
		"word": "integral.",
		"trial_type": "audio-keyboard-response",
		"trial_index": 134,
		"time_elapsed": 349115,
		"internal_node_id": "0.0-3.0-1.99"
	},
	{
		"rt": null,
		"stimulus": "<span style= \"font-size:30px; font-family: monospace\">+</span>",
		"response": null,
		"trial_part": "fixation",
		"trial_type": "html-keyboard-response",
		"trial_index": 135,
		"time_elapsed": 350396,
		"internal_node_id": "0.0-3.0-0.100-0.100"
	},
	{
		"rt": 1291,
		"stimulus": "../audio/09-1-fem.mp3",
		"response": " ",
		"word": "O",
		"trial_type": "audio-keyboard-response",
		"trial_index": 136,
		"time_elapsed": 352109,
		"internal_node_id": "0.0-3.0-1.100"
	},
	{
		"rt": 1600,
		"stimulus": "../audio/09-2-fem.mp3",
		"response": " ",
		"word": "rapaz",
		"trial_type": "audio-keyboard-response",
		"trial_index": 137,
		"time_elapsed": 354083,
		"internal_node_id": "0.0-3.0-1.101"
	},
	{
		"rt": 1488,
		"stimulus": "../audio/09-3-fem.mp3",
		"response": " ",
		"word": "limpou",
		"trial_type": "audio-keyboard-response",
		"trial_index": 138,
		"time_elapsed": 355982,
		"internal_node_id": "0.0-3.0-1.102"
	},
	{
		"rt": 1181,
		"stimulus": "../audio/09-4-fem.mp3",
		"response": " ",
		"word": "o",
		"trial_type": "audio-keyboard-response",
		"trial_index": 139,
		"time_elapsed": 357522,
		"internal_node_id": "0.0-3.0-1.103"
	},
	{
		"rt": 1429,
		"stimulus": "../audio/09-5-fem.mp3",
		"response": " ",
		"word": "terreno",
		"trial_type": "audio-keyboard-response",
		"trial_index": 140,
		"time_elapsed": 359309,
		"internal_node_id": "0.0-3.0-1.104"
	},
	{
		"rt": 1099,
		"stimulus": "../audio/09-6-fem.mp3",
		"response": " ",
		"word": "com",
		"trial_type": "audio-keyboard-response",
		"trial_index": 141,
		"time_elapsed": 360756,
		"internal_node_id": "0.0-3.0-1.105"
	},
	{
		"rt": 1091,
		"stimulus": "../audio/09-7-fem.mp3",
		"response": " ",
		"word": "uma",
		"trial_type": "audio-keyboard-response",
		"trial_index": 142,
		"time_elapsed": 362232,
		"internal_node_id": "0.0-3.0-1.106"
	},
	{
		"rt": 1229,
		"stimulus": "../audio/09-8-fem.mp3",
		"response": " ",
		"word": "pá.",
		"trial_type": "audio-keyboard-response",
		"trial_index": 143,
		"time_elapsed": 363830,
		"internal_node_id": "0.0-3.0-1.107"
	},
	{
		"rt": null,
		"stimulus": "<span style= \"font-size:30px; font-family: monospace\">+</span>",
		"response": null,
		"trial_part": "fixation",
		"trial_type": "html-keyboard-response",
		"trial_index": 144,
		"time_elapsed": 365105,
		"internal_node_id": "0.0-3.0-0.108-0.108"
	},
	{
		"rt": 1280,
		"stimulus": "../audio/10-1-masc.mp3",
		"response": " ",
		"word": "O",
		"trial_type": "audio-keyboard-response",
		"trial_index": 145,
		"time_elapsed": 366830,
		"internal_node_id": "0.0-3.0-1.108"
	},
	{
		"rt": 741,
		"stimulus": "../audio/10-2-masc.mp3",
		"response": " ",
		"word": "pássaro",
		"trial_type": "audio-keyboard-response",
		"trial_index": 146,
		"time_elapsed": 367924,
		"internal_node_id": "0.0-3.0-1.109"
	},
	{
		"rt": 1080,
		"stimulus": "../audio/10-3-masc.mp3",
		"response": " ",
		"word": "azul",
		"trial_type": "audio-keyboard-response",
		"trial_index": 147,
		"time_elapsed": 369359,
		"internal_node_id": "0.0-3.0-1.110"
	},
	{
		"rt": 1488,
		"stimulus": "../audio/10-4-masc.mp3",
		"response": " ",
		"word": "estava",
		"trial_type": "audio-keyboard-response",
		"trial_index": 148,
		"time_elapsed": 371224,
		"internal_node_id": "0.0-3.0-1.111"
	},
	{
		"rt": 1200,
		"stimulus": "../audio/10-5-masc.mp3",
		"response": " ",
		"word": "vivo",
		"trial_type": "audio-keyboard-response",
		"trial_index": 149,
		"time_elapsed": 372811,
		"internal_node_id": "0.0-3.0-1.112"
	},
	{
		"rt": 1080,
		"stimulus": "../audio/10-6-masc.mp3",
		"response": " ",
		"word": "e",
		"trial_type": "audio-keyboard-response",
		"trial_index": 150,
		"time_elapsed": 374250,
		"internal_node_id": "0.0-3.0-1.113"
	},
	{
		"rt": 1360,
		"stimulus": "../audio/10-7-masc.mp3",
		"response": " ",
		"word": "em",
		"trial_type": "audio-keyboard-response",
		"trial_index": 151,
		"time_elapsed": 376118,
		"internal_node_id": "0.0-3.0-1.114"
	},
	{
		"rt": 1469,
		"stimulus": "../audio/10-8-masc.mp3",
		"response": " ",
		"word": "segurança.",
		"trial_type": "audio-keyboard-response",
		"trial_index": 152,
		"time_elapsed": 377989,
		"internal_node_id": "0.0-3.0-1.115"
	},
	{
		"rt": 42698,
		"stimulus": "<span style=\"font-size:25px; font-family: monospace\">O pássaro vermelho estava em segurança?</span>",
		"response": "s",
		"question": "O pássaro vermelho estava em segurança?",
		"answer": "null",
		"trial": "exp-sent",
		"trial_type": "html-keyboard-response",
		"trial_index": 153,
		"time_elapsed": 420956,
		"internal_node_id": "0.0-3.0-2.115-0.115",
		"accuracy": false
	},
	{
		"rt": null,
		"stimulus": "<span style= \"font-size:30px; font-family: monospace\">+</span>",
		"response": null,
		"trial_part": "fixation",
		"trial_type": "html-keyboard-response",
		"trial_index": 154,
		"time_elapsed": 422466,
		"internal_node_id": "0.0-3.0-0.116-0.116"
	},
	{
		"rt": 339,
		"stimulus": "../audio/31-1-fem.mp3",
		"response": " ",
		"word": "O",
		"trial_type": "audio-keyboard-response",
		"trial_index": 155,
		"time_elapsed": 423477,
		"internal_node_id": "0.0-3.0-1.116"
	},
	{
		"rt": 1709,
		"stimulus": "../audio/31-2-fem.mp3",
		"response": " ",
		"word": "padeiro",
		"trial_type": "audio-keyboard-response",
		"trial_index": 156,
		"time_elapsed": 425605,
		"internal_node_id": "0.0-3.0-1.117"
	},
	{
		"rt": 1571,
		"stimulus": "../audio/31-3-fem.mp3",
		"response": " ",
		"word": "usou",
		"trial_type": "audio-keyboard-response",
		"trial_index": 157,
		"time_elapsed": 427751,
		"internal_node_id": "0.0-3.0-1.118"
	},
	{
		"rt": 1040,
		"stimulus": "../audio/31-4-fem.mp3",
		"response": " ",
		"word": "a",
		"trial_type": "audio-keyboard-response",
		"trial_index": 158,
		"time_elapsed": 429151,
		"internal_node_id": "0.0-3.0-1.119"
	},
	{
		"rt": 1528,
		"stimulus": "../audio/31-5-fem.mp3",
		"response": " ",
		"word": "balança",
		"trial_type": "audio-keyboard-response",
		"trial_index": 159,
		"time_elapsed": 431065,
		"internal_node_id": "0.0-3.0-1.120"
	},
	{
		"rt": 1168,
		"stimulus": "../audio/31-6-fem.mp3",
		"response": " ",
		"word": "o",
		"trial_type": "audio-keyboard-response",
		"trial_index": 160,
		"time_elapsed": 432625,
		"internal_node_id": "0.0-3.0-1.121"
	},
	{
		"rt": 1389,
		"stimulus": "../audio/31-7-fem.mp3",
		"response": " ",
		"word": "dia",
		"trial_type": "audio-keyboard-response",
		"trial_index": 161,
		"time_elapsed": 434396,
		"internal_node_id": "0.0-3.0-1.122"
	},
	{
		"rt": 1859,
		"stimulus": "../audio/31-8-fem.mp3",
		"response": " ",
		"word": "inteiro.",
		"trial_type": "audio-keyboard-response",
		"trial_index": 162,
		"time_elapsed": 436668,
		"internal_node_id": "0.0-3.0-1.123"
	},
	{
		"rt": null,
		"stimulus": "<span style= \"font-size:30px; font-family: monospace\">+</span>",
		"response": null,
		"trial_part": "fixation",
		"trial_type": "html-keyboard-response",
		"trial_index": 163,
		"time_elapsed": 437946,
		"internal_node_id": "0.0-3.0-0.124-0.124"
	},
	{
		"rt": 2600,
		"stimulus": "../audio/33-1-fem.mp3",
		"response": " ",
		"word": "Eles",
		"trial_type": "audio-keyboard-response",
		"trial_index": 164,
		"time_elapsed": 441000,
		"internal_node_id": "0.0-3.0-1.124"
	},
	{
		"rt": 3451,
		"stimulus": "../audio/33-2-fem.mp3",
		"response": " ",
		"word": "sabem",
		"trial_type": "audio-keyboard-response",
		"trial_index": 165,
		"time_elapsed": 444965,
		"internal_node_id": "0.0-3.0-1.125"
	},
	{
		"rt": 1120,
		"stimulus": "../audio/33-3-fem.mp3",
		"response": " ",
		"word": "do",
		"trial_type": "audio-keyboard-response",
		"trial_index": 166,
		"time_elapsed": 446515,
		"internal_node_id": "0.0-3.0-1.126"
	},
	{
		"rt": 1248,
		"stimulus": "../audio/33-4-fem.mp3",
		"response": " ",
		"word": "seu",
		"trial_type": "audio-keyboard-response",
		"trial_index": 167,
		"time_elapsed": 448144,
		"internal_node_id": "0.0-3.0-1.127"
	},
	{
		"rt": 1480,
		"stimulus": "../audio/33-5-fem.mp3",
		"response": " ",
		"word": "privilégio",
		"trial_type": "audio-keyboard-response",
		"trial_index": 168,
		"time_elapsed": 450040,
		"internal_node_id": "0.0-3.0-1.128"
	},
	{
		"rt": 1211,
		"stimulus": "../audio/33-6-fem.mp3",
		"response": " ",
		"word": "nessa",
		"trial_type": "audio-keyboard-response",
		"trial_index": 169,
		"time_elapsed": 451606,
		"internal_node_id": "0.0-3.0-1.129"
	},
	{
		"rt": 1541,
		"stimulus": "../audio/33-7-fem.mp3",
		"response": " ",
		"word": "confusão.",
		"trial_type": "audio-keyboard-response",
		"trial_index": 170,
		"time_elapsed": 453534,
		"internal_node_id": "0.0-3.0-1.130"
	},
	{
		"rt": null,
		"stimulus": "<span style= \"font-size:30px; font-family: monospace\">+</span>",
		"response": null,
		"trial_part": "fixation",
		"trial_type": "html-keyboard-response",
		"trial_index": 171,
		"time_elapsed": 454816,
		"internal_node_id": "0.0-3.0-0.131-0.131"
	},
	{
		"rt": 1000,
		"stimulus": "../audio/32-1-fem.mp3",
		"response": " ",
		"word": "A",
		"trial_type": "audio-keyboard-response",
		"trial_index": 172,
		"time_elapsed": 456311,
		"internal_node_id": "0.0-3.0-1.131"
	},
	{
		"rt": 1371,
		"stimulus": "../audio/32-2-fem.mp3",
		"response": " ",
		"word": "tia",
		"trial_type": "audio-keyboard-response",
		"trial_index": 173,
		"time_elapsed": 458038,
		"internal_node_id": "0.0-3.0-1.132"
	},
	{
		"rt": 1400,
		"stimulus": "../audio/32-3-fem.mp3",
		"response": " ",
		"word": "comprou",
		"trial_type": "audio-keyboard-response",
		"trial_index": 174,
		"time_elapsed": 459802,
		"internal_node_id": "0.0-3.0-1.133"
	},
	{
		"rt": 1109,
		"stimulus": "../audio/32-4-fem.mp3",
		"response": " ",
		"word": "um",
		"trial_type": "audio-keyboard-response",
		"trial_index": 175,
		"time_elapsed": 461269,
		"internal_node_id": "0.0-3.0-1.134"
	},
	{
		"rt": 1419,
		"stimulus": "../audio/32-5-fem.mp3",
		"response": " ",
		"word": "pilão",
		"trial_type": "audio-keyboard-response",
		"trial_index": 176,
		"time_elapsed": 463064,
		"internal_node_id": "0.0-3.0-1.135"
	},
	{
		"rt": 1160,
		"stimulus": "../audio/32-6-fem.mp3",
		"response": " ",
		"word": "para",
		"trial_type": "audio-keyboard-response",
		"trial_index": 177,
		"time_elapsed": 464587,
		"internal_node_id": "0.0-3.0-1.136"
	},
	{
		"rt": 1000,
		"stimulus": "../audio/32-7-fem.mp3",
		"response": " ",
		"word": "a",
		"trial_type": "audio-keyboard-response",
		"trial_index": 178,
		"time_elapsed": 465969,
		"internal_node_id": "0.0-3.0-1.137"
	},
	{
		"rt": 1461,
		"stimulus": "../audio/32-8-fem.mp3",
		"response": " ",
		"word": "cozinha.",
		"trial_type": "audio-keyboard-response",
		"trial_index": 179,
		"time_elapsed": 467806,
		"internal_node_id": "0.0-3.0-1.138"
	},
	{
		"rt": null,
		"stimulus": "<span style= \"font-size:30px; font-family: monospace\">+</span>",
		"response": null,
		"trial_part": "fixation",
		"trial_type": "html-keyboard-response",
		"trial_index": 180,
		"time_elapsed": 469096,
		"internal_node_id": "0.0-3.0-0.139-0.139"
	},
	{
		"rt": 1920,
		"stimulus": "../audio/34-1-fem.mp3",
		"response": " ",
		"word": "Cobrança",
		"trial_type": "audio-keyboard-response",
		"trial_index": 181,
		"time_elapsed": 471529,
		"internal_node_id": "0.0-3.0-1.139"
	},
	{
		"rt": 1840,
		"stimulus": "../audio/34-2-fem.mp3",
		"response": " ",
		"word": "excessiva",
		"trial_type": "audio-keyboard-response",
		"trial_index": 182,
		"time_elapsed": 473910,
		"internal_node_id": "0.0-3.0-1.140"
	},
	{
		"rt": 851,
		"stimulus": "../audio/34-3-fem.mp3",
		"response": " ",
		"word": "é",
		"trial_type": "audio-keyboard-response",
		"trial_index": 183,
		"time_elapsed": 475591,
		"internal_node_id": "0.0-3.0-1.141"
	},
	{
		"rt": 928,
		"stimulus": "../audio/34-4-fem.mp3",
		"response": " ",
		"word": "um",
		"trial_type": "audio-keyboard-response",
		"trial_index": 184,
		"time_elapsed": 477023,
		"internal_node_id": "0.0-3.0-1.142"
	},
	{
		"rt": 1440,
		"stimulus": "../audio/34-5-fem.mp3",
		"response": " ",
		"word": "fardo",
		"trial_type": "audio-keyboard-response",
		"trial_index": 185,
		"time_elapsed": 478882,
		"internal_node_id": "0.0-3.0-1.143"
	},
	{
		"rt": 1328,
		"stimulus": "../audio/34-6-fem.mp3",
		"response": " ",
		"word": "para",
		"trial_type": "audio-keyboard-response",
		"trial_index": 186,
		"time_elapsed": 480708,
		"internal_node_id": "0.0-3.0-1.144"
	},
	{
		"rt": 1072,
		"stimulus": "../audio/34-7-fem.mp3",
		"response": " ",
		"word": "a",
		"trial_type": "audio-keyboard-response",
		"trial_index": 187,
		"time_elapsed": 482177,
		"internal_node_id": "0.0-3.0-1.145"
	},
	{
		"rt": 1328,
		"stimulus": "../audio/34-8-fem.mp3",
		"response": " ",
		"word": "cabeça.",
		"trial_type": "audio-keyboard-response",
		"trial_index": 188,
		"time_elapsed": 484302,
		"internal_node_id": "0.0-3.0-1.146"
	},
	{
		"rt": null,
		"stimulus": "<span style= \"font-size:30px; font-family: monospace\">+</span>",
		"response": null,
		"trial_part": "fixation",
		"trial_type": "html-keyboard-response",
		"trial_index": 189,
		"time_elapsed": 485576,
		"internal_node_id": "0.0-3.0-0.147-0.147"
	},
	{
		"rt": 1699,
		"stimulus": "../audio/35-1-fem.mp3",
		"response": " ",
		"word": "A",
		"trial_type": "audio-keyboard-response",
		"trial_index": 190,
		"time_elapsed": 487875,
		"internal_node_id": "0.0-3.0-1.147"
	},
	{
		"rt": 2299,
		"stimulus": "../audio/35-2-fem.mp3",
		"response": " ",
		"word": "receita",
		"trial_type": "audio-keyboard-response",
		"trial_index": 191,
		"time_elapsed": 491144,
		"internal_node_id": "0.0-3.0-1.148"
	},
	{
		"rt": 1189,
		"stimulus": "../audio/35-3-fem.mp3",
		"response": " ",
		"word": "para",
		"trial_type": "audio-keyboard-response",
		"trial_index": 192,
		"time_elapsed": 494232,
		"internal_node_id": "0.0-3.0-1.149"
	},
	{
		"rt": 891,
		"stimulus": "../audio/35-4-fem.mp3",
		"response": " ",
		"word": "a",
		"trial_type": "audio-keyboard-response",
		"trial_index": 193,
		"time_elapsed": 496394,
		"internal_node_id": "0.0-3.0-1.150"
	},
	{
		"rt": 1720,
		"stimulus": "../audio/35-5-fem.mp3",
		"response": " ",
		"word": "preparação",
		"trial_type": "audio-keyboard-response",
		"trial_index": 194,
		"time_elapsed": 498619,
		"internal_node_id": "0.0-3.0-1.151"
	},
	{
		"rt": 1011,
		"stimulus": "../audio/35-6-fem.mp3",
		"response": " ",
		"word": "do",
		"trial_type": "audio-keyboard-response",
		"trial_index": 195,
		"time_elapsed": 500399,
		"internal_node_id": "0.0-3.0-1.152"
	},
	{
		"rt": 1200,
		"stimulus": "../audio/35-7-fem.mp3",
		"response": " ",
		"word": "bolo",
		"trial_type": "audio-keyboard-response",
		"trial_index": 196,
		"time_elapsed": 502098,
		"internal_node_id": "0.0-3.0-1.153"
	},
	{
		"rt": 1021,
		"stimulus": "../audio/35-8-fem.mp3",
		"response": " ",
		"word": "é",
		"trial_type": "audio-keyboard-response",
		"trial_index": 197,
		"time_elapsed": 503680,
		"internal_node_id": "0.0-3.0-1.154"
	},
	{
		"rt": 1360,
		"stimulus": "../audio/35-9-fem.mp3",
		"response": " ",
		"word": "leve.",
		"trial_type": "audio-keyboard-response",
		"trial_index": 198,
		"time_elapsed": 505812,
		"internal_node_id": "0.0-3.0-1.155"
	},
	{
		"rt": 11150,
		"stimulus": "<span style=\"font-size:25px; font-family: monospace\">A receita do bolo é pesada?</span>",
		"response": "s",
		"question": "A receita do bolo é pesada?",
		"answer": "null",
		"trial": "exp-sent",
		"trial_type": "html-keyboard-response",
		"trial_index": 199,
		"time_elapsed": 517226,
		"internal_node_id": "0.0-3.0-2.155-0.155",
		"accuracy": false
	},
	{
		"rt": null,
		"stimulus": "<span style= \"font-size:30px; font-family: monospace\">+</span>",
		"response": null,
		"trial_part": "fixation",
		"trial_type": "html-keyboard-response",
		"trial_index": 200,
		"time_elapsed": 518734,
		"internal_node_id": "0.0-3.0-0.156-0.156"
	},
	{
		"rt": 329341,
		"stimulus": "../audio/66-1-masc.mp3",
		"response": " ",
		"word": "Não",
		"trial_type": "audio-keyboard-response",
		"trial_index": 201,
		"time_elapsed": 849635,
		"internal_node_id": "0.0-3.0-1.156"
	},
	{
		"rt": 39405,
		"stimulus": "../audio/66-2-masc.mp3",
		"response": " ",
		"word": "gosto",
		"trial_type": "audio-keyboard-response",
		"trial_index": 202,
		"time_elapsed": 891396,
		"internal_node_id": "0.0-3.0-1.157"
	},
	{
		"rt": 3211,
		"stimulus": "../audio/66-3-masc.mp3",
		"response": " ",
		"word": "de",
		"trial_type": "audio-keyboard-response",
		"trial_index": 203,
		"time_elapsed": 895022,
		"internal_node_id": "0.0-3.0-1.158"
	},
	{
		"rt": 2011,
		"stimulus": "../audio/66-4-masc.mp3",
		"response": " ",
		"word": "gente",
		"trial_type": "audio-keyboard-response",
		"trial_index": 204,
		"time_elapsed": 897460,
		"internal_node_id": "0.0-3.0-1.159"
	},
	{
		"rt": 2661,
		"stimulus": "../audio/66-5-masc.mp3",
		"response": " ",
		"word": "egoísta",
		"trial_type": "audio-keyboard-response",
		"trial_index": 205,
		"time_elapsed": 900584,
		"internal_node_id": "0.0-3.0-1.160"
	},
	{
		"rt": 1709,
		"stimulus": "../audio/66-6-masc.mp3",
		"response": " ",
		"word": "nem",
		"trial_type": "audio-keyboard-response",
		"trial_index": 206,
		"time_elapsed": 902809,
		"internal_node_id": "0.0-3.0-1.161"
	},
	{
		"rt": 1680,
		"stimulus": "../audio/66-7-masc.mp3",
		"response": " ",
		"word": "chata.",
		"trial_type": "audio-keyboard-response",
		"trial_index": 207,
		"time_elapsed": 904966,
		"internal_node_id": "0.0-3.0-1.162"
	},
	{
		"rt": null,
		"stimulus": "<span style= \"font-size:30px; font-family: monospace\">+</span>",
		"response": null,
		"trial_part": "fixation",
		"trial_type": "html-keyboard-response",
		"trial_index": 208,
		"time_elapsed": 906227,
		"internal_node_id": "0.0-3.0-0.163-0.163"
	},
	{
		"rt": 1632,
		"stimulus": "../audio/69-1-masc.mp3",
		"response": " ",
		"word": "A",
		"trial_type": "audio-keyboard-response",
		"trial_index": 209,
		"time_elapsed": 908426,
		"internal_node_id": "0.0-3.0-1.163"
	},
	{
		"rt": 2088,
		"stimulus": "../audio/69-2-masc.mp3",
		"response": " ",
		"word": "loja",
		"trial_type": "audio-keyboard-response",
		"trial_index": 210,
		"time_elapsed": 910885,
		"internal_node_id": "0.0-3.0-1.164"
	},
	{
		"rt": 1949,
		"stimulus": "../audio/69-3-masc.mp3",
		"response": " ",
		"word": "recebeu",
		"trial_type": "audio-keyboard-response",
		"trial_index": 211,
		"time_elapsed": 913295,
		"internal_node_id": "0.0-3.0-1.165"
	},
	{
		"rt": 1651,
		"stimulus": "../audio/69-4-masc.mp3",
		"response": " ",
		"word": "uma",
		"trial_type": "audio-keyboard-response",
		"trial_index": 212,
		"time_elapsed": 915461,
		"internal_node_id": "0.0-3.0-1.166"
	},
	{
		"rt": 1651,
		"stimulus": "../audio/69-5-masc.mp3",
		"response": " ",
		"word": "poltrona",
		"trial_type": "audio-keyboard-response",
		"trial_index": 213,
		"time_elapsed": 917456,
		"internal_node_id": "0.0-3.0-1.167"
	},
	{
		"rt": 1712,
		"stimulus": "../audio/69-6-masc.mp3",
		"response": " ",
		"word": "de",
		"trial_type": "audio-keyboard-response",
		"trial_index": 214,
		"time_elapsed": 919554,
		"internal_node_id": "0.0-3.0-1.168"
	},
	{
		"rt": 2411,
		"stimulus": "../audio/69-7-masc.mp3",
		"response": " ",
		"word": "couro",
		"trial_type": "audio-keyboard-response",
		"trial_index": 215,
		"time_elapsed": 922425,
		"internal_node_id": "0.0-3.0-1.169"
	},
	{
		"rt": 2640,
		"stimulus": "../audio/69-8-masc.mp3",
		"response": " ",
		"word": "preto.",
		"trial_type": "audio-keyboard-response",
		"trial_index": 216,
		"time_elapsed": 925552,
		"internal_node_id": "0.0-3.0-1.170"
	},
	{
		"rt": null,
		"stimulus": "<span style= \"font-size:30px; font-family: monospace\">+</span>",
		"response": null,
		"trial_part": "fixation",
		"trial_type": "html-keyboard-response",
		"trial_index": 217,
		"time_elapsed": 926834,
		"internal_node_id": "0.0-3.0-0.171-0.171"
	},
	{
		"rt": 1808,
		"stimulus": "../audio/68-1-masc.mp3",
		"response": " ",
		"word": "Meu",
		"trial_type": "audio-keyboard-response",
		"trial_index": 218,
		"time_elapsed": 929078,
		"internal_node_id": "0.0-3.0-1.171"
	},
	{
		"rt": 1789,
		"stimulus": "../audio/68-2-masc.mp3",
		"response": " ",
		"word": "irmão",
		"trial_type": "audio-keyboard-response",
		"trial_index": 219,
		"time_elapsed": 931323,
		"internal_node_id": "0.0-3.0-1.172"
	},
	{
		"rt": 13200,
		"stimulus": "../audio/68-3-masc.mp3",
		"response": " ",
		"word": "teve",
		"trial_type": "audio-keyboard-response",
		"trial_index": 220,
		"time_elapsed": 944969,
		"internal_node_id": "0.0-3.0-1.173"
	},
	{
		"rt": 1760,
		"stimulus": "../audio/68-4-masc.mp3",
		"response": " ",
		"word": "um",
		"trial_type": "audio-keyboard-response",
		"trial_index": 221,
		"time_elapsed": 947165,
		"internal_node_id": "0.0-3.0-1.174"
	},
	{
		"rt": 2541,
		"stimulus": "../audio/68-5-masc.mp3",
		"response": " ",
		"word": "noivado",
		"trial_type": "audio-keyboard-response",
		"trial_index": 222,
		"time_elapsed": 950181,
		"internal_node_id": "0.0-3.0-1.175"
	},
	{
		"rt": 1619,
		"stimulus": "../audio/68-6-masc.mp3",
		"response": " ",
		"word": "longo",
		"trial_type": "audio-keyboard-response",
		"trial_index": 223,
		"time_elapsed": 952247,
		"internal_node_id": "0.0-3.0-1.176"
	},
	{
		"rt": 1280,
		"stimulus": "../audio/68-7-masc.mp3",
		"response": " ",
		"word": "e",
		"trial_type": "audio-keyboard-response",
		"trial_index": 224,
		"time_elapsed": 953917,
		"internal_node_id": "0.0-3.0-1.177"
	},
	{
		"rt": 1960,
		"stimulus": "../audio/68-8-masc.mp3",
		"response": " ",
		"word": "maravilhoso.",
		"trial_type": "audio-keyboard-response",
		"trial_index": 225,
		"time_elapsed": 956239,
		"internal_node_id": "0.0-3.0-1.178"
	},
	{
		"rt": null,
		"stimulus": "<span style= \"font-size:30px; font-family: monospace\">+</span>",
		"response": null,
		"trial_part": "fixation",
		"trial_type": "html-keyboard-response",
		"trial_index": 226,
		"time_elapsed": 957512,
		"internal_node_id": "0.0-3.0-0.179-0.179"
	},
	{
		"rt": 1141,
		"stimulus": "../audio/67-1-masc.mp3",
		"response": " ",
		"word": "Minha",
		"trial_type": "audio-keyboard-response",
		"trial_index": 227,
		"time_elapsed": 959221,
		"internal_node_id": "0.0-3.0-1.179"
	},
	{
		"rt": 1160,
		"stimulus": "../audio/67-2-masc.mp3",
		"response": " ",
		"word": "tia",
		"trial_type": "audio-keyboard-response",
		"trial_index": 228,
		"time_elapsed": 960754,
		"internal_node_id": "0.0-3.0-1.180"
	},
	{
		"rt": 1139,
		"stimulus": "../audio/67-3-masc.mp3",
		"response": " ",
		"word": "comprou",
		"trial_type": "audio-keyboard-response",
		"trial_index": 229,
		"time_elapsed": 962249,
		"internal_node_id": "0.0-3.0-1.181"
	},
	{
		"rt": 1472,
		"stimulus": "../audio/67-4-masc.mp3",
		"response": " ",
		"word": "um",
		"trial_type": "audio-keyboard-response",
		"trial_index": 230,
		"time_elapsed": 964069,
		"internal_node_id": "0.0-3.0-1.182"
	},
	{
		"rt": 1299,
		"stimulus": "../audio/67-5-masc.mp3",
		"response": " ",
		"word": "cordão",
		"trial_type": "audio-keyboard-response",
		"trial_index": 231,
		"time_elapsed": 965731,
		"internal_node_id": "0.0-3.0-1.183"
	},
	{
		"rt": 1360,
		"stimulus": "../audio/67-6-masc.mp3",
		"response": " ",
		"word": "para",
		"trial_type": "audio-keyboard-response",
		"trial_index": 232,
		"time_elapsed": 967437,
		"internal_node_id": "0.0-3.0-1.184"
	},
	{
		"rt": 891,
		"stimulus": "../audio/67-7-masc.mp3",
		"response": " ",
		"word": "o",
		"trial_type": "audio-keyboard-response",
		"trial_index": 233,
		"time_elapsed": 968703,
		"internal_node_id": "0.0-3.0-1.185"
	},
	{
		"rt": 1629,
		"stimulus": "../audio/67-8-masc.mp3",
		"response": " ",
		"word": "varal.",
		"trial_type": "audio-keyboard-response",
		"trial_index": 234,
		"time_elapsed": 970694,
		"internal_node_id": "0.0-3.0-1.186"
	},
	{
		"rt": null,
		"stimulus": "<span style= \"font-size:30px; font-family: monospace\">+</span>",
		"response": null,
		"trial_part": "fixation",
		"trial_type": "html-keyboard-response",
		"trial_index": 235,
		"time_elapsed": 971965,
		"internal_node_id": "0.0-3.0-0.187-0.187"
	},
	{
		"rt": 1112,
		"stimulus": "../audio/70-1-fem.mp3",
		"response": " ",
		"word": "O",
		"trial_type": "audio-keyboard-response",
		"trial_index": 236,
		"time_elapsed": 973515,
		"internal_node_id": "0.0-3.0-1.187"
	},
	{
		"rt": 909,
		"stimulus": "../audio/70-2-fem.mp3",
		"response": " ",
		"word": "meu",
		"trial_type": "audio-keyboard-response",
		"trial_index": 237,
		"time_elapsed": 974796,
		"internal_node_id": "0.0-3.0-1.188"
	},
	{
		"rt": 1179,
		"stimulus": "../audio/70-3-fem.mp3",
		"response": " ",
		"word": "filho",
		"trial_type": "audio-keyboard-response",
		"trial_index": 238,
		"time_elapsed": 976330,
		"internal_node_id": "0.0-3.0-1.189"
	},
	{
		"rt": 1051,
		"stimulus": "../audio/70-4-fem.mp3",
		"response": " ",
		"word": "tem",
		"trial_type": "audio-keyboard-response",
		"trial_index": 239,
		"time_elapsed": 977729,
		"internal_node_id": "0.0-3.0-1.190"
	},
	{
		"rt": 1259,
		"stimulus": "../audio/70-5-fem.mp3",
		"response": " ",
		"word": "medo",
		"trial_type": "audio-keyboard-response",
		"trial_index": 240,
		"time_elapsed": 979361,
		"internal_node_id": "0.0-3.0-1.191"
	},
	{
		"rt": 1251,
		"stimulus": "../audio/70-6-fem.mp3",
		"response": " ",
		"word": "de",
		"trial_type": "audio-keyboard-response",
		"trial_index": 241,
		"time_elapsed": 980966,
		"internal_node_id": "0.0-3.0-1.192"
	},
	{
		"rt": 1629,
		"stimulus": "../audio/70-7-fem.mp3",
		"response": " ",
		"word": "enguia",
		"trial_type": "audio-keyboard-response",
		"trial_index": 242,
		"time_elapsed": 982964,
		"internal_node_id": "0.0-3.0-1.193"
	},
	{
		"rt": 1400,
		"stimulus": "../audio/70-8-fem.mp3",
		"response": " ",
		"word": "e",
		"trial_type": "audio-keyboard-response",
		"trial_index": 243,
		"time_elapsed": 984710,
		"internal_node_id": "0.0-3.0-1.194"
	},
	{
		"rt": 2491,
		"stimulus": "../audio/70-9-fem.mp3",
		"response": " ",
		"word": "beija-flor.",
		"trial_type": "audio-keyboard-response",
		"trial_index": 244,
		"time_elapsed": 987574,
		"internal_node_id": "0.0-3.0-1.195"
	},
	{
		"rt": 23552,
		"stimulus": "<span style=\"font-size:25px; font-family: monospace\">O filho tem medo de tigre?</span>",
		"response": "s",
		"question": "O filho tem medo de tigre?",
		"answer": "null",
		"trial": "exp-sent",
		"trial_type": "html-keyboard-response",
		"trial_index": 245,
		"time_elapsed": 1011379,
		"internal_node_id": "0.0-3.0-2.195-0.195",
		"accuracy": false
	},
	{
		"rt": null,
		"stimulus": "<span style= \"font-size:30px; font-family: monospace\">+</span>",
		"response": null,
		"trial_part": "fixation",
		"trial_type": "html-keyboard-response",
		"trial_index": 246,
		"time_elapsed": 1012903,
		"internal_node_id": "0.0-3.0-0.196-0.196"
	},
	{
		"rt": 1600,
		"stimulus": "../audio/46-1-masc.mp3",
		"response": " ",
		"word": "Meu",
		"trial_type": "audio-keyboard-response",
		"trial_index": 247,
		"time_elapsed": 1014928,
		"internal_node_id": "0.0-3.0-1.196"
	},
	{
		"rt": 1080,
		"stimulus": "../audio/46-2-masc.mp3",
		"response": " ",
		"word": "primo",
		"trial_type": "audio-keyboard-response",
		"trial_index": 248,
		"time_elapsed": 1016382,
		"internal_node_id": "0.0-3.0-1.197"
	},
	{
		"rt": 1051,
		"stimulus": "../audio/46-3-masc.mp3",
		"response": " ",
		"word": "estava",
		"trial_type": "audio-keyboard-response",
		"trial_index": 249,
		"time_elapsed": 1017785,
		"internal_node_id": "0.0-3.0-1.198"
	},
	{
		"rt": 1219,
		"stimulus": "../audio/46-4-masc.mp3",
		"response": " ",
		"word": "muito",
		"trial_type": "audio-keyboard-response",
		"trial_index": 250,
		"time_elapsed": 1019407,
		"internal_node_id": "0.0-3.0-1.199"
	},
	{
		"rt": 1621,
		"stimulus": "../audio/46-5-masc.mp3",
		"response": " ",
		"word": "deprimido",
		"trial_type": "audio-keyboard-response",
		"trial_index": 251,
		"time_elapsed": 1021391,
		"internal_node_id": "0.0-3.0-1.200"
	},
	{
		"rt": 1091,
		"stimulus": "../audio/46-6-masc.mp3",
		"response": " ",
		"word": "no",
		"trial_type": "audio-keyboard-response",
		"trial_index": 252,
		"time_elapsed": 1022852,
		"internal_node_id": "0.0-3.0-1.201"
	},
	{
		"rt": 1571,
		"stimulus": "../audio/46-7-masc.mp3",
		"response": " ",
		"word": "inverno.",
		"trial_type": "audio-keyboard-response",
		"trial_index": 253,
		"time_elapsed": 1024791,
		"internal_node_id": "0.0-3.0-1.202"
	},
	{
		"rt": null,
		"stimulus": "<span style= \"font-size:30px; font-family: monospace\">+</span>",
		"response": null,
		"trial_part": "fixation",
		"trial_type": "html-keyboard-response",
		"trial_index": 254,
		"time_elapsed": 1026053,
		"internal_node_id": "0.0-3.0-0.203-0.203"
	},
	{
		"rt": 960,
		"stimulus": "../audio/47-1-masc.mp3",
		"response": " ",
		"word": "O",
		"trial_type": "audio-keyboard-response",
		"trial_index": 255,
		"time_elapsed": 1027446,
		"internal_node_id": "0.0-3.0-1.203"
	},
	{
		"rt": 1160,
		"stimulus": "../audio/47-2-masc.mp3",
		"response": " ",
		"word": "tio",
		"trial_type": "audio-keyboard-response",
		"trial_index": 256,
		"time_elapsed": 1028952,
		"internal_node_id": "0.0-3.0-1.204"
	},
	{
		"rt": 1341,
		"stimulus": "../audio/47-3-masc.mp3",
		"response": " ",
		"word": "recusou",
		"trial_type": "audio-keyboard-response",
		"trial_index": 257,
		"time_elapsed": 1030676,
		"internal_node_id": "0.0-3.0-1.205"
	},
	{
		"rt": 989,
		"stimulus": "../audio/47-4-masc.mp3",
		"response": " ",
		"word": "a",
		"trial_type": "audio-keyboard-response",
		"trial_index": 258,
		"time_elapsed": 1032025,
		"internal_node_id": "0.0-3.0-1.206"
	},
	{
		"rt": 1701,
		"stimulus": "../audio/47-5-masc.mp3",
		"response": " ",
		"word": "sobremesa",
		"trial_type": "audio-keyboard-response",
		"trial_index": 259,
		"time_elapsed": 1034105,
		"internal_node_id": "0.0-3.0-1.207"
	},
	{
		"rt": 989,
		"stimulus": "../audio/47-6-masc.mp3",
		"response": " ",
		"word": "no",
		"trial_type": "audio-keyboard-response",
		"trial_index": 260,
		"time_elapsed": 1035528,
		"internal_node_id": "0.0-3.0-1.208"
	},
	{
		"rt": 1331,
		"stimulus": "../audio/47-7-masc.mp3",
		"response": " ",
		"word": "almoço.",
		"trial_type": "audio-keyboard-response",
		"trial_index": 261,
		"time_elapsed": 1037210,
		"internal_node_id": "0.0-3.0-1.209"
	},
	{
		"rt": null,
		"stimulus": "<span style= \"font-size:30px; font-family: monospace\">+</span>",
		"response": null,
		"trial_part": "fixation",
		"trial_type": "html-keyboard-response",
		"trial_index": 262,
		"time_elapsed": 1038482,
		"internal_node_id": "0.0-3.0-0.210-0.210"
	},
	{
		"rt": 1109,
		"stimulus": "../audio/48-1-masc.mp3",
		"response": " ",
		"word": "Ela",
		"trial_type": "audio-keyboard-response",
		"trial_index": 263,
		"time_elapsed": 1040024,
		"internal_node_id": "0.0-3.0-1.210"
	},
	{
		"rt": 1019,
		"stimulus": "../audio/48-2-masc.mp3",
		"response": " ",
		"word": "come",
		"trial_type": "audio-keyboard-response",
		"trial_index": 264,
		"time_elapsed": 1041406,
		"internal_node_id": "0.0-3.0-1.211"
	},
	{
		"rt": 1139,
		"stimulus": "../audio/48-3-masc.mp3",
		"response": " ",
		"word": "feijão",
		"trial_type": "audio-keyboard-response",
		"trial_index": 265,
		"time_elapsed": 1042916,
		"internal_node_id": "0.0-3.0-1.212"
	},
	{
		"rt": 1000,
		"stimulus": "../audio/48-4-masc.mp3",
		"response": " ",
		"word": "com",
		"trial_type": "audio-keyboard-response",
		"trial_index": 266,
		"time_elapsed": 1044290,
		"internal_node_id": "0.0-3.0-1.213"
	},
	{
		"rt": 1381,
		"stimulus": "../audio/48-5-masc.mp3",
		"response": " ",
		"word": "arroz",
		"trial_type": "audio-keyboard-response",
		"trial_index": 267,
		"time_elapsed": 1046026,
		"internal_node_id": "0.0-3.0-1.214"
	},
	{
		"rt": 1421,
		"stimulus": "../audio/48-6-masc.mp3",
		"response": " ",
		"word": "todos",
		"trial_type": "audio-keyboard-response",
		"trial_index": 268,
		"time_elapsed": 1047821,
		"internal_node_id": "0.0-3.0-1.215"
	},
	{
		"rt": 1131,
		"stimulus": "../audio/48-7-masc.mp3",
		"response": " ",
		"word": "os",
		"trial_type": "audio-keyboard-response",
		"trial_index": 269,
		"time_elapsed": 1049294,
		"internal_node_id": "0.0-3.0-1.216"
	},
	{
		"rt": 1792,
		"stimulus": "../audio/48-8-masc.mp3",
		"response": " ",
		"word": "dias.",
		"trial_type": "audio-keyboard-response",
		"trial_index": 270,
		"time_elapsed": 1051434,
		"internal_node_id": "0.0-3.0-1.217"
	},
	{
		"rt": null,
		"stimulus": "<span style= \"font-size:30px; font-family: monospace\">+</span>",
		"response": null,
		"trial_part": "fixation",
		"trial_type": "html-keyboard-response",
		"trial_index": 271,
		"time_elapsed": 1052712,
		"internal_node_id": "0.0-3.0-0.218-0.218"
	},
	{
		"rt": 979,
		"stimulus": "../audio/49-1-fem.mp3",
		"response": " ",
		"word": "Eu",
		"trial_type": "audio-keyboard-response",
		"trial_index": 272,
		"time_elapsed": 1054160,
		"internal_node_id": "0.0-3.0-1.218"
	},
	{
		"rt": 1101,
		"stimulus": "../audio/49-2-fem.mp3",
		"response": " ",
		"word": "quero",
		"trial_type": "audio-keyboard-response",
		"trial_index": 273,
		"time_elapsed": 1055623,
		"internal_node_id": "0.0-3.0-1.219"
	},
	{
		"rt": 1021,
		"stimulus": "../audio/49-3-fem.mp3",
		"response": " ",
		"word": "um",
		"trial_type": "audio-keyboard-response",
		"trial_index": 274,
		"time_elapsed": 1056994,
		"internal_node_id": "0.0-3.0-1.220"
	},
	{
		"rt": 1331,
		"stimulus": "../audio/49-4-fem.mp3",
		"response": " ",
		"word": "lanche",
		"trial_type": "audio-keyboard-response",
		"trial_index": 275,
		"time_elapsed": 1058691,
		"internal_node_id": "0.0-3.0-1.221"
	},
	{
		"rt": 1240,
		"stimulus": "../audio/49-5-fem.mp3",
		"response": " ",
		"word": "duplo",
		"trial_type": "audio-keyboard-response",
		"trial_index": 276,
		"time_elapsed": 1060282,
		"internal_node_id": "0.0-3.0-1.222"
	},
	{
		"rt": 931,
		"stimulus": "../audio/49-6-fem.mp3",
		"response": " ",
		"word": "e",
		"trial_type": "audio-keyboard-response",
		"trial_index": 277,
		"time_elapsed": 1061589,
		"internal_node_id": "0.0-3.0-1.223"
	},
	{
		"rt": 1080,
		"stimulus": "../audio/49-7-fem.mp3",
		"response": " ",
		"word": "um",
		"trial_type": "audio-keyboard-response",
		"trial_index": 278,
		"time_elapsed": 1063006,
		"internal_node_id": "0.0-3.0-1.224"
	},
	{
		"rt": 1531,
		"stimulus": "../audio/49-8-fem.mp3",
		"response": " ",
		"word": "suco.",
		"trial_type": "audio-keyboard-response",
		"trial_index": 279,
		"time_elapsed": 1064911,
		"internal_node_id": "0.0-3.0-1.225"
	},
	{
		"rt": null,
		"stimulus": "<span style= \"font-size:30px; font-family: monospace\">+</span>",
		"response": null,
		"trial_part": "fixation",
		"trial_type": "html-keyboard-response",
		"trial_index": 280,
		"time_elapsed": 1066193,
		"internal_node_id": "0.0-3.0-0.226-0.226"
	},
	{
		"rt": 971,
		"stimulus": "../audio/50-1-masc.mp3",
		"response": " ",
		"word": "O",
		"trial_type": "audio-keyboard-response",
		"trial_index": 281,
		"time_elapsed": 1067588,
		"internal_node_id": "0.0-3.0-1.226"
	},
	{
		"rt": 1181,
		"stimulus": "../audio/50-2-masc.mp3",
		"response": " ",
		"word": "pássaro",
		"trial_type": "audio-keyboard-response",
		"trial_index": 282,
		"time_elapsed": 1069111,
		"internal_node_id": "0.0-3.0-1.227"
	},
	{
		"rt": 1179,
		"stimulus": "../audio/50-3-masc.mp3",
		"response": " ",
		"word": "fugiu",
		"trial_type": "audio-keyboard-response",
		"trial_index": 283,
		"time_elapsed": 1070677,
		"internal_node_id": "0.0-3.0-1.228"
	},
	{
		"rt": 1131,
		"stimulus": "../audio/50-4-masc.mp3",
		"response": " ",
		"word": "da",
		"trial_type": "audio-keyboard-response",
		"trial_index": 284,
		"time_elapsed": 1072176,
		"internal_node_id": "0.0-3.0-1.229"
	},
	{
		"rt": 1360,
		"stimulus": "../audio/50-5-masc.mp3",
		"response": " ",
		"word": "gaiola",
		"trial_type": "audio-keyboard-response",
		"trial_index": 285,
		"time_elapsed": 1073898,
		"internal_node_id": "0.0-3.0-1.230"
	},
	{
		"rt": 1160,
		"stimulus": "../audio/50-6-masc.mp3",
		"response": " ",
		"word": "pela",
		"trial_type": "audio-keyboard-response",
		"trial_index": 286,
		"time_elapsed": 1075412,
		"internal_node_id": "0.0-3.0-1.231"
	},
	{
		"rt": 1400,
		"stimulus": "../audio/50-7-masc.mp3",
		"response": " ",
		"word": "portinhola.",
		"trial_type": "audio-keyboard-response",
		"trial_index": 287,
		"time_elapsed": 1077167,
		"internal_node_id": "0.0-3.0-1.232"
	},
	{
		"rt": 11733,
		"stimulus": "<span style=\"font-size:25px; font-family: monospace\">O pássaro fugiu da gaiola?</span>",
		"response": "n",
		"question": "O pássaro fugiu da gaiola?",
		"answer": "null",
		"trial": "exp-sent",
		"trial_type": "html-keyboard-response",
		"trial_index": 288,
		"time_elapsed": 1089152,
		"internal_node_id": "0.0-3.0-2.232-0.232",
		"accuracy": false
	},
	{
		"rt": null,
		"stimulus": "<span style= \"font-size:30px; font-family: monospace\">+</span>",
		"response": null,
		"trial_part": "fixation",
		"trial_type": "html-keyboard-response",
		"trial_index": 289,
		"time_elapsed": 1090662,
		"internal_node_id": "0.0-3.0-0.233-0.233"
	},
	{
		"rt": 989,
		"stimulus": "../audio/12-1-masc.mp3",
		"response": " ",
		"word": "O",
		"trial_type": "audio-keyboard-response",
		"trial_index": 290,
		"time_elapsed": 1092083,
		"internal_node_id": "0.0-3.0-1.233"
	},
	{
		"rt": 909,
		"stimulus": "../audio/12-2-masc.mp3",
		"response": " ",
		"word": "dia",
		"trial_type": "audio-keyboard-response",
		"trial_index": 291,
		"time_elapsed": 1093379,
		"internal_node_id": "0.0-3.0-1.234"
	},
	{
		"rt": 1200,
		"stimulus": "../audio/12-3-masc.mp3",
		"response": " ",
		"word": "estava",
		"trial_type": "audio-keyboard-response",
		"trial_index": 292,
		"time_elapsed": 1094947,
		"internal_node_id": "0.0-3.0-1.235"
	},
	{
		"rt": 1179,
		"stimulus": "../audio/12-4-masc.mp3",
		"response": " ",
		"word": "quente,",
		"trial_type": "audio-keyboard-response",
		"trial_index": 293,
		"time_elapsed": 1096495,
		"internal_node_id": "0.0-3.0-1.236"
	},
	{
		"rt": 1379,
		"stimulus": "../audio/12-5-masc.mp3",
		"response": " ",
		"word": "tranquilo",
		"trial_type": "audio-keyboard-response",
		"trial_index": 294,
		"time_elapsed": 1098245,
		"internal_node_id": "0.0-3.0-1.237"
	},
	{
		"rt": 1240,
		"stimulus": "../audio/12-6-masc.mp3",
		"response": " ",
		"word": "e",
		"trial_type": "audio-keyboard-response",
		"trial_index": 295,
		"time_elapsed": 1099841,
		"internal_node_id": "0.0-3.0-1.238"
	},
	{
		"rt": 1760,
		"stimulus": "../audio/12-7-masc.mp3",
		"response": " ",
		"word": "ensolarado.",
		"trial_type": "audio-keyboard-response",
		"trial_index": 296,
		"time_elapsed": 1101961,
		"internal_node_id": "0.0-3.0-1.239"
	},
	{
		"rt": null,
		"stimulus": "<span style= \"font-size:30px; font-family: monospace\">+</span>",
		"response": null,
		"trial_part": "fixation",
		"trial_type": "html-keyboard-response",
		"trial_index": 297,
		"time_elapsed": 1103223,
		"internal_node_id": "0.0-3.0-0.240-0.240"
	},
	{
		"rt": 709,
		"stimulus": "../audio/14-1-masc.mp3",
		"response": " ",
		"word": "O",
		"trial_type": "audio-keyboard-response",
		"trial_index": 298,
		"time_elapsed": 1104571,
		"internal_node_id": "0.0-3.0-1.240"
	},
	{
		"rt": 1760,
		"stimulus": "../audio/14-2-masc.mp3",
		"response": " ",
		"word": "cachorro",
		"trial_type": "audio-keyboard-response",
		"trial_index": 299,
		"time_elapsed": 1106683,
		"internal_node_id": "0.0-3.0-1.241"
	},
	{
		"rt": 1011,
		"stimulus": "../audio/14-3-masc.mp3",
		"response": " ",
		"word": "é",
		"trial_type": "audio-keyboard-response",
		"trial_index": 300,
		"time_elapsed": 1108114,
		"internal_node_id": "0.0-3.0-1.242"
	},
	{
		"rt": 1168,
		"stimulus": "../audio/14-4-masc.mp3",
		"response": " ",
		"word": "muito",
		"trial_type": "audio-keyboard-response",
		"trial_index": 301,
		"time_elapsed": 1109636,
		"internal_node_id": "0.0-3.0-1.243"
	},
	{
		"rt": 171,
		"stimulus": "../audio/14-5-masc.mp3",
		"response": " ",
		"word": "fiel",
		"trial_type": "audio-keyboard-response",
		"trial_index": 302,
		"time_elapsed": 1110150,
		"internal_node_id": "0.0-3.0-1.244"
	},
	{
		"rt": 1459,
		"stimulus": "../audio/14-6-masc.mp3",
		"response": " ",
		"word": "a",
		"trial_type": "audio-keyboard-response",
		"trial_index": 303,
		"time_elapsed": 1111962,
		"internal_node_id": "0.0-3.0-1.245"
	},
	{
		"rt": 1360,
		"stimulus": "../audio/14-7-masc.mp3",
		"response": " ",
		"word": "seus",
		"trial_type": "audio-keyboard-response",
		"trial_index": 304,
		"time_elapsed": 1113690,
		"internal_node_id": "0.0-3.0-1.246"
	},
	{
		"rt": 1469,
		"stimulus": "../audio/14-8-masc.mp3",
		"response": " ",
		"word": "donos.",
		"trial_type": "audio-keyboard-response",
		"trial_index": 305,
		"time_elapsed": 1115518,
		"internal_node_id": "0.0-3.0-1.247"
	},
	{
		"rt": null,
		"stimulus": "<span style= \"font-size:30px; font-family: monospace\">+</span>",
		"response": null,
		"trial_part": "fixation",
		"trial_type": "html-keyboard-response",
		"trial_index": 306,
		"time_elapsed": 1116802,
		"internal_node_id": "0.0-3.0-0.248-0.248"
	},
	{
		"rt": 1200,
		"stimulus": "../audio/13-1-masc.mp3",
		"response": " ",
		"word": "Para",
		"trial_type": "audio-keyboard-response",
		"trial_index": 307,
		"time_elapsed": 1118494,
		"internal_node_id": "0.0-3.0-1.248"
	},
	{
		"rt": 1120,
		"stimulus": "../audio/13-2-masc.mp3",
		"response": " ",
		"word": "mim",
		"trial_type": "audio-keyboard-response",
		"trial_index": 308,
		"time_elapsed": 1120580,
		"internal_node_id": "0.0-3.0-1.249"
	},
	{
		"rt": 1149,
		"stimulus": "../audio/13-3-masc.mp3",
		"response": " ",
		"word": "é",
		"trial_type": "audio-keyboard-response",
		"trial_index": 309,
		"time_elapsed": 1122142,
		"internal_node_id": "0.0-3.0-1.250"
	},
	{
		"rt": 1691,
		"stimulus": "../audio/13-4-masc.mp3",
		"response": " ",
		"word": "muito",
		"trial_type": "audio-keyboard-response",
		"trial_index": 310,
		"time_elapsed": 1124181,
		"internal_node_id": "0.0-3.0-1.251"
	},
	{
		"rt": 1509,
		"stimulus": "../audio/13-5-masc.mp3",
		"response": " ",
		"word": "difícil",
		"trial_type": "audio-keyboard-response",
		"trial_index": 311,
		"time_elapsed": 1126165,
		"internal_node_id": "0.0-3.0-1.252"
	},
	{
		"rt": 1880,
		"stimulus": "../audio/13-6-masc.mp3",
		"response": " ",
		"word": "acordar",
		"trial_type": "audio-keyboard-response",
		"trial_index": 312,
		"time_elapsed": 1129090,
		"internal_node_id": "0.0-3.0-1.253"
	},
	{
		"rt": 1261,
		"stimulus": "../audio/13-7-masc.mp3",
		"response": " ",
		"word": "cedo.",
		"trial_type": "audio-keyboard-response",
		"trial_index": 313,
		"time_elapsed": 1131458,
		"internal_node_id": "0.0-3.0-1.254"
	},
	{
		"rt": null,
		"stimulus": "<span style= \"font-size:30px; font-family: monospace\">+</span>",
		"response": null,
		"trial_part": "fixation",
		"trial_type": "html-keyboard-response",
		"trial_index": 314,
		"time_elapsed": 1132733,
		"internal_node_id": "0.0-3.0-0.255-0.255"
	},
	{
		"rt": 1421,
		"stimulus": "../audio/11-1-fem.mp3",
		"response": " ",
		"word": "Elas",
		"trial_type": "audio-keyboard-response",
		"trial_index": 315,
		"time_elapsed": 1134633,
		"internal_node_id": "0.0-3.0-1.255"
	},
	{
		"rt": 1251,
		"stimulus": "../audio/11-2-fem.mp3",
		"response": " ",
		"word": "gostam",
		"trial_type": "audio-keyboard-response",
		"trial_index": 316,
		"time_elapsed": 1137215,
		"internal_node_id": "0.0-3.0-1.256"
	},
	{
		"rt": 1288,
		"stimulus": "../audio/11-3-fem.mp3",
		"response": " ",
		"word": "muito",
		"trial_type": "audio-keyboard-response",
		"trial_index": 317,
		"time_elapsed": 1139959,
		"internal_node_id": "0.0-3.0-1.257"
	},
	{
		"rt": 1139,
		"stimulus": "../audio/11-4-fem.mp3",
		"response": " ",
		"word": "de",
		"trial_type": "audio-keyboard-response",
		"trial_index": 318,
		"time_elapsed": 1141809,
		"internal_node_id": "0.0-3.0-1.258"
	},
	{
		"rt": 2621,
		"stimulus": "../audio/11-5-fem.mp3",
		"response": " ",
		"word": "aritmética",
		"trial_type": "audio-keyboard-response",
		"trial_index": 319,
		"time_elapsed": 1144862,
		"internal_node_id": "0.0-3.0-1.259"
	},
	{
		"rt": 941,
		"stimulus": "../audio/11-6-fem.mp3",
		"response": " ",
		"word": "e",
		"trial_type": "audio-keyboard-response",
		"trial_index": 320,
		"time_elapsed": 1147316,
		"internal_node_id": "0.0-3.0-1.260"
	},
	{
		"rt": 989,
		"stimulus": "../audio/11-7-fem.mp3",
		"response": " ",
		"word": "de",
		"trial_type": "audio-keyboard-response",
		"trial_index": 321,
		"time_elapsed": 1148655,
		"internal_node_id": "0.0-3.0-1.261"
	},
	{
		"rt": 1499,
		"stimulus": "../audio/11-8-fem.mp3",
		"response": " ",
		"word": "leitura.",
		"trial_type": "audio-keyboard-response",
		"trial_index": 322,
		"time_elapsed": 1150574,
		"internal_node_id": "0.0-3.0-1.262"
	},
	{
		"rt": null,
		"stimulus": "<span style= \"font-size:30px; font-family: monospace\">+</span>",
		"response": null,
		"trial_part": "fixation",
		"trial_type": "html-keyboard-response",
		"trial_index": 323,
		"time_elapsed": 1151858,
		"internal_node_id": "0.0-3.0-0.263-0.263"
	},
	{
		"rt": 1520,
		"stimulus": "../audio/15-1-fem.mp3",
		"response": " ",
		"word": "Meu",
		"trial_type": "audio-keyboard-response",
		"trial_index": 324,
		"time_elapsed": 1154465,
		"internal_node_id": "0.0-3.0-1.263"
	},
	{
		"rt": 1280,
		"stimulus": "../audio/15-2-fem.mp3",
		"response": " ",
		"word": "primo",
		"trial_type": "audio-keyboard-response",
		"trial_index": 325,
		"time_elapsed": 1156226,
		"internal_node_id": "0.0-3.0-1.264"
	},
	{
		"rt": 1461,
		"stimulus": "../audio/15-3-fem.mp3",
		"response": " ",
		"word": "é",
		"trial_type": "audio-keyboard-response",
		"trial_index": 326,
		"time_elapsed": 1158467,
		"internal_node_id": "0.0-3.0-1.265"
	},
	{
		"rt": 960,
		"stimulus": "../audio/15-4-fem.mp3",
		"response": " ",
		"word": "um",
		"trial_type": "audio-keyboard-response",
		"trial_index": 327,
		"time_elapsed": 1160074,
		"internal_node_id": "0.0-3.0-1.266"
	},
	{
		"rt": 1760,
		"stimulus": "../audio/15-5-fem.mp3",
		"response": " ",
		"word": "grande",
		"trial_type": "audio-keyboard-response",
		"trial_index": 328,
		"time_elapsed": 1162197,
		"internal_node_id": "0.0-3.0-1.267"
	},
	{
		"rt": 2261,
		"stimulus": "../audio/15-6-fem.mp3",
		"response": " ",
		"word": "vendedor",
		"trial_type": "audio-keyboard-response",
		"trial_index": 329,
		"time_elapsed": 1164902,
		"internal_node_id": "0.0-3.0-1.268"
	},
	{
		"rt": 1029,
		"stimulus": "../audio/15-7-fem.mp3",
		"response": " ",
		"word": "de",
		"trial_type": "audio-keyboard-response",
		"trial_index": 330,
		"time_elapsed": 1166454,
		"internal_node_id": "0.0-3.0-1.269"
	},
	{
		"rt": 1251,
		"stimulus": "../audio/15-8-fem.mp3",
		"response": " ",
		"word": "carros.",
		"trial_type": "audio-keyboard-response",
		"trial_index": 331,
		"time_elapsed": 1168070,
		"internal_node_id": "0.0-3.0-1.270"
	},
	{
		"rt": 3842,
		"stimulus": "<span style=\"font-size:25px; font-family: monospace\">O primo é um vendedor de carros?</span>",
		"response": "s",
		"question": "O primo é um vendedor de carros?",
		"answer": "null",
		"trial": "exp-sent",
		"trial_type": "html-keyboard-response",
		"trial_index": 332,
		"time_elapsed": 1172176,
		"internal_node_id": "0.0-3.0-2.270-0.270",
		"accuracy": false
	},
	{
		"rt": null,
		"stimulus": "<span style= \"font-size:30px; font-family: monospace\">+</span>",
		"response": null,
		"trial_part": "fixation",
		"trial_type": "html-keyboard-response",
		"trial_index": 333,
		"time_elapsed": 1173702,
		"internal_node_id": "0.0-3.0-0.271-0.271"
	},
	{
		"rt": 21,
		"stimulus": "../audio/53-1-fem.mp3",
		"response": " ",
		"word": "O",
		"trial_type": "audio-keyboard-response",
		"trial_index": 334,
		"time_elapsed": 1174186,
		"internal_node_id": "0.0-3.0-1.271"
	},
	{
		"rt": 2309,
		"stimulus": "../audio/53-2-fem.mp3",
		"response": " ",
		"word": "médico",
		"trial_type": "audio-keyboard-response",
		"trial_index": 335,
		"time_elapsed": 1176858,
		"internal_node_id": "0.0-3.0-1.272"
	},
	{
		"rt": 1629,
		"stimulus": "../audio/53-3-fem.mp3",
		"response": " ",
		"word": "foi",
		"trial_type": "audio-keyboard-response",
		"trial_index": 336,
		"time_elapsed": 1179637,
		"internal_node_id": "0.0-3.0-1.273"
	},
	{
		"rt": 1520,
		"stimulus": "../audio/53-4-fem.mp3",
		"response": " ",
		"word": "bastante",
		"trial_type": "audio-keyboard-response",
		"trial_index": 337,
		"time_elapsed": 1181606,
		"internal_node_id": "0.0-3.0-1.274"
	},
	{
		"rt": 1648,
		"stimulus": "../audio/53-5-fem.mp3",
		"response": " ",
		"word": "preciso",
		"trial_type": "audio-keyboard-response",
		"trial_index": 338,
		"time_elapsed": 1183643,
		"internal_node_id": "0.0-3.0-1.275"
	},
	{
		"rt": 1608,
		"stimulus": "../audio/53-6-fem.mp3",
		"response": " ",
		"word": "durante",
		"trial_type": "audio-keyboard-response",
		"trial_index": 339,
		"time_elapsed": 1185766,
		"internal_node_id": "0.0-3.0-1.276"
	},
	{
		"rt": 1160,
		"stimulus": "../audio/53-7-fem.mp3",
		"response": " ",
		"word": "a",
		"trial_type": "audio-keyboard-response",
		"trial_index": 340,
		"time_elapsed": 1187372,
		"internal_node_id": "0.0-3.0-1.277"
	},
	{
		"rt": 2909,
		"stimulus": "../audio/53-8-fem.mp3",
		"response": " ",
		"word": "cirurgia.",
		"trial_type": "audio-keyboard-response",
		"trial_index": 341,
		"time_elapsed": 1190655,
		"internal_node_id": "0.0-3.0-1.278"
	},
	{
		"rt": null,
		"stimulus": "<span style= \"font-size:30px; font-family: monospace\">+</span>",
		"response": null,
		"trial_part": "fixation",
		"trial_type": "html-keyboard-response",
		"trial_index": 342,
		"time_elapsed": 1191932,
		"internal_node_id": "0.0-3.0-0.279-0.279"
	},
	{
		"rt": 1640,
		"stimulus": "../audio/54-1-masc.mp3",
		"response": " ",
		"word": "Estou",
		"trial_type": "audio-keyboard-response",
		"trial_index": 343,
		"time_elapsed": 1194031,
		"internal_node_id": "0.0-3.0-1.279"
	},
	{
		"rt": 1419,
		"stimulus": "../audio/54-2-masc.mp3",
		"response": " ",
		"word": "com",
		"trial_type": "audio-keyboard-response",
		"trial_index": 344,
		"time_elapsed": 1195850,
		"internal_node_id": "0.0-3.0-1.280"
	},
	{
		"rt": 1261,
		"stimulus": "../audio/54-3-masc.mp3",
		"response": " ",
		"word": "medo",
		"trial_type": "audio-keyboard-response",
		"trial_index": 345,
		"time_elapsed": 1197746,
		"internal_node_id": "0.0-3.0-1.281"
	},
	{
		"rt": 1131,
		"stimulus": "../audio/54-4-masc.mp3",
		"response": " ",
		"word": "da",
		"trial_type": "audio-keyboard-response",
		"trial_index": 346,
		"time_elapsed": 1199288,
		"internal_node_id": "0.0-3.0-1.282"
	},
	{
		"rt": 1800,
		"stimulus": "../audio/54-5-masc.mp3",
		"response": " ",
		"word": "atual",
		"trial_type": "audio-keyboard-response",
		"trial_index": 347,
		"time_elapsed": 1201461,
		"internal_node_id": "0.0-3.0-1.283"
	},
	{
		"rt": 2331,
		"stimulus": "../audio/54-6-masc.mp3",
		"response": " ",
		"word": "organização",
		"trial_type": "audio-keyboard-response",
		"trial_index": 348,
		"time_elapsed": 1204335,
		"internal_node_id": "0.0-3.0-1.284"
	},
	{
		"rt": 1589,
		"stimulus": "../audio/54-7-masc.mp3",
		"response": " ",
		"word": "do",
		"trial_type": "audio-keyboard-response",
		"trial_index": 349,
		"time_elapsed": 1206738,
		"internal_node_id": "0.0-3.0-1.285"
	},
	{
		"rt": 1920,
		"stimulus": "../audio/54-8-masc.mp3",
		"response": " ",
		"word": "país.",
		"trial_type": "audio-keyboard-response",
		"trial_index": 350,
		"time_elapsed": 1209028,
		"internal_node_id": "0.0-3.0-1.286"
	},
	{
		"rt": null,
		"stimulus": "<span style= \"font-size:30px; font-family: monospace\">+</span>",
		"response": null,
		"trial_part": "fixation",
		"trial_type": "html-keyboard-response",
		"trial_index": 351,
		"time_elapsed": 1210303,
		"internal_node_id": "0.0-3.0-0.287-0.287"
	},
	{
		"rt": 1221,
		"stimulus": "../audio/51-1-masc.mp3",
		"response": " ",
		"word": "Suco",
		"trial_type": "audio-keyboard-response",
		"trial_index": 352,
		"time_elapsed": 1211950,
		"internal_node_id": "0.0-3.0-1.287"
	},
	{
		"rt": 1229,
		"stimulus": "../audio/51-2-masc.mp3",
		"response": " ",
		"word": "de",
		"trial_type": "audio-keyboard-response",
		"trial_index": 353,
		"time_elapsed": 1213563,
		"internal_node_id": "0.0-3.0-1.288"
	},
	{
		"rt": 1592,
		"stimulus": "../audio/51-3-masc.mp3",
		"response": " ",
		"word": "acerola",
		"trial_type": "audio-keyboard-response",
		"trial_index": 354,
		"time_elapsed": 1215506,
		"internal_node_id": "0.0-3.0-1.289"
	},
	{
		"rt": 1739,
		"stimulus": "../audio/51-4-masc.mp3",
		"response": " ",
		"word": "é",
		"trial_type": "audio-keyboard-response",
		"trial_index": 355,
		"time_elapsed": 1217616,
		"internal_node_id": "0.0-3.0-1.290"
	},
	{
		"rt": 1739,
		"stimulus": "../audio/51-5-masc.mp3",
		"response": " ",
		"word": "azedo",
		"trial_type": "audio-keyboard-response",
		"trial_index": 356,
		"time_elapsed": 1219805,
		"internal_node_id": "0.0-3.0-1.291"
	},
	{
		"rt": 1981,
		"stimulus": "../audio/51-6-masc.mp3",
		"response": " ",
		"word": "e",
		"trial_type": "audio-keyboard-response",
		"trial_index": 357,
		"time_elapsed": 1222217,
		"internal_node_id": "0.0-3.0-1.292"
	},
	{
		"rt": 1392,
		"stimulus": "../audio/51-7-masc.mp3",
		"response": " ",
		"word": "até",
		"trial_type": "audio-keyboard-response",
		"trial_index": 358,
		"time_elapsed": 1224034,
		"internal_node_id": "0.0-3.0-1.293"
	},
	{
		"rt": 1851,
		"stimulus": "../audio/51-8-masc.mp3",
		"response": " ",
		"word": "barato.",
		"trial_type": "audio-keyboard-response",
		"trial_index": 359,
		"time_elapsed": 1226253,
		"internal_node_id": "0.0-3.0-1.294"
	},
	{
		"rt": null,
		"stimulus": "<span style= \"font-size:30px; font-family: monospace\">+</span>",
		"response": null,
		"trial_part": "fixation",
		"trial_type": "html-keyboard-response",
		"trial_index": 360,
		"time_elapsed": 1227515,
		"internal_node_id": "0.0-3.0-0.295-0.295"
	},
	{
		"rt": 931,
		"stimulus": "../audio/52-1-masc.mp3",
		"response": " ",
		"word": "Às",
		"trial_type": "audio-keyboard-response",
		"trial_index": 361,
		"time_elapsed": 1228870,
		"internal_node_id": "0.0-3.0-1.295"
	},
	{
		"rt": 1008,
		"stimulus": "../audio/52-2-masc.mp3",
		"response": " ",
		"word": "vezes",
		"trial_type": "audio-keyboard-response",
		"trial_index": 362,
		"time_elapsed": 1230443,
		"internal_node_id": "0.0-3.0-1.296"
	},
	{
		"rt": 971,
		"stimulus": "../audio/52-3-masc.mp3",
		"response": " ",
		"word": "eu",
		"trial_type": "audio-keyboard-response",
		"trial_index": 363,
		"time_elapsed": 1231777,
		"internal_node_id": "0.0-3.0-1.297"
	},
	{
		"rt": 1080,
		"stimulus": "../audio/52-4-masc.mp3",
		"response": " ",
		"word": "tenho",
		"trial_type": "audio-keyboard-response",
		"trial_index": 364,
		"time_elapsed": 1233213,
		"internal_node_id": "0.0-3.0-1.298"
	},
	{
		"rt": 1741,
		"stimulus": "../audio/52-5-masc.mp3",
		"response": " ",
		"word": "azia",
		"trial_type": "audio-keyboard-response",
		"trial_index": 365,
		"time_elapsed": 1235346,
		"internal_node_id": "0.0-3.0-1.299"
	},
	{
		"rt": 1149,
		"stimulus": "../audio/52-6-masc.mp3",
		"response": " ",
		"word": "depois",
		"trial_type": "audio-keyboard-response",
		"trial_index": 366,
		"time_elapsed": 1236944,
		"internal_node_id": "0.0-3.0-1.300"
	},
	{
		"rt": 939,
		"stimulus": "../audio/52-7-masc.mp3",
		"response": " ",
		"word": "da",
		"trial_type": "audio-keyboard-response",
		"trial_index": 367,
		"time_elapsed": 1238255,
		"internal_node_id": "0.0-3.0-1.301"
	},
	{
		"rt": 1309,
		"stimulus": "../audio/52-8-masc.mp3",
		"response": " ",
		"word": "janta.",
		"trial_type": "audio-keyboard-response",
		"trial_index": 368,
		"time_elapsed": 1239936,
		"internal_node_id": "0.0-3.0-1.302"
	},
	{
		"rt": null,
		"stimulus": "<span style= \"font-size:30px; font-family: monospace\">+</span>",
		"response": null,
		"trial_part": "fixation",
		"trial_type": "html-keyboard-response",
		"trial_index": 369,
		"time_elapsed": 1241222,
		"internal_node_id": "0.0-3.0-0.303-0.303"
	},
	{
		"rt": 1000,
		"stimulus": "../audio/55-1-fem.mp3",
		"response": " ",
		"word": "O",
		"trial_type": "audio-keyboard-response",
		"trial_index": 370,
		"time_elapsed": 1242728,
		"internal_node_id": "0.0-3.0-1.303"
	},
	{
		"rt": 1651,
		"stimulus": "../audio/55-2-fem.mp3",
		"response": " ",
		"word": "insulto",
		"trial_type": "audio-keyboard-response",
		"trial_index": 371,
		"time_elapsed": 1244769,
		"internal_node_id": "0.0-3.0-1.304"
	},
	{
		"rt": 1480,
		"stimulus": "../audio/55-3-fem.mp3",
		"response": " ",
		"word": "recente",
		"trial_type": "audio-keyboard-response",
		"trial_index": 372,
		"time_elapsed": 1247026,
		"internal_node_id": "0.0-3.0-1.305"
	},
	{
		"rt": 1400,
		"stimulus": "../audio/55-4-fem.mp3",
		"response": " ",
		"word": "causou",
		"trial_type": "audio-keyboard-response",
		"trial_index": 373,
		"time_elapsed": 1248802,
		"internal_node_id": "0.0-3.0-1.306"
	},
	{
		"rt": 2419,
		"stimulus": "../audio/55-5-fem.mp3",
		"response": " ",
		"word": "indignação",
		"trial_type": "audio-keyboard-response",
		"trial_index": 374,
		"time_elapsed": 1251595,
		"internal_node_id": "0.0-3.0-1.307"
	},
	{
		"rt": 1331,
		"stimulus": "../audio/55-6-fem.mp3",
		"response": " ",
		"word": "em",
		"trial_type": "audio-keyboard-response",
		"trial_index": 375,
		"time_elapsed": 1253537,
		"internal_node_id": "0.0-3.0-1.308"
	},
	{
		"rt": 3011,
		"stimulus": "../audio/55-7-fem.mp3",
		"response": " ",
		"word": "todos.",
		"trial_type": "audio-keyboard-response",
		"trial_index": 376,
		"time_elapsed": 1256913,
		"internal_node_id": "0.0-3.0-1.309"
	},
	{
		"rt": 8410,
		"stimulus": "<span style=\"font-size:25px; font-family: monospace\">O insulto causou calmaria?</span>",
		"response": "s",
		"question": "O insulto causou calmaria?",
		"answer": "null",
		"trial": "exp-sent",
		"trial_type": "html-keyboard-response",
		"trial_index": 377,
		"time_elapsed": 1265578,
		"internal_node_id": "0.0-3.0-2.309-0.309",
		"accuracy": false
	},
	{
		"rt": null,
		"stimulus": "<span style= \"font-size:30px; font-family: monospace\">+</span>",
		"response": null,
		"trial_part": "fixation",
		"trial_type": "html-keyboard-response",
		"trial_index": 378,
		"time_elapsed": 1267094,
		"internal_node_id": "0.0-3.0-0.310-0.310"
	},
	{
		"rt": 1061,
		"stimulus": "../audio/02-2-masc.mp3",
		"response": " ",
		"word": "Havia",
		"trial_type": "audio-keyboard-response",
		"trial_index": 379,
		"time_elapsed": 1268636,
		"internal_node_id": "0.0-3.0-1.310"
	},
	{
		"rt": 960,
		"stimulus": "../audio/02-2-masc.mp3",
		"response": " ",
		"word": "um",
		"trial_type": "audio-keyboard-response",
		"trial_index": 380,
		"time_elapsed": 1269857,
		"internal_node_id": "0.0-3.0-1.311"
	},
	{
		"rt": 1109,
		"stimulus": "../audio/02-3-masc.mp3",
		"response": " ",
		"word": "cheiro",
		"trial_type": "audio-keyboard-response",
		"trial_index": 381,
		"time_elapsed": 1271573,
		"internal_node_id": "0.0-3.0-1.312"
	},
	{
		"rt": 971,
		"stimulus": "../audio/02-4-masc.mp3",
		"response": " ",
		"word": "de",
		"trial_type": "audio-keyboard-response",
		"trial_index": 382,
		"time_elapsed": 1272897,
		"internal_node_id": "0.0-3.0-1.313"
	},
	{
		"rt": 1149,
		"stimulus": "../audio/02-5-masc.mp3",
		"response": " ",
		"word": "gasolina",
		"trial_type": "audio-keyboard-response",
		"trial_index": 383,
		"time_elapsed": 1274409,
		"internal_node_id": "0.0-3.0-1.314"
	},
	{
		"rt": 1088,
		"stimulus": "../audio/02-6-masc.mp3",
		"response": " ",
		"word": "na",
		"trial_type": "audio-keyboard-response",
		"trial_index": 384,
		"time_elapsed": 1275843,
		"internal_node_id": "0.0-3.0-1.315"
	},
	{
		"rt": 1389,
		"stimulus": "../audio/02-7-masc.mp3",
		"response": " ",
		"word": "garagem.",
		"trial_type": "audio-keyboard-response",
		"trial_index": 385,
		"time_elapsed": 1277596,
		"internal_node_id": "0.0-3.0-1.316"
	},
	{
		"rt": null,
		"stimulus": "<span style= \"font-size:30px; font-family: monospace\">+</span>",
		"response": null,
		"trial_part": "fixation",
		"trial_type": "html-keyboard-response",
		"trial_index": 386,
		"time_elapsed": 1278873,
		"internal_node_id": "0.0-3.0-0.317-0.317"
	},
	{
		"rt": 789,
		"stimulus": "../audio/03-1-fem.mp3",
		"response": " ",
		"word": "O",
		"trial_type": "audio-keyboard-response",
		"trial_index": 387,
		"time_elapsed": 1280131,
		"internal_node_id": "0.0-3.0-1.317"
	},
	{
		"rt": 1200,
		"stimulus": "../audio/03-2-fem.mp3",
		"response": " ",
		"word": "coelho",
		"trial_type": "audio-keyboard-response",
		"trial_index": 388,
		"time_elapsed": 1281718,
		"internal_node_id": "0.0-3.0-1.318"
	},
	{
		"rt": 928,
		"stimulus": "../audio/03-3-fem.mp3",
		"response": " ",
		"word": "foi",
		"trial_type": "audio-keyboard-response",
		"trial_index": 389,
		"time_elapsed": 1283001,
		"internal_node_id": "0.0-3.0-1.319"
	},
	{
		"rt": 1381,
		"stimulus": "../audio/03-4-fem.mp3",
		"response": " ",
		"word": "bastante",
		"trial_type": "audio-keyboard-response",
		"trial_index": 390,
		"time_elapsed": 1284745,
		"internal_node_id": "0.0-3.0-1.320"
	},
	{
		"rt": 1272,
		"stimulus": "../audio/03-5-fem.mp3",
		"response": " ",
		"word": "dócil",
		"trial_type": "audio-keyboard-response",
		"trial_index": 391,
		"time_elapsed": 1286468,
		"internal_node_id": "0.0-3.0-1.321"
	},
	{
		"rt": 909,
		"stimulus": "../audio/03-6-fem.mp3",
		"response": " ",
		"word": "com",
		"trial_type": "audio-keyboard-response",
		"trial_index": 392,
		"time_elapsed": 1287719,
		"internal_node_id": "0.0-3.0-1.322"
	},
	{
		"rt": 1000,
		"stimulus": "../audio/03-7-fem.mp3",
		"response": " ",
		"word": "as",
		"trial_type": "audio-keyboard-response",
		"trial_index": 393,
		"time_elapsed": 1289076,
		"internal_node_id": "0.0-3.0-1.323"
	},
	{
		"rt": 851,
		"stimulus": "../audio/03-8-fem.mp3",
		"response": " ",
		"word": "crianças.",
		"trial_type": "audio-keyboard-response",
		"trial_index": 394,
		"time_elapsed": 1290514,
		"internal_node_id": "0.0-3.0-1.324"
	},
	{
		"rt": null,
		"stimulus": "<span style= \"font-size:30px; font-family: monospace\">+</span>",
		"response": null,
		"trial_part": "fixation",
		"trial_type": "html-keyboard-response",
		"trial_index": 395,
		"time_elapsed": 1291780,
		"internal_node_id": "0.0-3.0-0.325-0.325"
	},
	{
		"rt": 1760,
		"stimulus": "../audio/04-1-masc.mp3",
		"response": " ",
		"word": "Duzentos",
		"trial_type": "audio-keyboard-response",
		"trial_index": 396,
		"time_elapsed": 1294679,
		"internal_node_id": "0.0-3.0-1.325"
	},
	{
		"rt": 1701,
		"stimulus": "../audio/04-2-masc.mp3",
		"response": " ",
		"word": "carros",
		"trial_type": "audio-keyboard-response",
		"trial_index": 397,
		"time_elapsed": 1296796,
		"internal_node_id": "0.0-3.0-1.326"
	},
	{
		"rt": 1371,
		"stimulus": "../audio/04-3-masc.mp3",
		"response": " ",
		"word": "passaram",
		"trial_type": "audio-keyboard-response",
		"trial_index": 398,
		"time_elapsed": 1298609,
		"internal_node_id": "0.0-3.0-1.327"
	},
	{
		"rt": 979,
		"stimulus": "../audio/04-4-masc.mp3",
		"response": " ",
		"word": "pela",
		"trial_type": "audio-keyboard-response",
		"trial_index": 399,
		"time_elapsed": 1300046,
		"internal_node_id": "0.0-3.0-1.328"
	},
	{
		"rt": 1349,
		"stimulus": "../audio/04-5-masc.mp3",
		"response": " ",
		"word": "ponte",
		"trial_type": "audio-keyboard-response",
		"trial_index": 400,
		"time_elapsed": 1301777,
		"internal_node_id": "0.0-3.0-1.329"
	},
	{
		"rt": 1349,
		"stimulus": "../audio/04-6-masc.mp3",
		"response": " ",
		"word": "hoje",
		"trial_type": "audio-keyboard-response",
		"trial_index": 401,
		"time_elapsed": 1303486,
		"internal_node_id": "0.0-3.0-1.330"
	},
	{
		"rt": 1160,
		"stimulus": "../audio/04-7-masc.mp3",
		"response": " ",
		"word": "de",
		"trial_type": "audio-keyboard-response",
		"trial_index": 402,
		"time_elapsed": 1305285,
		"internal_node_id": "0.0-3.0-1.331"
	},
	{
		"rt": 1291,
		"stimulus": "../audio/04-8-masc.mp3",
		"response": " ",
		"word": "tarde.",
		"trial_type": "audio-keyboard-response",
		"trial_index": 403,
		"time_elapsed": 1307035,
		"internal_node_id": "0.0-3.0-1.332"
	},
	{
		"rt": null,
		"stimulus": "<span style= \"font-size:30px; font-family: monospace\">+</span>",
		"response": null,
		"trial_part": "fixation",
		"trial_type": "html-keyboard-response",
		"trial_index": 404,
		"time_elapsed": 1308314,
		"internal_node_id": "0.0-3.0-0.333-0.333"
	},
	{
		"rt": 1032,
		"stimulus": "../audio/01-1-masc.mp3",
		"response": " ",
		"word": "O",
		"trial_type": "audio-keyboard-response",
		"trial_index": 405,
		"time_elapsed": 1310067,
		"internal_node_id": "0.0-3.0-1.333"
	},
	{
		"rt": 1451,
		"stimulus": "../audio/01-2-masc.mp3",
		"response": " ",
		"word": "menino",
		"trial_type": "audio-keyboard-response",
		"trial_index": 406,
		"time_elapsed": 1311903,
		"internal_node_id": "0.0-3.0-1.334"
	},
	{
		"rt": 1349,
		"stimulus": "../audio/01-3-masc.mp3",
		"response": " ",
		"word": "derrubou",
		"trial_type": "audio-keyboard-response",
		"trial_index": 407,
		"time_elapsed": 1313744,
		"internal_node_id": "0.0-3.0-1.335"
	},
	{
		"rt": 1091,
		"stimulus": "../audio/01-4-masc.mp3",
		"response": " ",
		"word": "a",
		"trial_type": "audio-keyboard-response",
		"trial_index": 408,
		"time_elapsed": 1315236,
		"internal_node_id": "0.0-3.0-1.336"
	},
	{
		"rt": 1291,
		"stimulus": "../audio/01-5-masc.mp3",
		"response": " ",
		"word": "guitarra",
		"trial_type": "audio-keyboard-response",
		"trial_index": 409,
		"time_elapsed": 1316914,
		"internal_node_id": "0.0-3.0-1.337"
	},
	{
		"rt": 1360,
		"stimulus": "../audio/01-6-masc.mp3",
		"response": " ",
		"word": "no",
		"trial_type": "audio-keyboard-response",
		"trial_index": 410,
		"time_elapsed": 1318732,
		"internal_node_id": "0.0-3.0-1.338"
	},
	{
		"rt": 1149,
		"stimulus": "../audio/01-7-masc.mp3",
		"response": " ",
		"word": "chão.",
		"trial_type": "audio-keyboard-response",
		"trial_index": 411,
		"time_elapsed": 1320286,
		"internal_node_id": "0.0-3.0-1.339"
	},
	{
		"rt": null,
		"stimulus": "<span style= \"font-size:30px; font-family: monospace\">+</span>",
		"response": null,
		"trial_part": "fixation",
		"trial_type": "html-keyboard-response",
		"trial_index": 412,
		"time_elapsed": 1321553,
		"internal_node_id": "0.0-3.0-0.340-0.340"
	},
	{
		"rt": 32,
		"stimulus": "../audio/05-1-masc.mp3",
		"response": " ",
		"word": "A",
		"trial_type": "audio-keyboard-response",
		"trial_index": 413,
		"time_elapsed": 1322314,
		"internal_node_id": "0.0-3.0-1.340"
	},
	{
		"rt": 1640,
		"stimulus": "../audio/05-2-masc.mp3",
		"response": " ",
		"word": "vendedora",
		"trial_type": "audio-keyboard-response",
		"trial_index": 414,
		"time_elapsed": 1324324,
		"internal_node_id": "0.0-3.0-1.341"
	},
	{
		"rt": 1240,
		"stimulus": "../audio/05-3-masc.mp3",
		"response": " ",
		"word": "ajudou",
		"trial_type": "audio-keyboard-response",
		"trial_index": 415,
		"time_elapsed": 1325987,
		"internal_node_id": "0.0-3.0-1.342"
	},
	{
		"rt": 1139,
		"stimulus": "../audio/05-4-masc.mp3",
		"response": " ",
		"word": "um",
		"trial_type": "audio-keyboard-response",
		"trial_index": 416,
		"time_elapsed": 1327488,
		"internal_node_id": "0.0-3.0-1.343"
	},
	{
		"rt": 1341,
		"stimulus": "../audio/05-5-masc.mp3",
		"response": " ",
		"word": "turista",
		"trial_type": "audio-keyboard-response",
		"trial_index": 417,
		"time_elapsed": 1329194,
		"internal_node_id": "0.0-3.0-1.344"
	},
	{
		"rt": 1221,
		"stimulus": "../audio/05-6-masc.mp3",
		"response": " ",
		"word": "na",
		"trial_type": "audio-keyboard-response",
		"trial_index": 418,
		"time_elapsed": 1330795,
		"internal_node_id": "0.0-3.0-1.345"
	},
	{
		"rt": 1461,
		"stimulus": "../audio/05-7-masc.mp3",
		"response": " ",
		"word": "loja.",
		"trial_type": "audio-keyboard-response",
		"trial_index": 419,
		"time_elapsed": 1332632,
		"internal_node_id": "0.0-3.0-1.346"
	},
	{
		"rt": 4505,
		"stimulus": "<span style=\"font-size:25px; font-family: monospace\">A vendedora ajudou um turista?</span>",
		"response": "s",
		"question": "A vendedora ajudou um turista?",
		"answer": "null",
		"trial": "exp-sent",
		"trial_type": "html-keyboard-response",
		"trial_index": 420,
		"time_elapsed": 1337391,
		"internal_node_id": "0.0-3.0-2.346-0.346",
		"accuracy": false
	},
	{
		"rt": null,
