"view_history","rt","trial_type","trial_index","time_elapsed","internal_node_id","stimulus","response","trial_part","trial","word","question","answer","accuracy"
"[{""page_index"":0,""viewing_time"":110648},{""page_index"":1,""viewing_time"":11512}]","122161","instructions","0","122162","0.0-0.0","","","","","","","",""
"","null","html-keyboard-response","1","123287","0.0-1.0-0.0-0.0","<span style= ""font-size:30px; font-family: monospace"">+</span>","null","fixation","","","","",""
"","4552","html-keyboard-response","2","128118","0.0-1.0-1.0","<span style=""font-size:30px; font-family: monospace"">O</span>"," ","","prac-sent","O","","",""
"","6784","html-keyboard-response","3","135156","0.0-1.0-1.1","<span style=""font-size:30px; font-family: monospace"">dia</span>"," ","","prac-sent","dia","","",""
"","3962","html-keyboard-response","4","139374","0.0-1.0-1.2","<span style=""font-size:30px; font-family: monospace"">estará</span>"," ","","prac-sent","estará","","",""
"","2647","html-keyboard-response","5","142286","0.0-1.0-1.3","<span style=""font-size:30px; font-family: monospace"">cheio</span>"," ","","prac-sent","cheio","","",""
"","1654","html-keyboard-response","6","144202","0.0-1.0-1.4","<span style=""font-size:30px; font-family: monospace"">de</span>"," ","","prac-sent","de","","",""
"","2101","html-keyboard-response","7","146555","0.0-1.0-1.5","<span style=""font-size:30px; font-family: monospace"">nuvens</span>"," ","","prac-sent","nuvens","","",""
"","1224","html-keyboard-response","8","148039","0.0-1.0-1.6","<span style=""font-size:30px; font-family: monospace"">hoje.</span>"," ","","prac-sent","hoje.","","",""
"","null","html-keyboard-response","9","149299","0.0-1.0-0.7-0.7","<span style= ""font-size:30px; font-family: monospace"">+</span>","null","fixation","","","","",""
"","140","html-keyboard-response","10","149702","0.0-1.0-1.7","<span style=""font-size:30px; font-family: monospace"">A</span>"," ","","prac-sent","A","","",""
"","1797","html-keyboard-response","11","151759","0.0-1.0-1.8","<span style=""font-size:30px; font-family: monospace"">caneca</span>"," ","","prac-sent","caneca","","",""
"","1869","html-keyboard-response","12","153881","0.0-1.0-1.9","<span style=""font-size:30px; font-family: monospace"">colorida</span>"," ","","prac-sent","colorida","","",""
"","1204","html-keyboard-response","13","155349","0.0-1.0-1.10","<span style=""font-size:30px; font-family: monospace"">caiu</span>"," ","","prac-sent","caiu","","",""
"","621","html-keyboard-response","14","156233","0.0-1.0-1.11","<span style=""font-size:30px; font-family: monospace"">da</span>"," ","","prac-sent","da","","",""
"","949","html-keyboard-response","15","157436","0.0-1.0-1.12","<span style=""font-size:30px; font-family: monospace"">mesa</span>"," ","","prac-sent","mesa","","",""
"","1416","html-keyboard-response","16","159109","0.0-1.0-1.13","<span style=""font-size:30px; font-family: monospace"">de</span>"," ","","prac-sent","de","","",""
"","1541","html-keyboard-response","17","160901","0.0-1.0-1.14","<span style=""font-size:30px; font-family: monospace"">jantar.</span>"," ","","prac-comp","jantar.","","",""
"","6208","html-keyboard-response","18","167381","0.0-1.0-2.14-0.14","<span style=""font-size:30px; font-family: monospace"">A caneca permaneceu na mesa?</span>","s","","prac-comp","","A caneca permaneceu na mesa?","não","false"
"[{""page_index"":0,""viewing_time"":21293}]","21293","instructions","19","189186","0.0-2.0","","","","","","","",""
"","null","html-keyboard-response","20","190322","0.0-3.0-0.0-0.0","<span style= ""font-size:30px; font-family: monospace"">+</span>","null","fixation","","","","",""
"","2055","html-keyboard-response","21","192634","0.0-3.0-1.0","<span style=""font-size:30px; font-family: monospace"">No</span>"," ","","exp-sent","No","","",""
"","1491","html-keyboard-response","22","194377","0.0-3.0-1.1","<span style=""font-size:30px; font-family: monospace"">passado</span>"," ","","exp-sent","passado","","",""
"","1812","html-keyboard-response","23","196443","0.0-3.0-1.2","<span style=""font-size:30px; font-family: monospace"">houve</span>"," ","","exp-sent","houve","","",""
"","3089","html-keyboard-response","24","199789","0.0-3.0-1.3","<span style=""font-size:30px; font-family: monospace"">uma</span>"," ","","exp-sent","uma","","",""
"","2246","html-keyboard-response","25","202287","0.0-3.0-1.4","<span style=""font-size:30px; font-family: monospace"">rebelião</span>"," ","","exp-sent","rebelião","","",""
"","1158","html-keyboard-response","26","203704","0.0-3.0-1.5","<span style=""font-size:30px; font-family: monospace"">nesta</span>"," ","","exp-sent","nesta","","",""
"","1297","html-keyboard-response","27","205259","0.0-3.0-1.6","<span style=""font-size:30px; font-family: monospace"">cidade.</span>"," ","","exp-sent","cidade.","","",""
"","null","html-keyboard-response","28","206533","0.0-3.0-0.7-0.7","<span style= ""font-size:30px; font-family: monospace"">+</span>","null","fixation","","","","",""
"","87","html-keyboard-response","29","206874","0.0-3.0-1.7","<span style=""font-size:30px; font-family: monospace"">Ele</span>"," ","","exp-sent","Ele","","",""
"","1633","html-keyboard-response","30","208772","0.0-3.0-1.8","<span style=""font-size:30px; font-family: monospace"">fundou</span>"," ","","exp-sent","fundou","","",""
"","1208","html-keyboard-response","31","210237","0.0-3.0-1.9","<span style=""font-size:30px; font-family: monospace"">uma</span>"," ","","exp-sent","uma","","",""
"","1138","html-keyboard-response","32","211640","0.0-3.0-1.10","<span style=""font-size:30px; font-family: monospace"">empresa</span>"," ","","exp-sent","empresa","","",""
"","1701","html-keyboard-response","33","213603","0.0-3.0-1.11","<span style=""font-size:30px; font-family: monospace"">privada</span>"," ","","exp-sent","privada","","",""
"","4194","html-keyboard-response","34","218062","0.0-3.0-1.12","<span style=""font-size:30px; font-family: monospace"">sem</span>"," ","","exp-sent","sem","","",""
"","2148","html-keyboard-response","35","220463","0.0-3.0-1.13","<span style=""font-size:30px; font-family: monospace"">ajuda.</span>"," ","","exp-sent","ajuda.","","",""
"","null","html-keyboard-response","36","221747","0.0-3.0-0.14-0.14","<span style= ""font-size:30px; font-family: monospace"">+</span>","null","fixation","","","","",""
"","40","html-keyboard-response","37","222055","0.0-3.0-1.14","<span style=""font-size:30px; font-family: monospace"">As</span>"," ","","exp-sent","As","","",""
"","1362","html-keyboard-response","38","223675","0.0-3.0-1.15","<span style=""font-size:30px; font-family: monospace"">meninas</span>"," ","","exp-sent","meninas","","",""
"","1711","html-keyboard-response","39","225637","0.0-3.0-1.16","<span style=""font-size:30px; font-family: monospace"">encontraram</span>"," ","","exp-sent","encontraram","","",""
"","1347","html-keyboard-response","40","227243","0.0-3.0-1.17","<span style=""font-size:30px; font-family: monospace"">um</span>"," ","","exp-sent","um","","",""
"","1716","html-keyboard-response","41","229212","0.0-3.0-1.18","<span style=""font-size:30px; font-family: monospace"">rato</span>"," ","","exp-sent","rato","","",""
"","1661","html-keyboard-response","42","231137","0.0-3.0-1.19","<span style=""font-size:30px; font-family: monospace"">dentro</span>"," ","","exp-sent","dentro","","",""
"","1495","html-keyboard-response","43","232887","0.0-3.0-1.20","<span style=""font-size:30px; font-family: monospace"">de</span>"," ","","exp-sent","de","","",""
"","1711","html-keyboard-response","44","234864","0.0-3.0-1.21","<span style=""font-size:30px; font-family: monospace"">casa.</span>"," ","","exp-sent","casa.","","",""
"","null","html-keyboard-response","45","236131","0.0-3.0-0.22-0.22","<span style= ""font-size:30px; font-family: monospace"">+</span>","null","fixation","","","","",""
"","201","html-keyboard-response","46","236590","0.0-3.0-1.22","<span style=""font-size:30px; font-family: monospace"">O</span>"," ","","exp-sent","O","","",""
"","1611","html-keyboard-response","47","238465","0.0-3.0-1.23","<span style=""font-size:30px; font-family: monospace"">texto</span>"," ","","exp-sent","texto","","",""
"","1870","html-keyboard-response","48","240596","0.0-3.0-1.24","<span style=""font-size:30px; font-family: monospace"">tinha</span>"," ","","exp-sent","tinha","","",""
"","2165","html-keyboard-response","49","243021","0.0-3.0-1.25","<span style=""font-size:30px; font-family: monospace"">ideias</span>"," ","","exp-sent","ideias","","",""
"","1730","html-keyboard-response","50","245018","0.0-3.0-1.26","<span style=""font-size:30px; font-family: monospace"">vagas</span>"," ","","exp-sent","vagas","","",""
"","1278","html-keyboard-response","51","246549","0.0-3.0-1.27","<span style=""font-size:30px; font-family: monospace"">e</span>"," ","","exp-sent","e","","",""
"","2626","html-keyboard-response","52","249427","0.0-3.0-1.28","<span style=""font-size:30px; font-family: monospace"">confusas.</span>"," ","","exp-sent","confusas.","","",""
"","null","html-keyboard-response","53","250691","0.0-3.0-0.29-0.29","<span style= ""font-size:30px; font-family: monospace"">+</span>","null","fixation","","","","",""
"","3","html-keyboard-response","54","250954","0.0-3.0-1.29","<span style=""font-size:30px; font-family: monospace"">As</span>"," ","","exp-sent","As","","",""
"","1637","html-keyboard-response","55","252854","0.0-3.0-1.30","<span style=""font-size:30px; font-family: monospace"">crianças</span>"," ","","exp-sent","crianças","","",""
"","1577","html-keyboard-response","56","254700","0.0-3.0-1.31","<span style=""font-size:30px; font-family: monospace"">viram</span>"," ","","exp-sent","viram","","",""
"","1307","html-keyboard-response","57","256273","0.0-3.0-1.32","<span style=""font-size:30px; font-family: monospace"">a</span>"," ","","exp-sent","a","","",""
"","1858","html-keyboard-response","58","258392","0.0-3.0-1.33","<span style=""font-size:30px; font-family: monospace"">acrobata</span>"," ","","exp-sent","acrobata","","",""
"","2151","html-keyboard-response","59","260799","0.0-3.0-1.34","<span style=""font-size:30px; font-family: monospace"">talentosa</span>"," ","","exp-sent","talentosa","","",""
"","1042","html-keyboard-response","60","262104","0.0-3.0-1.35","<span style=""font-size:30px; font-family: monospace"">no</span>"," ","","exp-sent","no","","",""
"","1781","html-keyboard-response","61","264144","0.0-3.0-1.36","<span style=""font-size:30px; font-family: monospace"">circo.</span>"," ","","comp","circo.","","",""
"","4175","html-keyboard-response","62","268571","0.0-3.0-2.36-0.36","<span style=""font-size:30px; font-family: monospace"">As crianças viram o palhaço no circo?</span>","s","","comp","","As crianças viram o palhaço no circo?","não","false"
"","null","html-keyboard-response","63","270095","0.0-3.0-0.37-0.37","<span style= ""font-size:30px; font-family: monospace"">+</span>","null","fixation","","","","",""
"","812","html-keyboard-response","64","271169","0.0-3.0-1.37","<span style=""font-size:30px; font-family: monospace"">O</span>"," ","","exp-sent","O","","",""
"","1426","html-keyboard-response","65","272858","0.0-3.0-1.38","<span style=""font-size:30px; font-family: monospace"">travesseiro</span>"," ","","exp-sent","travesseiro","","",""
"","1113","html-keyboard-response","66","274238","0.0-3.0-1.39","<span style=""font-size:30px; font-family: monospace"">era</span>"," ","","exp-sent","era","","",""
"","1122","html-keyboard-response","67","275616","0.0-3.0-1.40","<span style=""font-size:30px; font-family: monospace"">muito</span>"," ","","exp-sent","muito","","",""
"","1375","html-keyboard-response","68","277249","0.0-3.0-1.41","<span style=""font-size:30px; font-family: monospace"">macio</span>"," ","","exp-sent","macio","","",""
"","1034","html-keyboard-response","69","278547","0.0-3.0-1.42","<span style=""font-size:30px; font-family: monospace"">e</span>"," ","","exp-sent","e","","",""
"","989","html-keyboard-response","70","279803","0.0-3.0-1.43","<span style=""font-size:30px; font-family: monospace"">confortável.</span>"," ","","exp-sent","confortável.","","",""
"","null","html-keyboard-response","71","281074","0.0-3.0-0.44-0.44","<span style= ""font-size:30px; font-family: monospace"">+</span>","null","fixation","","","","",""
"","121","html-keyboard-response","72","281458","0.0-3.0-1.44","<span style=""font-size:30px; font-family: monospace"">Hoje</span>"," ","","exp-sent","Hoje","","",""
"","1307","html-keyboard-response","73","283028","0.0-3.0-1.45","<span style=""font-size:30px; font-family: monospace"">a</span>"," ","","exp-sent","a","","",""
"","659","html-keyboard-response","74","283946","0.0-3.0-1.46","<span style=""font-size:30px; font-family: monospace"">atendente</span>"," ","","exp-sent","atendente","","",""
"","213","html-keyboard-response","75","284416","0.0-3.0-1.47","<span style=""font-size:30px; font-family: monospace"">estava</span>"," ","","exp-sent","estava","","",""
"","171","html-keyboard-response","76","284838","0.0-3.0-1.48","<span style=""font-size:30px; font-family: monospace"">furiosa</span>"," ","","exp-sent","furiosa","","",""
"","1204","html-keyboard-response","77","286305","0.0-3.0-1.49","<span style=""font-size:30px; font-family: monospace"">com</span>"," ","","exp-sent","com","","",""
"","865","html-keyboard-response","78","287434","0.0-3.0-1.50","<span style=""font-size:30px; font-family: monospace"">o</span>"," ","","exp-sent","o","","",""
"","254","html-keyboard-response","79","287953","0.0-3.0-1.51","<span style=""font-size:30px; font-family: monospace"">cliente.</span>"," ","","exp-sent","cliente.","","",""
"","null","html-keyboard-response","80","289218","0.0-3.0-0.52-0.52","<span style= ""font-size:30px; font-family: monospace"">+</span>","null","fixation","","","","",""
"","560","html-keyboard-response","81","290029","0.0-3.0-1.52","<span style=""font-size:30px; font-family: monospace"">O</span>"," ","","exp-sent","O","","",""
"","1035","html-keyboard-response","82","291320","0.0-3.0-1.53","<span style=""font-size:30px; font-family: monospace"">vizinho</span>"," ","","exp-sent","vizinho","","",""
"","494","html-keyboard-response","83","292067","0.0-3.0-1.54","<span style=""font-size:30px; font-family: monospace"">é</span>"," ","","exp-sent","é","","",""
"","663","html-keyboard-response","84","292982","0.0-3.0-1.55","<span style=""font-size:30px; font-family: monospace"">um</span>"," ","","exp-sent","um","","",""
"","994","html-keyboard-response","85","294232","0.0-3.0-1.56","<span style=""font-size:30px; font-family: monospace"">arquiteto</span>"," ","","exp-sent","arquiteto","","",""
"","710","html-keyboard-response","86","295192","0.0-3.0-1.57","<span style=""font-size:30px; font-family: monospace"">muito</span>"," ","","exp-sent","muito","","",""
"","742","html-keyboard-response","87","296193","0.0-3.0-1.58","<span style=""font-size:30px; font-family: monospace"">excêntrico.</span>"," ","","exp-sent","excêntrico.","","",""
"","null","html-keyboard-response","88","297461","0.0-3.0-0.59-0.59","<span style= ""font-size:30px; font-family: monospace"">+</span>","null","fixation","","","","",""
"","482","html-keyboard-response","89","298196","0.0-3.0-1.59","<span style=""font-size:30px; font-family: monospace"">A</span>"," ","","exp-sent","A","","",""
"","267","html-keyboard-response","90","298719","0.0-3.0-1.60","<span style=""font-size:30px; font-family: monospace"">nossa</span>"," ","","exp-sent","nossa","","",""
"","83","html-keyboard-response","91","299061","0.0-3.0-1.61","<span style=""font-size:30px; font-family: monospace"">colega</span>"," ","","exp-sent","colega","","",""
"","78","html-keyboard-response","92","299405","0.0-3.0-1.62","<span style=""font-size:30px; font-family: monospace"">foi</span>"," ","","exp-sent","foi","","",""
"","143","html-keyboard-response","93","299806","0.0-3.0-1.63","<span style=""font-size:30px; font-family: monospace"">má</span>"," ","","exp-sent","má","","",""
"","1184","html-keyboard-response","94","301245","0.0-3.0-1.64","<span style=""font-size:30px; font-family: monospace"">com</span>"," ","","exp-sent","com","","",""
"","1561","html-keyboard-response","95","303072","0.0-3.0-1.65","<span style=""font-size:30px; font-family: monospace"">as</span>"," ","","exp-sent","as","","",""
"","1613","html-keyboard-response","96","304943","0.0-3.0-1.66","<span style=""font-size:30px; font-family: monospace"">crianças.</span>"," ","","exp-sent","crianças.","","",""
"","null","html-keyboard-response","97","306203","0.0-3.0-0.67-0.67","<span style= ""font-size:30px; font-family: monospace"">+</span>","null","fixation","","","","",""
"","745","html-keyboard-response","98","307207","0.0-3.0-1.67","<span style=""font-size:30px; font-family: monospace"">Virtudes</span>"," ","","exp-sent","Virtudes","","",""
"","717","html-keyboard-response","99","308175","0.0-3.0-1.68","<span style=""font-size:30px; font-family: monospace"">não</span>"," ","","exp-sent","não","","",""
"","613","html-keyboard-response","100","309042","0.0-3.0-1.69","<span style=""font-size:30px; font-family: monospace"">são</span>"," ","","exp-sent","são","","",""
"","716","html-keyboard-response","101","310022","0.0-3.0-1.70","<span style=""font-size:30px; font-family: monospace"">preguiça,</span>"," ","","exp-sent","preguiça,","","",""
"","530","html-keyboard-response","102","310807","0.0-3.0-1.71","<span style=""font-size:30px; font-family: monospace"">gula</span>"," ","","exp-sent","gula","","",""
"","492","html-keyboard-response","103","311564","0.0-3.0-1.72","<span style=""font-size:30px; font-family: monospace"">nem</span>"," ","","exp-sent","nem","","",""
"","612","html-keyboard-response","104","312441","0.0-3.0-1.73","<span style=""font-size:30px; font-family: monospace"">ganância.</span>"," ","","comp","ganância.","","",""
"","11318","html-keyboard-response","105","324027","0.0-3.0-2.73-0.73","<span style=""font-size:30px; font-family: monospace"">Preguiça é uma virtude?</span>","n","","comp","","Preguiça é uma virtude?","não","false"
"","null","html-keyboard-response","106","325546","0.0-3.0-0.74-0.74","<span style= ""font-size:30px; font-family: monospace"">+</span>","null","fixation","","","","",""
"","765","html-keyboard-response","107","326563","0.0-3.0-1.74","<span style=""font-size:30px; font-family: monospace"">O</span>"," ","","exp-sent","O","","",""
"","2680","html-keyboard-response","108","329496","0.0-3.0-1.75","<span style=""font-size:30px; font-family: monospace"">moço</span>"," ","","exp-sent","moço","","",""
"","1000","html-keyboard-response","109","330760","0.0-3.0-1.76","<span style=""font-size:30px; font-family: monospace"">usou</span>"," ","","exp-sent","usou","","",""
"","132","html-keyboard-response","110","331151","0.0-3.0-1.77","<span style=""font-size:30px; font-family: monospace"">várias</span>"," ","","exp-sent","várias","","",""
"","101","html-keyboard-response","111","331516","0.0-3.0-1.78","<span style=""font-size:30px; font-family: monospace"">velas</span>"," ","","exp-sent","velas","","",""
"","124","html-keyboard-response","112","331906","0.0-3.0-1.79","<span style=""font-size:30px; font-family: monospace"">no</span>"," ","","exp-sent","no","","",""
"","81","html-keyboard-response","113","332243","0.0-3.0-1.80","<span style=""font-size:30px; font-family: monospace"">enfeite</span>"," ","","exp-sent","enfeite","","",""
"","886","html-keyboard-response","114","333381","0.0-3.0-1.81","<span style=""font-size:30px; font-family: monospace"">de</span>"," ","","exp-sent","de","","",""
"","293","html-keyboard-response","115","333939","0.0-3.0-1.82","<span style=""font-size:30px; font-family: monospace"">mesa.</span>"," ","","exp-sent","mesa.","","",""
"","null","html-keyboard-response","116","335207","0.0-3.0-0.83-0.83","<span style= ""font-size:30px; font-family: monospace"">+</span>","null","fixation","","","","",""
"","679","html-keyboard-response","117","336144","0.0-3.0-1.83","<span style=""font-size:30px; font-family: monospace"">Gostamos</span>"," ","","exp-sent","Gostamos","","",""
"","1821","html-keyboard-response","118","338224","0.0-3.0-1.84","<span style=""font-size:30px; font-family: monospace"">de</span>"," ","","exp-sent","de","","",""
"","1376","html-keyboard-response","119","339854","0.0-3.0-1.85","<span style=""font-size:30px; font-family: monospace"">suco</span>"," ","","exp-sent","suco","","",""
"","918","html-keyboard-response","120","341034","0.0-3.0-1.86","<span style=""font-size:30px; font-family: monospace"">em</span>"," ","","exp-sent","em","","",""
"","1507","html-keyboard-response","121","342797","0.0-3.0-1.87","<span style=""font-size:30px; font-family: monospace"">garrafa</span>"," ","","exp-sent","garrafa","","",""
"","482","html-keyboard-response","122","343546","0.0-3.0-1.88","<span style=""font-size:30px; font-family: monospace"">de</span>"," ","","exp-sent","de","","",""
"","322","html-keyboard-response","123","344119","0.0-3.0-1.89","<span style=""font-size:30px; font-family: monospace"">tamanho</span>"," ","","exp-sent","tamanho","","",""
"","1242","html-keyboard-response","124","345618","0.0-3.0-1.90","<span style=""font-size:30px; font-family: monospace"">pequeno.</span>"," ","","exp-sent","pequeno.","","",""
"","null","html-keyboard-response","125","346877","0.0-3.0-0.91-0.91","<span style= ""font-size:30px; font-family: monospace"">+</span>","null","fixation","","","","",""
"","536","html-keyboard-response","126","347677","0.0-3.0-1.91","<span style=""font-size:30px; font-family: monospace"">Sua</span>"," ","","exp-sent","Sua","","",""
"","557","html-keyboard-response","127","348497","0.0-3.0-1.92","<span style=""font-size:30px; font-family: monospace"">filha</span>"," ","","exp-sent","filha","","",""
"","477","html-keyboard-response","128","349232","0.0-3.0-1.93","<span style=""font-size:30px; font-family: monospace"">é</span>"," ","","exp-sent","é","","",""
"","609","html-keyboard-response","129","350100","0.0-3.0-1.94","<span style=""font-size:30px; font-family: monospace"">muito</span>"," ","","exp-sent","muito","","",""
"","904","html-keyboard-response","130","351261","0.0-3.0-1.95","<span style=""font-size:30px; font-family: monospace"">capaz</span>"," ","","exp-sent","capaz","","",""
"","511","html-keyboard-response","131","352031","0.0-3.0-1.96","<span style=""font-size:30px; font-family: monospace"">e</span>"," ","","exp-sent","e","","",""
"","1902","html-keyboard-response","132","354190","0.0-3.0-1.97","<span style=""font-size:30px; font-family: monospace"">esforçada.</span>"," ","","exp-sent","esforçada.","","",""
"","null","html-keyboard-response","133","355450","0.0-3.0-0.98-0.98","<span style= ""font-size:30px; font-family: monospace"">+</span>","null","fixation","","","","",""
"","854","html-keyboard-response","134","356555","0.0-3.0-1.98","<span style=""font-size:30px; font-family: monospace"">A</span>"," ","","exp-sent","A","","",""
"","3888","html-keyboard-response","135","360694","0.0-3.0-1.99","<span style=""font-size:30px; font-family: monospace"">batida</span>"," ","","exp-sent","batida","","",""
"","1143","html-keyboard-response","136","362095","0.0-3.0-1.100","<span style=""font-size:30px; font-family: monospace"">causou</span>"," ","","exp-sent","causou","","",""
"","123","html-keyboard-response","137","362473","0.0-3.0-1.101","<span style=""font-size:30px; font-family: monospace"">muita</span>"," ","","exp-sent","muita","","",""
"","145","html-keyboard-response","138","362879","0.0-3.0-1.102","<span style=""font-size:30px; font-family: monospace"">confusão</span>"," ","","exp-sent","confusão","","",""
"","123","html-keyboard-response","139","363262","0.0-3.0-1.103","<span style=""font-size:30px; font-family: monospace"">na</span>"," ","","exp-sent","na","","",""
"","101","html-keyboard-response","140","363617","0.0-3.0-1.104","<span style=""font-size:30px; font-family: monospace"">estrada.</span>"," ","","exp-sent","estrada.","","",""
"","null","html-keyboard-response","141","364889","0.0-3.0-0.105-0.105","<span style= ""font-size:30px; font-family: monospace"">+</span>","null","fixation","","","","",""
"","302","html-keyboard-response","142","365450","0.0-3.0-1.105","<span style=""font-size:30px; font-family: monospace"">Eu</span>"," ","","exp-sent","Eu","","",""
"","598","html-keyboard-response","143","366313","0.0-3.0-1.106","<span style=""font-size:30px; font-family: monospace"">cozinhei</span>"," ","","exp-sent","cozinhei","","",""
"","623","html-keyboard-response","144","367188","0.0-3.0-1.107","<span style=""font-size:30px; font-family: monospace"">um</span>"," ","","exp-sent","um","","",""
"","357","html-keyboard-response","145","367808","0.0-3.0-1.108","<span style=""font-size:30px; font-family: monospace"">almoço</span>"," ","","exp-sent","almoço","","",""
"","3555","html-keyboard-response","146","371614","0.0-3.0-1.109","<span style=""font-size:30px; font-family: monospace"">nutritivo</span>"," ","","exp-sent","nutritivo","","",""
"","7834","html-keyboard-response","147","379716","0.0-3.0-1.110","<span style=""font-size:30px; font-family: monospace"">para</span>"," ","","exp-sent","para","","",""
"","866","html-keyboard-response","148","380841","0.0-3.0-1.111","<span style=""font-size:30px; font-family: monospace"">hoje.</span>"," ","","comp","hoje.","","",""
"","12482","html-keyboard-response","149","393593","0.0-3.0-2.111-0.111","<span style=""font-size:30px; font-family: monospace"">O almoço era nutritivo?</span>","s","","comp","","O almoço era nutritivo?","sim","false"
"","null","html-keyboard-response","150","395102","0.0-3.0-0.112-0.112","<span style= ""font-size:30px; font-family: monospace"">+</span>","null","fixation","","","","",""
"","703","html-keyboard-response","151","396071","0.0-3.0-1.112","<span style=""font-size:30px; font-family: monospace"">Ursos</span>"," ","","exp-sent","Ursos","","",""
"","431","html-keyboard-response","152","396761","0.0-3.0-1.113","<span style=""font-size:30px; font-family: monospace"">têm</span>"," ","","exp-sent","têm","","",""
"","413","html-keyboard-response","153","397436","0.0-3.0-1.114","<span style=""font-size:30px; font-family: monospace"">uma</span>"," ","","exp-sent","uma","","",""
"","181","html-keyboard-response","154","397869","0.0-3.0-1.115","<span style=""font-size:30px; font-family: monospace"">patada</span>"," ","","exp-sent","patada","","",""
"","191","html-keyboard-response","155","398313","0.0-3.0-1.116","<span style=""font-size:30px; font-family: monospace"">brutal</span>"," ","","exp-sent","brutal","","",""
"","129","html-keyboard-response","156","398694","0.0-3.0-1.117","<span style=""font-size:30px; font-family: monospace"">e</span>"," ","","exp-sent","e","","",""
"","283","html-keyboard-response","157","399248","0.0-3.0-1.118","<span style=""font-size:30px; font-family: monospace"">poderosa.</span>"," ","","exp-sent","poderosa.","","",""
"","null","html-keyboard-response","158","400516","0.0-3.0-0.119-0.119","<span style= ""font-size:30px; font-family: monospace"">+</span>","null","fixation","","","","",""
"","291","html-keyboard-response","159","401059","0.0-3.0-1.119","<span style=""font-size:30px; font-family: monospace"">Eu</span>"," ","","exp-sent","Eu","","",""
"","345","html-keyboard-response","160","401659","0.0-3.0-1.120","<span style=""font-size:30px; font-family: monospace"">fiz</span>"," ","","exp-sent","fiz","","",""
"","436","html-keyboard-response","161","402359","0.0-3.0-1.121","<span style=""font-size:30px; font-family: monospace"">aulas</span>"," ","","exp-sent","aulas","","",""
"","182","html-keyboard-response","162","402808","0.0-3.0-1.122","<span style=""font-size:30px; font-family: monospace"">de</span>"," ","","exp-sent","de","","",""
"","280","html-keyboard-response","163","403345","0.0-3.0-1.123","<span style=""font-size:30px; font-family: monospace"">espanhol</span>"," ","","exp-sent","espanhol","","",""
"","288","html-keyboard-response","164","403887","0.0-3.0-1.124","<span style=""font-size:30px; font-family: monospace"">nesta</span>"," ","","exp-sent","nesta","","",""
"","175","html-keyboard-response","165","404313","0.0-3.0-1.125","<span style=""font-size:30px; font-family: monospace"">cidade.</span>"," ","","exp-sent","cidade.","","",""
"","null","html-keyboard-response","166","405581","0.0-3.0-0.126-0.126","<span style= ""font-size:30px; font-family: monospace"">+</span>","null","fixation","","","","",""
"","847","html-keyboard-response","167","406694","0.0-3.0-1.126","<span style=""font-size:30px; font-family: monospace"">Ele</span>"," ","","exp-sent","Ele","","",""
"","593","html-keyboard-response","168","407542","0.0-3.0-1.127","<span style=""font-size:30px; font-family: monospace"">comprou</span>"," ","","exp-sent","comprou","","",""
"","903","html-keyboard-response","169","408701","0.0-3.0-1.128","<span style=""font-size:30px; font-family: monospace"">mais</span>"," ","","exp-sent","mais","","",""
"","4137","html-keyboard-response","170","413099","0.0-3.0-1.129","<span style=""font-size:30px; font-family: monospace"">uma</span>"," ","","exp-sent","uma","","",""
"","1908","html-keyboard-response","171","415267","0.0-3.0-1.130","<span style=""font-size:30px; font-family: monospace"">esponja</span>"," ","","exp-sent","esponja","","",""
"","676","html-keyboard-response","172","416204","0.0-3.0-1.131","<span style=""font-size:30px; font-family: monospace"">para</span>"," ","","exp-sent","para","","",""
"","865","html-keyboard-response","173","417326","0.0-3.0-1.132","<span style=""font-size:30px; font-family: monospace"">a</span>"," ","","exp-sent","a","","",""
"","1055","html-keyboard-response","174","418641","0.0-3.0-1.133","<span style=""font-size:30px; font-family: monospace"">cozinha.</span>"," ","","exp-sent","cozinha.","","",""
"","null","html-keyboard-response","175","419919","0.0-3.0-0.134-0.134","<span style= ""font-size:30px; font-family: monospace"">+</span>","null","fixation","","","","",""
"","1291","html-keyboard-response","176","421476","0.0-3.0-1.134","<span style=""font-size:30px; font-family: monospace"">Ele</span>"," ","","exp-sent","Ele","","",""
"","699","html-keyboard-response","177","422440","0.0-3.0-1.135","<span style=""font-size:30px; font-family: monospace"">teve</span>"," ","","exp-sent","teve","","",""
"","493","html-keyboard-response","178","423186","0.0-3.0-1.136","<span style=""font-size:30px; font-family: monospace"">um</span>"," ","","exp-sent","um","","",""
"","583","html-keyboard-response","179","424028","0.0-3.0-1.137","<span style=""font-size:30px; font-family: monospace"">sono</span>"," ","","exp-sent","sono","","",""
"","574","html-keyboard-response","180","424861","0.0-3.0-1.138","<span style=""font-size:30px; font-family: monospace"">bizarro</span>"," ","","exp-sent","bizarro","","",""
"","552","html-keyboard-response","181","425671","0.0-3.0-1.139","<span style=""font-size:30px; font-family: monospace"">sem</span>"," ","","exp-sent","sem","","",""
"","523","html-keyboard-response","182","426446","0.0-3.0-1.140","<span style=""font-size:30px; font-family: monospace"">nenhum</span>"," ","","exp-sent","nenhum","","",""
"","641","html-keyboard-response","183","427344","0.0-3.0-1.141","<span style=""font-size:30px; font-family: monospace"">motivo.</span>"," ","","exp-sent","motivo.","","",""
"","null","html-keyboard-response","184","428604","0.0-3.0-0.142-0.142","<span style= ""font-size:30px; font-family: monospace"">+</span>","null","fixation","","","","",""
"","841","html-keyboard-response","185","429711","0.0-3.0-1.142","<span style=""font-size:30px; font-family: monospace"">A</span>"," ","","exp-sent","A","","",""
"","792","html-keyboard-response","186","430760","0.0-3.0-1.143","<span style=""font-size:30px; font-family: monospace"">moça</span>"," ","","exp-sent","moça","","",""
"","42","html-keyboard-response","187","431060","0.0-3.0-1.144","<span style=""font-size:30px; font-family: monospace"">comprou</span>"," ","","exp-sent","comprou","","",""
"","474","html-keyboard-response","188","431791","0.0-3.0-1.145","<span style=""font-size:30px; font-family: monospace"">um</span>"," ","","exp-sent","um","","",""
"","1835","html-keyboard-response","189","433886","0.0-3.0-1.146","<span style=""font-size:30px; font-family: monospace"">diamante</span>"," ","","exp-sent","diamante","","",""
"","6179","html-keyboard-response","190","440332","0.0-3.0-1.147","<span style=""font-size:30px; font-family: monospace"">para</span>"," ","","exp-sent","para","","",""
"","1121","html-keyboard-response","191","441716","0.0-3.0-1.148","<span style=""font-size:30px; font-family: monospace"">sua</span>"," ","","exp-sent","sua","","",""
"","1018","html-keyboard-response","192","442985","0.0-3.0-1.149","<span style=""font-size:30px; font-family: monospace"">prima.</span>"," ","","comp","prima.","","",""
"","9967","html-keyboard-response","193","453208","0.0-3.0-2.149-0.149","<span style=""font-size:30px; font-family: monospace"">A moça comprou um diamante?</span>","s","","comp","","A moça comprou um diamante?","sim","false"
"","null","html-keyboard-response","194","454728","0.0-3.0-0.150-0.150","<span style= ""font-size:30px; font-family: monospace"">+</span>","null","fixation","","","","",""
"","1098","html-keyboard-response","195","456088","0.0-3.0-1.150","<span style=""font-size:30px; font-family: monospace"">A</span>"," ","","exp-sent","A","","",""
"","572","html-keyboard-response","196","456915","0.0-3.0-1.151","<span style=""font-size:30px; font-family: monospace"">motorista</span>"," ","","exp-sent","motorista","","",""
"","1199","html-keyboard-response","197","458366","0.0-3.0-1.152","<span style=""font-size:30px; font-family: monospace"">fez</span>"," ","","exp-sent","fez","","",""
"","482","html-keyboard-response","198","459105","0.0-3.0-1.153","<span style=""font-size:30px; font-family: monospace"">o</span>"," ","","exp-sent","o","","",""
"","329","html-keyboard-response","199","459692","0.0-3.0-1.154","<span style=""font-size:30px; font-family: monospace"">retorno</span>"," ","","exp-sent","retorno","","",""
"","240","html-keyboard-response","200","460196","0.0-3.0-1.155","<span style=""font-size:30px; font-family: monospace"">com</span>"," ","","exp-sent","com","","",""
"","595","html-keyboard-response","201","461058","0.0-3.0-1.156","<span style=""font-size:30px; font-family: monospace"">cuidado.</span>"," ","","exp-sent","cuidado.","","",""
"","null","html-keyboard-response","202","462329","0.0-3.0-0.157-0.157","<span style= ""font-size:30px; font-family: monospace"">+</span>","null","fixation","","","","",""
"","111","html-keyboard-response","203","462697","0.0-3.0-1.157","<span style=""font-size:30px; font-family: monospace"">Contos</span>"," ","","exp-sent","Contos","","",""
"","141","html-keyboard-response","204","463095","0.0-3.0-1.158","<span style=""font-size:30px; font-family: monospace"">de</span>"," ","","exp-sent","de","","",""
"","215","html-keyboard-response","205","463569","0.0-3.0-1.159","<span style=""font-size:30px; font-family: monospace"">ação</span>"," ","","exp-sent","ação","","",""
"","190","html-keyboard-response","206","464024","0.0-3.0-1.160","<span style=""font-size:30px; font-family: monospace"">têm</span>"," ","","exp-sent","têm","","",""
"","236","html-keyboard-response","207","464520","0.0-3.0-1.161","<span style=""font-size:30px; font-family: monospace"">chantagem</span>"," ","","exp-sent","chantagem","","",""
"","1369","html-keyboard-response","208","466152","0.0-3.0-1.162","<span style=""font-size:30px; font-family: monospace"">e</span>"," ","","exp-sent","e","","",""
"","1293","html-keyboard-response","209","467708","0.0-3.0-1.163","<span style=""font-size:30px; font-family: monospace"">muita</span>"," ","","exp-sent","muita","","",""
"","385","html-keyboard-response","210","468359","0.0-3.0-1.164","<span style=""font-size:30px; font-family: monospace"">luta.</span>"," ","","exp-sent","luta.","","",""
"","null","html-keyboard-response","211","469641","0.0-3.0-0.165-0.165","<span style= ""font-size:30px; font-family: monospace"">+</span>","null","fixation","","","","",""
"","1834","html-keyboard-response","212","471734","0.0-3.0-1.165","<span style=""font-size:30px; font-family: monospace"">A</span>"," ","","exp-sent","A","","",""
"","1661","html-keyboard-response","213","473660","0.0-3.0-1.166","<span style=""font-size:30px; font-family: monospace"">bisavó</span>"," ","","exp-sent","bisavó","","",""
"","1379","html-keyboard-response","214","475295","0.0-3.0-1.167","<span style=""font-size:30px; font-family: monospace"">recebeu</span>"," ","","exp-sent","recebeu","","",""
"","981","html-keyboard-response","215","476528","0.0-3.0-1.168","<span style=""font-size:30px; font-family: monospace"">um</span>"," ","","exp-sent","um","","",""
"","1917","html-keyboard-response","216","478699","0.0-3.0-1.169","<span style=""font-size:30px; font-family: monospace"">benefício</span>"," ","","exp-sent","benefício","","",""
"","2314","html-keyboard-response","217","481273","0.0-3.0-1.170","<span style=""font-size:30px; font-family: monospace"">temporário</span>"," ","","exp-sent","temporário","","",""
"","1128","html-keyboard-response","218","482658","0.0-3.0-1.171","<span style=""font-size:30px; font-family: monospace"">do</span>"," ","","exp-sent","do","","",""
"","1669","html-keyboard-response","219","484587","0.0-3.0-1.172","<span style=""font-size:30px; font-family: monospace"">governo.</span>"," ","","exp-sent","governo.","","",""
"","null","html-keyboard-response","220","485851","0.0-3.0-0.173-0.173","<span style= ""font-size:30px; font-family: monospace"">+</span>","null","fixation","","","","",""
"","457","html-keyboard-response","221","486571","0.0-3.0-1.173","<span style=""font-size:30px; font-family: monospace"">As</span>"," ","","exp-sent","As","","",""
"","760","html-keyboard-response","222","487586","0.0-3.0-1.174","<span style=""font-size:30px; font-family: monospace"">crianças</span>"," ","","exp-sent","crianças","","",""
"","845","html-keyboard-response","223","488691","0.0-3.0-1.175","<span style=""font-size:30px; font-family: monospace"">brincaram</span>"," ","","exp-sent","brincaram","","",""
"","575","html-keyboard-response","224","489530","0.0-3.0-1.176","<span style=""font-size:30px; font-family: monospace"">no</span>"," ","","exp-sent","no","","",""
"","909","html-keyboard-response","225","490699","0.0-3.0-1.177","<span style=""font-size:30px; font-family: monospace"">balanço</span>"," ","","exp-sent","balanço","","",""
"","618","html-keyboard-response","226","491577","0.0-3.0-1.178","<span style=""font-size:30px; font-family: monospace"">a</span>"," ","","exp-sent","a","","",""
"","783","html-keyboard-response","227","492618","0.0-3.0-1.179","<span style=""font-size:30px; font-family: monospace"">tarde</span>"," ","","exp-sent","tarde","","",""
"","685","html-keyboard-response","228","493565","0.0-3.0-1.180","<span style=""font-size:30px; font-family: monospace"">toda.</span>"," ","","exp-sent","toda.","","",""
"","null","html-keyboard-response","229","494837","0.0-3.0-0.181-0.181","<span style= ""font-size:30px; font-family: monospace"">+</span>","null","fixation","","","","",""
"","708","html-keyboard-response","230","495798","0.0-3.0-1.181","<span style=""font-size:30px; font-family: monospace"">Ela</span>"," ","","exp-sent","Ela","","",""
"","641","html-keyboard-response","231","496700","0.0-3.0-1.182","<span style=""font-size:30px; font-family: monospace"">gosta</span>"," ","","exp-sent","gosta","","",""
"","629","html-keyboard-response","232","497587","0.0-3.0-1.183","<span style=""font-size:30px; font-family: monospace"">de</span>"," ","","exp-sent","de","","",""
"","697","html-keyboard-response","233","498544","0.0-3.0-1.184","<span style=""font-size:30px; font-family: monospace"">comida</span>"," ","","exp-sent","comida","","",""
"","701","html-keyboard-response","234","499506","0.0-3.0-1.185","<span style=""font-size:30px; font-family: monospace"">natural</span>"," ","","exp-sent","natural","","",""
"","533","html-keyboard-response","235","500292","0.0-3.0-1.186","<span style=""font-size:30px; font-family: monospace"">no</span>"," ","","exp-sent","no","","",""
"","1085","html-keyboard-response","236","501631","0.0-3.0-1.187","<span style=""font-size:30px; font-family: monospace"">almoço.</span>"," ","","comp","almoço.","","",""
"","4701","html-keyboard-response","237","506587","0.0-3.0-2.187-0.187","<span style=""font-size:30px; font-family: monospace"">Ela gosta de comida natural no almoço?</span>","s","","comp","","Ela gosta de comida natural no almoço?","sim","false"
"","null","html-keyboard-response","238","508100","0.0-3.0-0.188-0.188","<span style= ""font-size:30px; font-family: monospace"">+</span>","null","fixation","","","","",""
"","2548","html-keyboard-response","239","510913","0.0-3.0-1.188","<span style=""font-size:30px; font-family: monospace"">Preciso</span>"," ","","exp-sent","Preciso","","",""
"","601","html-keyboard-response","240","511770","0.0-3.0-1.189","<span style=""font-size:30px; font-family: monospace"">de</span>"," ","","exp-sent","de","","",""
"","99","html-keyboard-response","241","512131","0.0-3.0-1.190","<span style=""font-size:30px; font-family: monospace"">um</span>"," ","","exp-sent","um","","",""
"","1187","html-keyboard-response","242","513579","0.0-3.0-1.191","<span style=""font-size:30px; font-family: monospace"">relatório</span>"," ","","exp-sent","relatório","","",""
"","177","html-keyboard-response","243","514009","0.0-3.0-1.192","<span style=""font-size:30px; font-family: monospace"">oficial</span>"," ","","exp-sent","oficial","","",""
"","133","html-keyboard-response","244","514397","0.0-3.0-1.193","<span style=""font-size:30px; font-family: monospace"">para</span>"," ","","exp-sent","para","","",""
"","88","html-keyboard-response","245","514750","0.0-3.0-1.194","<span style=""font-size:30px; font-family: monospace"">amanhã.</span>"," ","","exp-sent","amanhã.","","",""
"","null","html-keyboard-response","246","516020","0.0-3.0-0.195-0.195","<span style= ""font-size:30px; font-family: monospace"">+</span>","null","fixation","","","","",""
"","669","html-keyboard-response","247","516946","0.0-3.0-1.195","<span style=""font-size:30px; font-family: monospace"">Ele</span>"," ","","exp-sent","Ele","","",""
"","919","html-keyboard-response","248","518131","0.0-3.0-1.196","<span style=""font-size:30px; font-family: monospace"">viu</span>"," ","","exp-sent","viu","","",""
"","891","html-keyboard-response","249","519286","0.0-3.0-1.197","<span style=""font-size:30px; font-family: monospace"">um</span>"," ","","exp-sent","um","","",""
"","1842","html-keyboard-response","250","521389","0.0-3.0-1.198","<span style=""font-size:30px; font-family: monospace"">inseto</span>"," ","","exp-sent","inseto","","",""
"","912","html-keyboard-response","251","522559","0.0-3.0-1.199","<span style=""font-size:30px; font-family: monospace"">marrom</span>"," ","","exp-sent","marrom","","",""
"","392","html-keyboard-response","252","523206","0.0-3.0-1.200","<span style=""font-size:30px; font-family: monospace"">na</span>"," ","","exp-sent","na","","",""
"","478","html-keyboard-response","253","523940","0.0-3.0-1.201","<span style=""font-size:30px; font-family: monospace"">parede.</span>"," ","","exp-sent","parede.","","",""
"","null","html-keyboard-response","254","525226","0.0-3.0-0.202-0.202","<span style= ""font-size:30px; font-family: monospace"">+</span>","null","fixation","","","","",""
"","391","html-keyboard-response","255","525872","0.0-3.0-1.202","<span style=""font-size:30px; font-family: monospace"">O</span>"," ","","exp-sent","O","","",""
"","543","html-keyboard-response","256","526671","0.0-3.0-1.203","<span style=""font-size:30px; font-family: monospace"">avô</span>"," ","","exp-sent","avô","","",""
"","1278","html-keyboard-response","257","528206","0.0-3.0-1.204","<span style=""font-size:30px; font-family: monospace"">fez</span>"," ","","exp-sent","fez","","",""
"","940","html-keyboard-response","258","529404","0.0-3.0-1.205","<span style=""font-size:30px; font-family: monospace"">uma</span>"," ","","exp-sent","uma","","",""
"","454","html-keyboard-response","259","530112","0.0-3.0-1.206","<span style=""font-size:30px; font-family: monospace"">lista</span>"," ","","exp-sent","lista","","",""
"","755","html-keyboard-response","260","531124","0.0-3.0-1.207","<span style=""font-size:30px; font-family: monospace"">de</span>"," ","","exp-sent","de","","",""
"","612","html-keyboard-response","261","532016","0.0-3.0-1.208","<span style=""font-size:30px; font-family: monospace"">compras</span>"," ","","exp-sent","compras","","",""
"","564","html-keyboard-response","262","532847","0.0-3.0-1.209","<span style=""font-size:30px; font-family: monospace"">do</span>"," ","","exp-sent","do","","",""
"","843","html-keyboard-response","263","533944","0.0-3.0-1.210","<span style=""font-size:30px; font-family: monospace"">mercado.</span>"," ","","exp-sent","mercado.","","",""
"","null","html-keyboard-response","264","535208","0.0-3.0-0.211-0.211","<span style= ""font-size:30px; font-family: monospace"">+</span>","null","fixation","","","","",""
"","190","html-keyboard-response","265","535653","0.0-3.0-1.211","<span style=""font-size:30px; font-family: monospace"">As</span>"," ","","exp-sent","As","","",""
"","956","html-keyboard-response","266","536859","0.0-3.0-1.212","<span style=""font-size:30px; font-family: monospace"">pessoas</span>"," ","","exp-sent","pessoas","","",""
"","1034","html-keyboard-response","267","538167","0.0-3.0-1.213","<span style=""font-size:30px; font-family: monospace"">não</span>"," ","","exp-sent","não","","",""
"","1204","html-keyboard-response","268","539622","0.0-3.0-1.214","<span style=""font-size:30px; font-family: monospace"">enviam</span>"," ","","exp-sent","enviam","","",""
"","1362","html-keyboard-response","269","541237","0.0-3.0-1.215","<span style=""font-size:30px; font-family: monospace"">telegrama</span>"," ","","exp-sent","telegrama","","",""
"","608","html-keyboard-response","270","542112","0.0-3.0-1.216","<span style=""font-size:30px; font-family: monospace"">nos</span>"," ","","exp-sent","nos","","",""
"","582","html-keyboard-response","271","542951","0.0-3.0-1.217","<span style=""font-size:30px; font-family: monospace"">dias</span>"," ","","exp-sent","dias","","",""
"","454","html-keyboard-response","272","543666","0.0-3.0-1.218","<span style=""font-size:30px; font-family: monospace"">de</span>"," ","","exp-sent","de","","",""
"","598","html-keyboard-response","273","544517","0.0-3.0-1.219","<span style=""font-size:30px; font-family: monospace"">hoje.</span>"," ","","exp-sent","hoje.","","",""
"","null","html-keyboard-response","274","545788","0.0-3.0-0.220-0.220","<span style= ""font-size:30px; font-family: monospace"">+</span>","null","fixation","","","","",""
"","769","html-keyboard-response","275","546813","0.0-3.0-1.220","<span style=""font-size:30px; font-family: monospace"">Ele</span>"," ","","exp-sent","Ele","","",""
"","892","html-keyboard-response","276","547957","0.0-3.0-1.221","<span style=""font-size:30px; font-family: monospace"">não</span>"," ","","exp-sent","não","","",""
"","1068","html-keyboard-response","277","549283","0.0-3.0-1.222","<span style=""font-size:30px; font-family: monospace"">gosta</span>"," ","","exp-sent","gosta","","",""
"","1025","html-keyboard-response","278","550572","0.0-3.0-1.223","<span style=""font-size:30px; font-family: monospace"">de</span>"," ","","exp-sent","de","","",""
"","1363","html-keyboard-response","279","552188","0.0-3.0-1.224","<span style=""font-size:30px; font-family: monospace"">tomate</span>"," ","","exp-sent","tomate","","",""
"","1658","html-keyboard-response","280","554106","0.0-3.0-1.225","<span style=""font-size:30px; font-family: monospace"">misturado</span>"," ","","exp-sent","misturado","","",""
"","1392","html-keyboard-response","281","555760","0.0-3.0-1.226","<span style=""font-size:30px; font-family: monospace"">na</span>"," ","","exp-sent","na","","",""
"","1066","html-keyboard-response","282","557080","0.0-3.0-1.227","<span style=""font-size:30px; font-family: monospace"">comida.</span>"," ","","comp","comida.","","",""
"","4363","html-keyboard-response","283","561708","0.0-3.0-2.227-0.227","<span style=""font-size:30px; font-family: monospace"">Ele gosta de tomate na comida?</span>","n","","comp","","Ele gosta de tomate na comida?","não","false"
"","null","html-keyboard-response","284","563226","0.0-3.0-0.228-0.228","<span style= ""font-size:30px; font-family: monospace"">+</span>","null","fixation","","","","",""
"","2997","html-keyboard-response","285","566488","0.0-3.0-1.228","<span style=""font-size:30px; font-family: monospace"">O</span>"," ","","exp-sent","O","","",""
"","645","html-keyboard-response","286","567393","0.0-3.0-1.229","<span style=""font-size:30px; font-family: monospace"">texto</span>"," ","","exp-sent","texto","","",""
"","303","html-keyboard-response","287","567947","0.0-3.0-1.230","<span style=""font-size:30px; font-family: monospace"">trazia</span>"," ","","exp-sent","trazia","","",""
"","151","html-keyboard-response","288","568348","0.0-3.0-1.231","<span style=""font-size:30px; font-family: monospace"">um</span>"," ","","exp-sent","um","","",""
"","49","html-keyboard-response","289","568656","0.0-3.0-1.232","<span style=""font-size:30px; font-family: monospace"">argumento</span>"," ","","exp-sent","argumento","","",""
"","232","html-keyboard-response","290","569149","0.0-3.0-1.233","<span style=""font-size:30px; font-family: monospace"">central</span>"," ","","exp-sent","central","","",""
"","152","html-keyboard-response","291","569565","0.0-3.0-1.234","<span style=""font-size:30px; font-family: monospace"">para</span>"," ","","exp-sent","para","","",""
"","141","html-keyboard-response","292","569964","0.0-3.0-1.235","<span style=""font-size:30px; font-family: monospace"">a</span>"," ","","exp-sent","a","","",""
"","546","html-keyboard-response","293","570770","0.0-3.0-1.236","<span style=""font-size:30px; font-family: monospace"">conversa.</span>"," ","","exp-sent","conversa.","","",""
"","null","html-keyboard-response","294","572027","0.0-3.0-0.237-0.237","<span style= ""font-size:30px; font-family: monospace"">+</span>","null","fixation","","","","",""
"","52","html-keyboard-response","295","572334","0.0-3.0-1.237","<span style=""font-size:30px; font-family: monospace"">Ontem</span>"," ","","exp-sent","Ontem","","",""
"","920","html-keyboard-response","296","573514","0.0-3.0-1.238","<span style=""font-size:30px; font-family: monospace"">a</span>"," ","","exp-sent","a","","",""
"","2751","html-keyboard-response","297","576522","0.0-3.0-1.239","<span style=""font-size:30px; font-family: monospace"">temperatura</span>"," ","","exp-sent","temperatura","","",""
"","1409","html-keyboard-response","298","578187","0.0-3.0-1.240","<span style=""font-size:30px; font-family: monospace"">estava</span>"," ","","exp-sent","estava","","",""
"","1226","html-keyboard-response","299","579677","0.0-3.0-1.241","<span style=""font-size:30px; font-family: monospace"">amena</span>"," ","","exp-sent","amena","","",""
"","1330","html-keyboard-response","300","581265","0.0-3.0-1.242","<span style=""font-size:30px; font-family: monospace"">durante</span>"," ","","exp-sent","durante","","",""
"","507","html-keyboard-response","301","582039","0.0-3.0-1.243","<span style=""font-size:30px; font-family: monospace"">o</span>"," ","","exp-sent","o","","",""
"","723","html-keyboard-response","302","583026","0.0-3.0-1.244","<span style=""font-size:30px; font-family: monospace"">dia.</span>"," ","","exp-sent","dia.","","",""
"","null","html-keyboard-response","303","584294","0.0-3.0-0.245-0.245","<span style= ""font-size:30px; font-family: monospace"">+</span>","null","fixation","","","","",""
"","952","html-keyboard-response","304","585506","0.0-3.0-1.245","<span style=""font-size:30px; font-family: monospace"">Havia</span>"," ","","exp-sent","Havia","","",""
"","813","html-keyboard-response","305","586581","0.0-3.0-1.246","<span style=""font-size:30px; font-family: monospace"">um</span>"," ","","exp-sent","um","","",""
"","2033","html-keyboard-response","306","588883","0.0-3.0-1.247","<span style=""font-size:30px; font-family: monospace"">machucado</span>"," ","","exp-sent","machucado","","",""
"","1004","html-keyboard-response","307","590151","0.0-3.0-1.248","<span style=""font-size:30px; font-family: monospace"">no</span>"," ","","exp-sent","no","","",""
"","1620","html-keyboard-response","308","592029","0.0-3.0-1.249","<span style=""font-size:30px; font-family: monospace"">dedo</span>"," ","","exp-sent","dedo","","",""
"","1640","html-keyboard-response","309","593935","0.0-3.0-1.250","<span style=""font-size:30px; font-family: monospace"">da</span>"," ","","exp-sent","da","","",""
"","1261","html-keyboard-response","310","595464","0.0-3.0-1.251","<span style=""font-size:30px; font-family: monospace"">criança.</span>"," ","","exp-sent","criança.","","",""
"","null","html-keyboard-response","311","596734","0.0-3.0-0.252-0.252","<span style= ""font-size:30px; font-family: monospace"">+</span>","null","fixation","","","","",""
"","2782","html-keyboard-response","312","599779","0.0-3.0-1.252","<span style=""font-size:30px; font-family: monospace"">A</span>"," ","","exp-sent","A","","",""
"","2255","html-keyboard-response","313","602296","0.0-3.0-1.253","<span style=""font-size:30px; font-family: monospace"">borboleta</span>"," ","","exp-sent","borboleta","","",""
"","1038","html-keyboard-response","314","603596","0.0-3.0-1.254","<span style=""font-size:30px; font-family: monospace"">pousou</span>"," ","","exp-sent","pousou","","",""
"","624","html-keyboard-response","315","604482","0.0-3.0-1.255","<span style=""font-size:30px; font-family: monospace"">no</span>"," ","","exp-sent","no","","",""
"","854","html-keyboard-response","316","605595","0.0-3.0-1.256","<span style=""font-size:30px; font-family: monospace"">ombro</span>"," ","","exp-sent","ombro","","",""
"","936","html-keyboard-response","317","606796","0.0-3.0-1.257","<span style=""font-size:30px; font-family: monospace"">daquela</span>"," ","","exp-sent","daquela","","",""
"","980","html-keyboard-response","318","608054","0.0-3.0-1.258","<span style=""font-size:30px; font-family: monospace"">moça.</span>"," ","","exp-sent","moça.","","",""
"","null","html-keyboard-response","319","609321","0.0-3.0-0.259-0.259","<span style= ""font-size:30px; font-family: monospace"">+</span>","null","fixation","","","","",""
"","1220","html-keyboard-response","320","610807","0.0-3.0-1.259","<span style=""font-size:30px; font-family: monospace"">Eu</span>"," ","","exp-sent","Eu","","",""
"","1308","html-keyboard-response","321","612376","0.0-3.0-1.260","<span style=""font-size:30px; font-family: monospace"">quero</span>"," ","","exp-sent","quero","","",""
"","1463","html-keyboard-response","322","614100","0.0-3.0-1.261","<span style=""font-size:30px; font-family: monospace"">um</span>"," ","","exp-sent","um","","",""
"","1884","html-keyboard-response","323","616258","0.0-3.0-1.262","<span style=""font-size:30px; font-family: monospace"">namorado</span>"," ","","exp-sent","namorado","","",""
"","1651","html-keyboard-response","324","618175","0.0-3.0-1.263","<span style=""font-size:30px; font-family: monospace"">honesto</span>"," ","","exp-sent","honesto","","",""
"","1266","html-keyboard-response","325","619702","0.0-3.0-1.264","<span style=""font-size:30px; font-family: monospace"">e</span>"," ","","exp-sent","e","","",""
"","67","html-keyboard-response","326","620038","0.0-3.0-1.265","<span style=""font-size:30px; font-family: monospace"">compreensivo.</span>"," ","","comp","compreensivo.","","",""
"","4696","html-keyboard-response","327","624997","0.0-3.0-2.265-0.265","<span style=""font-size:30px; font-family: monospace"">Eu quero um namorado honesto?</span>","s","","comp","","Eu quero um namorado honesto?","sim","false"
"","null","html-keyboard-response","328","626505","0.0-3.0-0.266-0.266","<span style= ""font-size:30px; font-family: monospace"">+</span>","null","fixation","","","","",""
"","121","html-keyboard-response","329","626884","0.0-3.0-1.266","<span style=""font-size:30px; font-family: monospace"">Ganhamos</span>"," ","","exp-sent","Ganhamos","","",""
"","850","html-keyboard-response","330","627994","0.0-3.0-1.267","<span style=""font-size:30px; font-family: monospace"">passagem</span>"," ","","exp-sent","passagem","","",""
"","918","html-keyboard-response","331","629176","0.0-3.0-1.268","<span style=""font-size:30px; font-family: monospace"">para</span>"," ","","exp-sent","para","","",""
"","530","html-keyboard-response","332","629960","0.0-3.0-1.269","<span style=""font-size:30px; font-family: monospace"">uma</span>"," ","","exp-sent","uma","","",""
"","693","html-keyboard-response","333","630908","0.0-3.0-1.270","<span style=""font-size:30px; font-family: monospace"">viagem</span>"," ","","exp-sent","viagem","","",""
"","587","html-keyboard-response","334","631747","0.0-3.0-1.271","<span style=""font-size:30px; font-family: monospace"">de</span>"," ","","exp-sent","de","","",""
"","2853","html-keyboard-response","335","634862","0.0-3.0-1.272","<span style=""font-size:30px; font-family: monospace"">férias.</span>"," ","","exp-sent","férias.","","",""
"","null","html-keyboard-response","336","636130","0.0-3.0-0.273-0.273","<span style= ""font-size:30px; font-family: monospace"">+</span>","null","fixation","","","","",""
"","1069","html-keyboard-response","337","637461","0.0-3.0-1.273","<span style=""font-size:30px; font-family: monospace"">Caiu</span>"," ","","exp-sent","Caiu","","",""
"","831","html-keyboard-response","338","638559","0.0-3.0-1.274","<span style=""font-size:30px; font-family: monospace"">algo</span>"," ","","exp-sent","algo","","",""
"","1190","html-keyboard-response","339","640015","0.0-3.0-1.275","<span style=""font-size:30px; font-family: monospace"">no</span>"," ","","exp-sent","no","","",""
"","1028","html-keyboard-response","340","641305","0.0-3.0-1.276","<span style=""font-size:30px; font-family: monospace"">meu</span>"," ","","exp-sent","meu","","",""
"","1277","html-keyboard-response","341","642835","0.0-3.0-1.277","<span style=""font-size:30px; font-family: monospace"">olho</span>"," ","","exp-sent","olho","","",""
"","1289","html-keyboard-response","342","644384","0.0-3.0-1.278","<span style=""font-size:30px; font-family: monospace"">ontem</span>"," ","","exp-sent","ontem","","",""
"","1683","html-keyboard-response","343","646319","0.0-3.0-1.279","<span style=""font-size:30px; font-family: monospace"">de</span>"," ","","exp-sent","de","","",""
"","1331","html-keyboard-response","344","647905","0.0-3.0-1.280","<span style=""font-size:30px; font-family: monospace"">tarde.</span>"," ","","exp-sent","tarde.","","",""
"","null","html-keyboard-response","345","649188","0.0-3.0-0.281-0.281","<span style= ""font-size:30px; font-family: monospace"">+</span>","null","fixation","","","","",""
"","1114","html-keyboard-response","346","650569","0.0-3.0-1.281","<span style=""font-size:30px; font-family: monospace"">Não</span>"," ","","exp-sent","Não","","",""
"","1185","html-keyboard-response","347","652020","0.0-3.0-1.282","<span style=""font-size:30px; font-family: monospace"">havia</span>"," ","","exp-sent","havia","","",""
"","1062","html-keyboard-response","348","653339","0.0-3.0-1.283","<span style=""font-size:30px; font-family: monospace"">mais</span>"," ","","exp-sent","mais","","",""
"","1052","html-keyboard-response","349","654660","0.0-3.0-1.284","<span style=""font-size:30px; font-family: monospace"">nenhum</span>"," ","","exp-sent","nenhum","","",""
"","1538","html-keyboard-response","350","656462","0.0-3.0-1.285","<span style=""font-size:30px; font-family: monospace"">ingresso</span>"," ","","exp-sent","ingresso","","",""
"","1032","html-keyboard-response","351","657748","0.0-3.0-1.286","<span style=""font-size:30px; font-family: monospace"">para</span>"," ","","exp-sent","para","","",""
"","1052","html-keyboard-response","352","659052","0.0-3.0-1.287","<span style=""font-size:30px; font-family: monospace"">o</span>"," ","","exp-sent","o","","",""
"","1081","html-keyboard-response","353","660397","0.0-3.0-1.288","<span style=""font-size:30px; font-family: monospace"">evento.</span>"," ","","exp-sent","evento.","","",""
"","null","html-keyboard-response","354","661674","0.0-3.0-0.289-0.289","<span style= ""font-size:30px; font-family: monospace"">+</span>","null","fixation","","","","",""
"","552","html-keyboard-response","355","662484","0.0-3.0-1.289","<span style=""font-size:30px; font-family: monospace"">A</span>"," ","","exp-sent","A","","",""
"","940","html-keyboard-response","356","663688","0.0-3.0-1.290","<span style=""font-size:30px; font-family: monospace"">médica</span>"," ","","exp-sent","médica","","",""
"","1341","html-keyboard-response","357","665287","0.0-3.0-1.291","<span style=""font-size:30px; font-family: monospace"">descobriu</span>"," ","","exp-sent","descobriu","","",""
"","900","html-keyboard-response","358","666449","0.0-3.0-1.292","<span style=""font-size:30px; font-family: monospace"">uma</span>"," ","","exp-sent","uma","","",""
"","975","html-keyboard-response","359","667676","0.0-3.0-1.293","<span style=""font-size:30px; font-family: monospace"">cura</span>"," ","","exp-sent","cura","","",""
"","1002","html-keyboard-response","360","668930","0.0-3.0-1.294","<span style=""font-size:30px; font-family: monospace"">para</span>"," ","","exp-sent","para","","",""
"","1010","html-keyboard-response","361","670200","0.0-3.0-1.295","<span style=""font-size:30px; font-family: monospace"">a</span>"," ","","exp-sent","a","","",""
"","1043","html-keyboard-response","362","671505","0.0-3.0-1.296","<span style=""font-size:30px; font-family: monospace"">doença.</span>"," ","","exp-sent","doença.","","",""
"","null","html-keyboard-response","363","672766","0.0-3.0-0.297-0.297","<span style= ""font-size:30px; font-family: monospace"">+</span>","null","fixation","","","","",""
"","811","html-keyboard-response","364","673838","0.0-3.0-1.297","<span style=""font-size:30px; font-family: monospace"">O</span>"," ","","exp-sent","O","","",""
"","1355","html-keyboard-response","365","675449","0.0-3.0-1.298","<span style=""font-size:30px; font-family: monospace"">menino</span>"," ","","exp-sent","menino","","",""
"","1149","html-keyboard-response","366","676851","0.0-3.0-1.299","<span style=""font-size:30px; font-family: monospace"">riscou</span>"," ","","exp-sent","riscou","","",""
"","532","html-keyboard-response","367","677649","0.0-3.0-1.300","<span style=""font-size:30px; font-family: monospace"">o</span>"," ","","exp-sent","o","","",""
"","1107","html-keyboard-response","368","679009","0.0-3.0-1.301","<span style=""font-size:30px; font-family: monospace"">caderno</span>"," ","","exp-sent","caderno","","",""
"","823","html-keyboard-response","369","680110","0.0-3.0-1.302","<span style=""font-size:30px; font-family: monospace"">com</span>"," ","","exp-sent","com","","",""
"","662","html-keyboard-response","370","681034","0.0-3.0-1.303","<span style=""font-size:30px; font-family: monospace"">a</span>"," ","","exp-sent","a","","",""
"","940","html-keyboard-response","371","682231","0.0-3.0-1.304","<span style=""font-size:30px; font-family: monospace"">caneta.</span>"," ","","comp","caneta.","","",""
"","7679","html-keyboard-response","372","690161","0.0-3.0-2.304-0.304","<span style=""font-size:30px; font-family: monospace"">O menino riscou a parede com a caneta?</span>","s","","comp","","O menino riscou a parede com a caneta?","não","false"
"","null","html-keyboard-response","373","691693","0.0-3.0-0.305-0.305","<span style= ""font-size:30px; font-family: monospace"">+</span>","null","fixation","","","","",""
"","444","html-keyboard-response","374","692394","0.0-3.0-1.305","<span style=""font-size:30px; font-family: monospace"">Minha</span>"," ","","exp-sent","Minha","","",""
"","828","html-keyboard-response","375","693478","0.0-3.0-1.306","<span style=""font-size:30px; font-family: monospace"">prima</span>"," ","","exp-sent","prima","","",""
"","1131","html-keyboard-response","376","694863","0.0-3.0-1.307","<span style=""font-size:30px; font-family: monospace"">trocou</span>"," ","","exp-sent","trocou","","",""
"","322","html-keyboard-response","377","695438","0.0-3.0-1.308","<span style=""font-size:30px; font-family: monospace"">a</span>"," ","","exp-sent","a","","",""
"","270","html-keyboard-response","378","695969","0.0-3.0-1.309","<span style=""font-size:30px; font-family: monospace"">tela</span>"," ","","exp-sent","tela","","",""
"","530","html-keyboard-response","379","696762","0.0-3.0-1.310","<span style=""font-size:30px; font-family: monospace"">do</span>"," ","","exp-sent","do","","",""
"","498","html-keyboard-response","380","697512","0.0-3.0-1.311","<span style=""font-size:30px; font-family: monospace"">celular</span>"," ","","exp-sent","celular","","",""
"","442","html-keyboard-response","381","698205","0.0-3.0-1.312","<span style=""font-size:30px; font-family: monospace"">duas</span>"," ","","exp-sent","duas","","",""
"","421","html-keyboard-response","382","698892","0.0-3.0-1.313","<span style=""font-size:30px; font-family: monospace"">vezes.</span>"," ","","exp-sent","vezes.","","",""
"","null","html-keyboard-response","383","700155","0.0-3.0-0.314-0.314","<span style= ""font-size:30px; font-family: monospace"">+</span>","null","fixation","","","","",""
"","938","html-keyboard-response","384","701353","0.0-3.0-1.314","<span style=""font-size:30px; font-family: monospace"">Agora</span>"," ","","exp-sent","Agora","","",""
"","496","html-keyboard-response","385","702105","0.0-3.0-1.315","<span style=""font-size:30px; font-family: monospace"">a</span>"," ","","exp-sent","a","","",""
"","1716","html-keyboard-response","386","704080","0.0-3.0-1.316","<span style=""font-size:30px; font-family: monospace"">minha</span>"," ","","exp-sent","minha","","",""
"","1179","html-keyboard-response","387","705522","0.0-3.0-1.317","<span style=""font-size:30px; font-family: monospace"">única</span>"," ","","exp-sent","única","","",""
"","2331","html-keyboard-response","388","708109","0.0-3.0-1.318","<span style=""font-size:30px; font-family: monospace"">preocupação</span>"," ","","exp-sent","preocupação","","",""
"","758","html-keyboard-response","389","709129","0.0-3.0-1.319","<span style=""font-size:30px; font-family: monospace"">é</span>"," ","","exp-sent","é","","",""
"","623","html-keyboard-response","390","710017","0.0-3.0-1.320","<span style=""font-size:30px; font-family: monospace"">um</span>"," ","","exp-sent","um","","",""
"","1421","html-keyboard-response","391","711696","0.0-3.0-1.321","<span style=""font-size:30px; font-family: monospace"">descanso</span>"," ","","exp-sent","descanso","","",""
"","1313","html-keyboard-response","392","713271","0.0-3.0-1.322","<span style=""font-size:30px; font-family: monospace"">tranquilo.</span>"," ","","exp-sent","tranquilo.","","",""
"","null","html-keyboard-response","393","714535","0.0-3.0-0.323-0.323","<span style= ""font-size:30px; font-family: monospace"">+</span>","null","fixation","","","","",""
"","267","html-keyboard-response","394","715056","0.0-3.0-1.323","<span style=""font-size:30px; font-family: monospace"">A</span>"," ","","exp-sent","A","","",""
"","1033","html-keyboard-response","395","716343","0.0-3.0-1.324","<span style=""font-size:30px; font-family: monospace"">criança</span>"," ","","exp-sent","criança","","",""
"","1999","html-keyboard-response","396","718605","0.0-3.0-1.325","<span style=""font-size:30px; font-family: monospace"">ganhou</span>"," ","","exp-sent","ganhou","","",""
"","1505","html-keyboard-response","397","720361","0.0-3.0-1.326","<span style=""font-size:30px; font-family: monospace"">um</span>"," ","","exp-sent","um","","",""
"","1441","html-keyboard-response","398","722065","0.0-3.0-1.327","<span style=""font-size:30px; font-family: monospace"">presente</span>"," ","","exp-sent","presente","","",""
"","2352","html-keyboard-response","399","724676","0.0-3.0-1.328","<span style=""font-size:30px; font-family: monospace"">maravilhoso.</span>"," ","","exp-sent","maravilhoso.","","",""
"","null","html-keyboard-response","400","725949","0.0-3.0-0.329-0.329","<span style= ""font-size:30px; font-family: monospace"">+</span>","null","fixation","","","","",""
"","847","html-keyboard-response","401","727049","0.0-3.0-1.329","<span style=""font-size:30px; font-family: monospace"">Os</span>"," ","","exp-sent","Os","","",""
"","1462","html-keyboard-response","402","728782","0.0-3.0-1.330","<span style=""font-size:30px; font-family: monospace"">bichos</span>"," ","","exp-sent","bichos","","",""
"","1196","html-keyboard-response","403","730230","0.0-3.0-1.331","<span style=""font-size:30px; font-family: monospace"">têm</span>"," ","","exp-sent","têm","","",""
"","1111","html-keyboard-response","404","731599","0.0-3.0-1.332","<span style=""font-size:30px; font-family: monospace"">um</span>"," ","","exp-sent","um","","",""
"","6079","html-keyboard-response","405","737930","0.0-3.0-1.333","<span style=""font-size:30px; font-family: monospace"">instinto</span>"," ","","exp-sent","instinto","","",""
"","836","html-keyboard-response","406","739032","0.0-3.0-1.334","<span style=""font-size:30px; font-family: monospace"">de</span>"," ","","exp-sent","de","","",""
"","4254","html-keyboard-response","407","743541","0.0-3.0-1.335","<span style=""font-size:30px; font-family: monospace"">sobrevivência</span>"," ","","exp-sent","sobrevivência","","",""
"","929","html-keyboard-response","408","744722","0.0-3.0-1.336","<span style=""font-size:30px; font-family: monospace"">forte.</span>"," ","","exp-sent","forte.","","",""
"","null","html-keyboard-response","409","745978","0.0-3.0-0.337-0.337","<span style= ""font-size:30px; font-family: monospace"">+</span>","null","fixation","","","","",""
"","878","html-keyboard-response","410","747112","0.0-3.0-1.337","<span style=""font-size:30px; font-family: monospace"">Aquele</span>"," ","","exp-sent","Aquele","","",""
"","927","html-keyboard-response","411","748302","0.0-3.0-1.338","<span style=""font-size:30px; font-family: monospace"">menino</span>"," ","","exp-sent","menino","","",""
"","837","html-keyboard-response","412","749395","0.0-3.0-1.339","<span style=""font-size:30px; font-family: monospace"">alto</span>"," ","","exp-sent","alto","","",""
"","1124","html-keyboard-response","413","750795","0.0-3.0-1.340","<span style=""font-size:30px; font-family: monospace"">é</span>"," ","","exp-sent","é","","",""
"","1581","html-keyboard-response","414","752634","0.0-3.0-1.341","<span style=""font-size:30px; font-family: monospace"">exibido</span>"," ","","exp-sent","exibido","","",""
"","534","html-keyboard-response","415","753429","0.0-3.0-1.342","<span style=""font-size:30px; font-family: monospace"">e</span>"," ","","exp-sent","e","","",""
"","2521","html-keyboard-response","416","756205","0.0-3.0-1.343","<span style=""font-size:30px; font-family: monospace"">sovina.</span>"," ","","comp","sovina.","","",""
"","4712","html-keyboard-response","417","761183","0.0-3.0-2.343-0.343","<span style=""font-size:30px; font-family: monospace"">Aquele menino é humilde?</span>","s","","comp","","Aquele menino é humilde?","não","false"
"","null","html-keyboard-response","418","762702","0.0-3.0-0.344-0.344","<span style= ""font-size:30px; font-family: monospace"">+</span>","null","fixation","","","","",""
"","3","html-keyboard-response","419","762971","0.0-3.0-1.344","<span style=""font-size:30px; font-family: monospace"">Este</span>"," ","","exp-sent","Este","","",""
"","341","html-keyboard-response","420","763564","0.0-3.0-1.345","<span style=""font-size:30px; font-family: monospace"">conto</span>"," ","","exp-sent","conto","","",""
"","491","html-keyboard-response","421","764320","0.0-3.0-1.346","<span style=""font-size:30px; font-family: monospace"">tem</span>"," ","","exp-sent","tem","","",""
"","308","html-keyboard-response","422","764881","0.0-3.0-1.347","<span style=""font-size:30px; font-family: monospace"">um</span>"," ","","exp-sent","um","","",""
"","408","html-keyboard-response","423","765547","0.0-3.0-1.348","<span style=""font-size:30px; font-family: monospace"">final</span>"," ","","exp-sent","final","","",""
"","587","html-keyboard-response","424","766390","0.0-3.0-1.349","<span style=""font-size:30px; font-family: monospace"">perfeito.</span>"," ","","exp-sent","perfeito.","","",""
"","null","html-keyboard-response","425","767661","0.0-3.0-0.350-0.350","<span style= ""font-size:30px; font-family: monospace"">+</span>","null","fixation","","","","",""
"","620","html-keyboard-response","426","768534","0.0-3.0-1.350","<span style=""font-size:30px; font-family: monospace"">Ele</span>"," ","","exp-sent","Ele","","",""
"","634","html-keyboard-response","427","769431","0.0-3.0-1.351","<span style=""font-size:30px; font-family: monospace"">precisa</span>"," ","","exp-sent","precisa","","",""
"","479","html-keyboard-response","428","770162","0.0-3.0-1.352","<span style=""font-size:30px; font-family: monospace"">de</span>"," ","","exp-sent","de","","",""
"","452","html-keyboard-response","429","770868","0.0-3.0-1.353","<span style=""font-size:30px; font-family: monospace"">um</span>"," ","","exp-sent","um","","",""
"","287","html-keyboard-response","430","771419","0.0-3.0-1.354","<span style=""font-size:30px; font-family: monospace"">protetor</span>"," ","","exp-sent","protetor","","",""
"","426","html-keyboard-response","431","772107","0.0-3.0-1.355","<span style=""font-size:30px; font-family: monospace"">de</span>"," ","","exp-sent","de","","",""
"","754","html-keyboard-response","432","773125","0.0-3.0-1.356","<span style=""font-size:30px; font-family: monospace"">ouvido.</span>"," ","","exp-sent","ouvido.","","",""
"","null","html-keyboard-response","433","774392","0.0-3.0-0.357-0.357","<span style= ""font-size:30px; font-family: monospace"">+</span>","null","fixation","","","","",""
"","355","html-keyboard-response","434","775000","0.0-3.0-1.357","<span style=""font-size:30px; font-family: monospace"">Os</span>"," ","","exp-sent","Os","","",""
"","475","html-keyboard-response","435","775729","0.0-3.0-1.358","<span style=""font-size:30px; font-family: monospace"">hábitos</span>"," ","","exp-sent","hábitos","","",""
"","521","html-keyboard-response","436","776505","0.0-3.0-1.359","<span style=""font-size:30px; font-family: monospace"">de</span>"," ","","exp-sent","de","","",""
"","478","html-keyboard-response","437","777240","0.0-3.0-1.360","<span style=""font-size:30px; font-family: monospace"">lugares</span>"," ","","exp-sent","lugares","","",""
"","673","html-keyboard-response","438","778168","0.0-3.0-1.361","<span style=""font-size:30px; font-family: monospace"">diferentes</span>"," ","","exp-sent","diferentes","","",""
"","428","html-keyboard-response","439","778856","0.0-3.0-1.362","<span style=""font-size:30px; font-family: monospace"">são</span>"," ","","exp-sent","são","","",""
"","455","html-keyboard-response","440","779569","0.0-3.0-1.363","<span style=""font-size:30px; font-family: monospace"">muito</span>"," ","","exp-sent","muito","","",""
"","804","html-keyboard-response","441","780632","0.0-3.0-1.364","<span style=""font-size:30px; font-family: monospace"">lindos.</span>"," ","","exp-sent","lindos.","","",""
"","null","html-keyboard-response","442","781901","0.0-3.0-0.365-0.365","<span style= ""font-size:30px; font-family: monospace"">+</span>","null","fixation","","","","",""
"","1153","html-keyboard-response","443","783313","0.0-3.0-1.365","<span style=""font-size:30px; font-family: monospace"">O</span>"," ","","exp-sent","O","","",""
"","2429","html-keyboard-response","444","786005","0.0-3.0-1.366","<span style=""font-size:30px; font-family: monospace"">médico</span>"," ","","exp-sent","médico","","",""
"","760","html-keyboard-response","445","787021","0.0-3.0-1.367","<span style=""font-size:30px; font-family: monospace"">corrigiu</span>"," ","","exp-sent","corrigiu","","",""
"","3730","html-keyboard-response","446","791004","0.0-3.0-1.368","<span style=""font-size:30px; font-family: monospace"">a</span>"," ","","exp-sent","a","","",""
"","1220","html-keyboard-response","447","792476","0.0-3.0-1.369","<span style=""font-size:30px; font-family: monospace"">postura</span>"," ","","exp-sent","postura","","",""
"","1138","html-keyboard-response","448","793881","0.0-3.0-1.370","<span style=""font-size:30px; font-family: monospace"">das</span>"," ","","exp-sent","das","","",""
"","1214","html-keyboard-response","449","795352","0.0-3.0-1.371","<span style=""font-size:30px; font-family: monospace"">costas</span>"," ","","exp-sent","costas","","",""
"","1532","html-keyboard-response","450","797139","0.0-3.0-1.372","<span style=""font-size:30px; font-family: monospace"">da</span>"," ","","exp-sent","da","","",""
"","953","html-keyboard-response","451","798355","0.0-3.0-1.373","<span style=""font-size:30px; font-family: monospace"">pessoa.</span>"," ","","exp-sent","pessoa.","","",""
"","null","html-keyboard-response","452","799629","0.0-3.0-0.374-0.374","<span style= ""font-size:30px; font-family: monospace"">+</span>","null","fixation","","","","",""
"","1039","html-keyboard-response","453","800924","0.0-3.0-1.374","<span style=""font-size:30px; font-family: monospace"">Aquele</span>"," ","","exp-sent","Aquele","","",""
"","303","html-keyboard-response","454","801487","0.0-3.0-1.375","<span style=""font-size:30px; font-family: monospace"">era</span>"," ","","exp-sent","era","","",""
"","3139","html-keyboard-response","455","804891","0.0-3.0-1.376","<span style=""font-size:30px; font-family: monospace"">um</span>"," ","","exp-sent","um","","",""
"","1505","html-keyboard-response","456","806656","0.0-3.0-1.377","<span style=""font-size:30px; font-family: monospace"">caso</span>"," ","","exp-sent","caso","","",""
"","219","html-keyboard-response","457","807139","0.0-3.0-1.378","<span style=""font-size:30px; font-family: monospace"">real</span>"," ","","exp-sent","real","","",""
"","502","html-keyboard-response","458","807901","0.0-3.0-1.379","<span style=""font-size:30px; font-family: monospace"">de</span>"," ","","exp-sent","de","","",""
"","1701","html-keyboard-response","459","809854","0.0-3.0-1.380","<span style=""font-size:30px; font-family: monospace"">sequestro</span>"," ","","exp-sent","sequestro","","",""
"","660","html-keyboard-response","460","810771","0.0-3.0-1.381","<span style=""font-size:30px; font-family: monospace"">premeditado.</span>"," ","","comp","premeditado.","","",""
"","4664","html-keyboard-response","461","815693","0.0-3.0-2.381-0.381","<span style=""font-size:30px; font-family: monospace"">Aquele era um caso real de roubo?</span>","n","","comp","","Aquele era um caso real de roubo?","não","false"
"","null","html-keyboard-response","462","817205","0.0-3.0-0.382-0.382","<span style= ""font-size:30px; font-family: monospace"">+</span>","null","fixation","","","","",""
"","364","html-keyboard-response","463","817823","0.0-3.0-1.382","<span style=""font-size:30px; font-family: monospace"">A</span>"," ","","exp-sent","A","","",""
"","743","html-keyboard-response","464","818820","0.0-3.0-1.383","<span style=""font-size:30px; font-family: monospace"">força</span>"," ","","exp-sent","força","","",""
"","1276","html-keyboard-response","465","820360","0.0-3.0-1.384","<span style=""font-size:30px; font-family: monospace"">d'água</span>"," ","","exp-sent","d'água","","",""
"","1672","html-keyboard-response","466","822284","0.0-3.0-1.385","<span style=""font-size:30px; font-family: monospace"">estava</span>"," ","","exp-sent","estava","","",""
"","1286","html-keyboard-response","467","823827","0.0-3.0-1.386","<span style=""font-size:30px; font-family: monospace"">normal</span>"," ","","exp-sent","normal","","",""
"","5312","html-keyboard-response","468","829419","0.0-3.0-1.387","<span style=""font-size:30px; font-family: monospace"">naquele</span>"," ","","exp-sent","naquele","","",""
"","1034","html-keyboard-response","469","830703","0.0-3.0-1.388","<span style=""font-size:30px; font-family: monospace"">dia.</span>"," ","","exp-sent","dia.","","",""
"","null","html-keyboard-response","470","831977","0.0-3.0-0.389-0.389","<span style= ""font-size:30px; font-family: monospace"">+</span>","null","fixation","","","","",""
"","764","html-keyboard-response","471","832999","0.0-3.0-1.389","<span style=""font-size:30px; font-family: monospace"">A</span>"," ","","exp-sent","A","","",""
"","1009","html-keyboard-response","472","834260","0.0-3.0-1.390","<span style=""font-size:30px; font-family: monospace"">médica</span>"," ","","exp-sent","médica","","",""
"","1519","html-keyboard-response","473","836041","0.0-3.0-1.391","<span style=""font-size:30px; font-family: monospace"">ofereceu</span>"," ","","exp-sent","ofereceu","","",""
"","932","html-keyboard-response","474","837234","0.0-3.0-1.392","<span style=""font-size:30px; font-family: monospace"">a</span>"," ","","exp-sent","a","","",""
"","1528","html-keyboard-response","475","839015","0.0-3.0-1.393","<span style=""font-size:30px; font-family: monospace"">pomada</span>"," ","","exp-sent","pomada","","",""
"","887","html-keyboard-response","476","840158","0.0-3.0-1.394","<span style=""font-size:30px; font-family: monospace"">para</span>"," ","","exp-sent","para","","",""
"","778","html-keyboard-response","477","841197","0.0-3.0-1.395","<span style=""font-size:30px; font-family: monospace"">o</span>"," ","","exp-sent","o","","",""
"","894","html-keyboard-response","478","842344","0.0-3.0-1.396","<span style=""font-size:30px; font-family: monospace"">avô.</span>"," ","","exp-sent","avô.","","",""
"","null","html-keyboard-response","479","843611","0.0-3.0-0.397-0.397","<span style= ""font-size:30px; font-family: monospace"">+</span>","null","fixation","","","","",""
"","788","html-keyboard-response","480","844659","0.0-3.0-1.397","<span style=""font-size:30px; font-family: monospace"">Ele</span>"," ","","exp-sent","Ele","","",""
"","2352","html-keyboard-response","481","847267","0.0-3.0-1.398","<span style=""font-size:30px; font-family: monospace"">conversou</span>"," ","","exp-sent","conversou","","",""
"","708","html-keyboard-response","482","848243","0.0-3.0-1.399","<span style=""font-size:30px; font-family: monospace"">com</span>"," ","","exp-sent","com","","",""
"","464","html-keyboard-response","483","848962","0.0-3.0-1.400","<span style=""font-size:30px; font-family: monospace"">o</span>"," ","","exp-sent","o","","",""
"","1487","html-keyboard-response","484","850715","0.0-3.0-1.401","<span style=""font-size:30px; font-family: monospace"">patrão</span>"," ","","exp-sent","patrão","","",""
"","1490","html-keyboard-response","485","852469","0.0-3.0-1.402","<span style=""font-size:30px; font-family: monospace"">durante</span>"," ","","exp-sent","durante","","",""
"","610","html-keyboard-response","486","853341","0.0-3.0-1.403","<span style=""font-size:30px; font-family: monospace"">a</span>"," ","","exp-sent","a","","",""
"","667","html-keyboard-response","487","854260","0.0-3.0-1.404","<span style=""font-size:30px; font-family: monospace"">tarde.</span>"," ","","exp-sent","tarde.","","",""
"","null","html-keyboard-response","488","855528","0.0-3.0-0.405-0.405","<span style= ""font-size:30px; font-family: monospace"">+</span>","null","fixation","","","","",""
"","1025","html-keyboard-response","489","856817","0.0-3.0-1.405","<span style=""font-size:30px; font-family: monospace"">Algumas</span>"," ","","exp-sent","Algumas","","",""
"","872","html-keyboard-response","490","857947","0.0-3.0-1.406","<span style=""font-size:30px; font-family: monospace"">pessoas</span>"," ","","exp-sent","pessoas","","",""
"","1446","html-keyboard-response","491","859657","0.0-3.0-1.407","<span style=""font-size:30px; font-family: monospace"">acreditam</span>"," ","","exp-sent","acreditam","","",""
"","961","html-keyboard-response","492","860870","0.0-3.0-1.408","<span style=""font-size:30px; font-family: monospace"">em</span>"," ","","exp-sent","em","","",""
"","2054","html-keyboard-response","493","863179","0.0-3.0-1.409","<span style=""font-size:30px; font-family: monospace"">espíritos</span>"," ","","exp-sent","espíritos","","",""
"","1093","html-keyboard-response","494","864533","0.0-3.0-1.410","<span style=""font-size:30px; font-family: monospace"">e</span>"," ","","exp-sent","e","","",""
"","1123","html-keyboard-response","495","865912","0.0-3.0-1.411","<span style=""font-size:30px; font-family: monospace"">em</span>"," ","","exp-sent","em","","",""
"","1309","html-keyboard-response","496","867488","0.0-3.0-1.412","<span style=""font-size:30px; font-family: monospace"">outras</span>"," ","","exp-sent","outras","","",""
"","1153","html-keyboard-response","497","868893","0.0-3.0-1.413","<span style=""font-size:30px; font-family: monospace"">vidas.</span>"," ","","exp-sent","vidas.","","",""
"","null","html-keyboard-response","498","870154","0.0-3.0-0.414-0.414","<span style= ""font-size:30px; font-family: monospace"">+</span>","null","fixation","","","","",""
"","880","html-keyboard-response","499","871303","0.0-3.0-1.414","<span style=""font-size:30px; font-family: monospace"">Ela</span>"," ","","exp-sent","Ela","","",""
"","1681","html-keyboard-response","500","873251","0.0-3.0-1.415","<span style=""font-size:30px; font-family: monospace"">gosta</span>"," ","","exp-sent","gosta","","",""
"","873","html-keyboard-response","501","874378","0.0-3.0-1.416","<span style=""font-size:30px; font-family: monospace"">de</span>"," ","","exp-sent","de","","",""
"","1213","html-keyboard-response","502","875851","0.0-3.0-1.417","<span style=""font-size:30px; font-family: monospace"">estudar</span>"," ","","exp-sent","estudar","","",""
"","1329","html-keyboard-response","503","877443","0.0-3.0-1.418","<span style=""font-size:30px; font-family: monospace"">matemática</span>"," ","","exp-sent","matemática","","",""
"","1041","html-keyboard-response","504","878747","0.0-3.0-1.419","<span style=""font-size:30px; font-family: monospace"">com</span>"," ","","exp-sent","com","","",""
"","1268","html-keyboard-response","505","880268","0.0-3.0-1.420","<span style=""font-size:30px; font-family: monospace"">colegas.</span>"," ","","comp","colegas.","","",""
"","5383","html-keyboard-response","506","885915","0.0-3.0-2.420-0.420","<span style=""font-size:30px; font-family: monospace"">Ela gosta de estudar física?</span>","n","","comp","","Ela gosta de estudar física?","não","false"
"","null","html-keyboard-response","507","887421","0.0-3.0-0.421-0.421","<span style= ""font-size:30px; font-family: monospace"">+</span>","null","fixation","","","","",""
"","252","html-keyboard-response","508","887927","0.0-3.0-1.421","<span style=""font-size:30px; font-family: monospace"">A</span>"," ","","exp-sent","A","","",""
"","1267","html-keyboard-response","509","889457","0.0-3.0-1.422","<span style=""font-size:30px; font-family: monospace"">senhora</span>"," ","","exp-sent","senhora","","",""
"","1085","html-keyboard-response","510","890804","0.0-3.0-1.423","<span style=""font-size:30px; font-family: monospace"">cumprimentou</span>"," ","","exp-sent","cumprimentou","","",""
"","524","html-keyboard-response","511","891584","0.0-3.0-1.424","<span style=""font-size:30px; font-family: monospace"">o</span>"," ","","exp-sent","o","","",""
"","1057","html-keyboard-response","512","892901","0.0-3.0-1.425","<span style=""font-size:30px; font-family: monospace"">operador</span>"," ","","exp-sent","operador","","",""
"","472","html-keyboard-response","513","893643","0.0-3.0-1.426","<span style=""font-size:30px; font-family: monospace"">de</span>"," ","","exp-sent","de","","",""
"","863","html-keyboard-response","514","894758","0.0-3.0-1.427","<span style=""font-size:30px; font-family: monospace"">caixa.</span>"," ","","exp-sent","caixa.","","",""
"","null","html-keyboard-response","515","896016","0.0-3.0-0.428-0.428","<span style= ""font-size:30px; font-family: monospace"">+</span>","null","fixation","","","","",""
"","1007","html-keyboard-response","516","897288","0.0-3.0-1.428","<span style=""font-size:30px; font-family: monospace"">A</span>"," ","","exp-sent","A","","",""
"","1167","html-keyboard-response","517","898708","0.0-3.0-1.429","<span style=""font-size:30px; font-family: monospace"">gente</span>"," ","","exp-sent","gente","","",""
"","1110","html-keyboard-response","518","900082","0.0-3.0-1.430","<span style=""font-size:30px; font-family: monospace"">viu</span>"," ","","exp-sent","viu","","",""
"","526","html-keyboard-response","519","900870","0.0-3.0-1.431","<span style=""font-size:30px; font-family: monospace"">o</span>"," ","","exp-sent","o","","",""
"","587","html-keyboard-response","520","901709","0.0-3.0-1.432","<span style=""font-size:30px; font-family: monospace"">eclipse</span>"," ","","exp-sent","eclipse","","",""
"","667","html-keyboard-response","521","902638","0.0-3.0-1.433","<span style=""font-size:30px; font-family: monospace"">lunar</span>"," ","","exp-sent","lunar","","",""
"","585","html-keyboard-response","522","903475","0.0-3.0-1.434","<span style=""font-size:30px; font-family: monospace"">durante</span>"," ","","exp-sent","durante","","",""
"","497","html-keyboard-response","523","904232","0.0-3.0-1.435","<span style=""font-size:30px; font-family: monospace"">o</span>"," ","","exp-sent","o","","",""
"","507","html-keyboard-response","524","905007","0.0-3.0-1.436","<span style=""font-size:30px; font-family: monospace"">dia.</span>"," ","","exp-sent","dia.","","",""
"","null","html-keyboard-response","525","906274","0.0-3.0-0.437-0.437","<span style= ""font-size:30px; font-family: monospace"">+</span>","null","fixation","","","","",""
"","524","html-keyboard-response","526","907060","0.0-3.0-1.437","<span style=""font-size:30px; font-family: monospace"">A</span>"," ","","exp-sent","A","","",""
"","1403","html-keyboard-response","527","908723","0.0-3.0-1.438","<span style=""font-size:30px; font-family: monospace"">mordida</span>"," ","","exp-sent","mordida","","",""
"","1346","html-keyboard-response","528","910331","0.0-3.0-1.439","<span style=""font-size:30px; font-family: monospace"">do</span>"," ","","exp-sent","do","","",""
"","3840","html-keyboard-response","529","914425","0.0-3.0-1.440","<span style=""font-size:30px; font-family: monospace"">cachorro</span>"," ","","exp-sent","cachorro","","",""
"","1637","html-keyboard-response","530","916323","0.0-3.0-1.441","<span style=""font-size:30px; font-family: monospace"">voraz</span>"," ","","exp-sent","voraz","","",""
"","2021","html-keyboard-response","531","918603","0.0-3.0-1.442","<span style=""font-size:30px; font-family: monospace"">causou</span>"," ","","exp-sent","causou","","",""
"","1011","html-keyboard-response","532","919875","0.0-3.0-1.443","<span style=""font-size:30px; font-family: monospace"">uma</span>"," ","","exp-sent","uma","","",""
"","1736","html-keyboard-response","533","921865","0.0-3.0-1.444","<span style=""font-size:30px; font-family: monospace"">cicatriz.</span>"," ","","exp-sent","cicatriz.","","",""
"","null","html-keyboard-response","534","923151","0.0-3.0-0.445-0.445","<span style= ""font-size:30px; font-family: monospace"">+</span>","null","fixation","","","","",""
"","1150","html-keyboard-response","535","924566","0.0-3.0-1.445","<span style=""font-size:30px; font-family: monospace"">Elas</span>"," ","","exp-sent","Elas","","",""
"","774","html-keyboard-response","536","925598","0.0-3.0-1.446","<span style=""font-size:30px; font-family: monospace"">não</span>"," ","","exp-sent","não","","",""
"","631","html-keyboard-response","537","926492","0.0-3.0-1.447","<span style=""font-size:30px; font-family: monospace"">viram</span>"," ","","exp-sent","viram","","",""
"","1098","html-keyboard-response","538","927844","0.0-3.0-1.448","<span style=""font-size:30px; font-family: monospace"">nenhuma</span>"," ","","exp-sent","nenhuma","","",""
"","833","html-keyboard-response","539","928929","0.0-3.0-1.449","<span style=""font-size:30px; font-family: monospace"">diferença</span>"," ","","exp-sent","diferença","","",""
"","717","html-keyboard-response","540","929911","0.0-3.0-1.450","<span style=""font-size:30px; font-family: monospace"">entre</span>"," ","","exp-sent","entre","","",""
"","498","html-keyboard-response","541","930666","0.0-3.0-1.451","<span style=""font-size:30px; font-family: monospace"">os</span>"," ","","exp-sent","os","","",""
"","791","html-keyboard-response","542","931711","0.0-3.0-1.452","<span style=""font-size:30px; font-family: monospace"">textos.</span>"," ","","exp-sent","textos.","","",""
"","null","html-keyboard-response","543","932980","0.0-3.0-0.453-0.453","<span style= ""font-size:30px; font-family: monospace"">+</span>","null","fixation","","","","",""
"","956","html-keyboard-response","544","934197","0.0-3.0-1.453","<span style=""font-size:30px; font-family: monospace"">Amanhã</span>"," ","","exp-sent","Amanhã","","",""
"","927","html-keyboard-response","545","935384","0.0-3.0-1.454","<span style=""font-size:30px; font-family: monospace"">vai</span>"," ","","exp-sent","vai","","",""
"","833","html-keyboard-response","546","936487","0.0-3.0-1.455","<span style=""font-size:30px; font-family: monospace"">ter</span>"," ","","exp-sent","ter","","",""
"","748","html-keyboard-response","547","937492","0.0-3.0-1.456","<span style=""font-size:30px; font-family: monospace"">um</span>"," ","","exp-sent","um","","",""
"","1682","html-keyboard-response","548","939443","0.0-3.0-1.457","<span style=""font-size:30px; font-family: monospace"">bazar</span>"," ","","exp-sent","bazar","","",""
"","915","html-keyboard-response","549","940612","0.0-3.0-1.458","<span style=""font-size:30px; font-family: monospace"">no</span>"," ","","exp-sent","no","","",""
"","1168","html-keyboard-response","550","942047","0.0-3.0-1.459","<span style=""font-size:30px; font-family: monospace"">bairro.</span>"," ","","comp","bairro.","","",""
"","5140","html-keyboard-response","551","947444","0.0-3.0-2.459-0.459","<span style=""font-size:30px; font-family: monospace"">Amanhã vai acontecer um bazar no bairro?</span>","s","","comp","","Amanhã vai acontecer um bazar no bairro?","sim","false"
"","null","html-keyboard-response","552","948959","0.0-3.0-0.460-0.460","<span style= ""font-size:30px; font-family: monospace"">+</span>","null","fixation","","","","",""
"","1392","html-keyboard-response","553","950608","0.0-3.0-1.460","<span style=""font-size:30px; font-family: monospace"">Eu</span>"," ","","exp-sent","Eu","","",""
"","763","html-keyboard-response","554","951640","0.0-3.0-1.461","<span style=""font-size:30px; font-family: monospace"">gosto</span>"," ","","exp-sent","gosto","","",""
"","584","html-keyboard-response","555","952501","0.0-3.0-1.462","<span style=""font-size:30px; font-family: monospace"">de</span>"," ","","exp-sent","de","","",""
"","887","html-keyboard-response","556","953653","0.0-3.0-1.463","<span style=""font-size:30px; font-family: monospace"">molho</span>"," ","","exp-sent","molho","","",""
"","2140","html-keyboard-response","557","956051","0.0-3.0-1.464","<span style=""font-size:30px; font-family: monospace"">picante</span>"," ","","exp-sent","picante","","",""
"","801","html-keyboard-response","558","957103","0.0-3.0-1.465","<span style=""font-size:30px; font-family: monospace"">nas</span>"," ","","exp-sent","nas","","",""
"","1839","html-keyboard-response","559","959201","0.0-3.0-1.466","<span style=""font-size:30px; font-family: monospace"">batatas.</span>"," ","","exp-sent","batatas.","","",""
"","null","html-keyboard-response","560","960476","0.0-3.0-0.467-0.467","<span style= ""font-size:30px; font-family: monospace"">+</span>","null","fixation","","","","",""
"","727","html-keyboard-response","561","961456","0.0-3.0-1.467","<span style=""font-size:30px; font-family: monospace"">As</span>"," ","","exp-sent","As","","",""
"","835","html-keyboard-response","562","962562","0.0-3.0-1.468","<span style=""font-size:30px; font-family: monospace"">pessoas</span>"," ","","exp-sent","pessoas","","",""
"","561","html-keyboard-response","563","963383","0.0-3.0-1.469","<span style=""font-size:30px; font-family: monospace"">têm</span>"," ","","exp-sent","têm","","",""
"","751","html-keyboard-response","564","964395","0.0-3.0-1.470","<span style=""font-size:30px; font-family: monospace"">sua</span>"," ","","exp-sent","sua","","",""
"","1208","html-keyboard-response","565","965869","0.0-3.0-1.471","<span style=""font-size:30px; font-family: monospace"">liberdade</span>"," ","","exp-sent","liberdade","","",""
"","704","html-keyboard-response","566","966834","0.0-3.0-1.472","<span style=""font-size:30px; font-family: monospace"">até</span>"," ","","exp-sent","até","","",""
"","924","html-keyboard-response","567","968019","0.0-3.0-1.473","<span style=""font-size:30px; font-family: monospace"">certo</span>"," ","","exp-sent","certo","","",""
"","794","html-keyboard-response","568","969070","0.0-3.0-1.474","<span style=""font-size:30px; font-family: monospace"">ponto.</span>"," ","","exp-sent","ponto.","","",""
"","null","html-keyboard-response","569","970339","0.0-3.0-0.475-0.475","<span style= ""font-size:30px; font-family: monospace"">+</span>","null","fixation","","","","",""
"","857","html-keyboard-response","570","971451","0.0-3.0-1.475","<span style=""font-size:30px; font-family: monospace"">A</span>"," ","","exp-sent","A","","",""
"","1279","html-keyboard-response","571","972986","0.0-3.0-1.476","<span style=""font-size:30px; font-family: monospace"">empresa</span>"," ","","exp-sent","empresa","","",""
"","1201","html-keyboard-response","572","974450","0.0-3.0-1.477","<span style=""font-size:30px; font-family: monospace"">enviou</span>"," ","","exp-sent","enviou","","",""
"","803","html-keyboard-response","573","975511","0.0-3.0-1.478","<span style=""font-size:30px; font-family: monospace"">o</span>"," ","","exp-sent","o","","",""
"","1088","html-keyboard-response","574","976871","0.0-3.0-1.479","<span style=""font-size:30px; font-family: monospace"">aviso</span>"," ","","exp-sent","aviso","","",""
"","636","html-keyboard-response","575","977761","0.0-3.0-1.480","<span style=""font-size:30px; font-family: monospace"">hoje</span>"," ","","exp-sent","hoje","","",""
"","610","html-keyboard-response","576","978631","0.0-3.0-1.481","<span style=""font-size:30px; font-family: monospace"">de</span>"," ","","exp-sent","de","","",""
"","755","html-keyboard-response","577","979646","0.0-3.0-1.482","<span style=""font-size:30px; font-family: monospace"">tarde.</span>"," ","","exp-sent","tarde.","","",""
"","null","html-keyboard-response","578","980918","0.0-3.0-0.483-0.483","<span style= ""font-size:30px; font-family: monospace"">+</span>","null","fixation","","","","",""
"","785","html-keyboard-response","579","981969","0.0-3.0-1.483","<span style=""font-size:30px; font-family: monospace"">A</span>"," ","","exp-sent","A","","",""
"","891","html-keyboard-response","580","983127","0.0-3.0-1.484","<span style=""font-size:30px; font-family: monospace"">loja</span>"," ","","exp-sent","loja","","",""
"","763","html-keyboard-response","581","984149","0.0-3.0-1.485","<span style=""font-size:30px; font-family: monospace"">vende</span>"," ","","exp-sent","vende","","",""
"","741","html-keyboard-response","582","985144","0.0-3.0-1.486","<span style=""font-size:30px; font-family: monospace"">tanto</span>"," ","","exp-sent","tanto","","",""
"","1581","html-keyboard-response","583","986979","0.0-3.0-1.487","<span style=""font-size:30px; font-family: monospace"">frituras</span>"," ","","exp-sent","frituras","","",""
