[
	{
		"view_history": [
			{
				"page_index": 0,
				"viewing_time": 8810
			}
		],
		"rt": 8810,
		"trial_type": "instructions",
		"trial_index": 0,
		"time_elapsed": 8816,
		"internal_node_id": "0.0-0.0"
	},
	{
		"rt": 167625,
		"response": {
			"reading_habits_printed_magazines": "Nunca",
			"reading_habits_printed_newspapers": "Nunca",
			"reading_habits_books": "Alguns dias da semana",
			"reading_habits_printed_socialmedias": "Todos os dias"
		},
		"question_order": [
			0,
			1,
			2,
			3
		],
		"trial_type": "survey-multi-choice",
		"trial_index": 1,
		"time_elapsed": 176555,
		"internal_node_id": "0.0-1.0"
	},
	{
		"rt": 204124,
		"response": {
			"reading_habits_virtual_magazines": "Uma vez por semana",
			"reading_habits_virtual_newspapers": "Uma vez por semana",
			"reading_habits_books": "Raramente",
			"reading_habits_virtual_socialmedias": "Todos os dias"
		},
		"question_order": [
			0,
			1,
			2,
			3
		],
		"trial_type": "survey-multi-choice",
		"trial_index": 2,
		"time_elapsed": 380792,
		"internal_node_id": "0.0-2.0"
	},
	{
		"rt": 44051,
		"response": {
			"reading_habits_other_which": "livro didático",
			"reading_habits_other_frequency": "uma vez por semana"
		},
		"trial_type": "survey-text",
		"trial_index": 3,
		"time_elapsed": 424968,
		"internal_node_id": "0.0-3.0"
	}
]