"view_history","rt","trial_type","trial_index","time_elapsed","internal_node_id","stimulus","response","class","status","answer","correct","trial","letters"
"[{""page_index"":0,""viewing_time"":2409}]","2409","instructions","0","2411","0.0-0.0","","","","","","","",""
"","null","html-keyboard-response","1","3035","0.0-1.0-0.0","+","null","","","","","",""
"","1521","html-keyboard-response","2","4560","0.0-1.0-1.0","crante","s","null","noncog","pseudo","N","prac","null"
"","null","html-keyboard-response","3","5070","0.0-1.0-0.1","+","null","","","","","",""
"","1783","html-keyboard-response","4","6854","0.0-1.0-1.1","oliva","s","null","cog","word","S","prac","null"
"","null","html-keyboard-response","5","7360","0.0-1.0-0.2","+","null","","","","","",""
"","1653","html-keyboard-response","6","9014","0.0-1.0-1.2","órgão","n","null","noncog","word","S","prac","null"
"","null","html-keyboard-response","7","9529","0.0-1.0-0.3","+","null","","","","","",""
"","1906","html-keyboard-response","8","11437","0.0-1.0-1.3","calmaria","n","null","noncog","word","S","prac","null"
"","null","html-keyboard-response","9","11950","0.0-1.0-0.4","+","null","","","","","",""
"","1334","html-keyboard-response","10","13287","0.0-1.0-1.4","daja","n","null","noncog","pseudo","N","prac","null"
"","null","html-keyboard-response","11","13792","0.0-1.0-0.5","+","null","","","","","",""
"","1367","html-keyboard-response","12","15161","0.0-1.0-1.5","plibar","s","null","noncog","pseudo","N","prac","null"
"","null","html-keyboard-response","13","15675","0.0-1.0-0.6","+","null","","","","","",""
"","1304","html-keyboard-response","14","16980","0.0-1.0-1.6","chassi","s","null","cog","word","S","prac","null"
"[{""page_index"":0,""viewing_time"":28605}]","28605","instructions","15","45587","0.0-2.0","","","","","","","",""
"","null","html-keyboard-response","16","46207","0.0-3.0-0.0","+","null","","","","","",""
"","2308","html-keyboard-response","17","48515","0.0-3.0-1.0","terdia","s","null","noncog","pseudo","N","exp","null"
"","null","html-keyboard-response","18","49019","0.0-3.0-0.1","+","null","","","","","",""
"","2375","html-keyboard-response","19","51395","0.0-3.0-1.1","afual","n","null","noncog","pseudo","N","exp","null"
"","null","html-keyboard-response","20","51906","0.0-3.0-0.2","+","null","","","","","",""
"","1222","html-keyboard-response","21","53129","0.0-3.0-1.2","grátis","s","a","cog","word","S","exp","6"
"","null","html-keyboard-response","22","53638","0.0-3.0-0.3","+","null","","","","","",""
"","1446","html-keyboard-response","23","55085","0.0-3.0-1.3","pedaço","s","n","noncog","word","S","exp","6"
"","null","html-keyboard-response","24","55588","0.0-3.0-0.4","+","null","","","","","",""
"","1118","html-keyboard-response","25","56709","0.0-3.0-1.4","animado","s","a","noncog","word","S","exp","7"
"","null","html-keyboard-response","26","57220","0.0-3.0-0.5","+","null","","","","","",""
"","1692","html-keyboard-response","27","58912","0.0-3.0-1.5","motros","s","null","noncog","pseudo","N","exp","null"
"","null","html-keyboard-response","28","59424","0.0-3.0-0.6","+","null","","","","","",""
"","1662","html-keyboard-response","29","61087","0.0-3.0-1.6","alpica","n","null","noncog","pseudo","N","exp","null"
"","null","html-keyboard-response","30","61604","0.0-3.0-0.7","+","null","","","","","",""
"","1570","html-keyboard-response","31","63175","0.0-3.0-1.7","glória","s","n","cog","word","S","exp","6"
"","null","html-keyboard-response","32","63690","0.0-3.0-0.8","+","null","","","","","",""
"","1425","html-keyboard-response","33","65116","0.0-3.0-1.8","salpicado","n","a","noncog","word","S","exp","9"
"","null","html-keyboard-response","34","65628","0.0-3.0-0.9","+","null","","","","","",""
"","1310","html-keyboard-response","35","66939","0.0-3.0-1.9","tronca","s","null","noncog","pseudo","N","exp","null"
"","null","html-keyboard-response","36","67452","0.0-3.0-0.10","+","null","","","","","",""
"","957","html-keyboard-response","37","68412","0.0-3.0-1.10","filme","s","n","cog","word","S","exp","5"
"","null","html-keyboard-response","38","68921","0.0-3.0-0.11","+","null","","","","","",""
"","1125","html-keyboard-response","39","70048","0.0-3.0-1.11","apontar","n","v","noncog","word","S","exp","7"
"","null","html-keyboard-response","40","70559","0.0-3.0-0.12","+","null","","","","","",""
"","1403","html-keyboard-response","41","71964","0.0-3.0-1.12","âgnulo","s","null","noncog","pseudo","N","exp","null"
"","null","html-keyboard-response","42","72475","0.0-3.0-0.13","+","null","","","","","",""
"","1002","html-keyboard-response","43","73480","0.0-3.0-1.13","tela","s","n","noncog","word","S","exp","4"
"","null","html-keyboard-response","44","73995","0.0-3.0-0.14","+","null","","","","","",""
"","1508","html-keyboard-response","45","75507","0.0-3.0-1.14","cascata","n","n","noncog","word","S","exp","7"
"","null","html-keyboard-response","46","76023","0.0-3.0-0.15","+","null","","","","","",""
"","1797","html-keyboard-response","47","77821","0.0-3.0-1.15","crolatário","n","null","noncog","pseudo","N","exp","null"
"","null","html-keyboard-response","48","78329","0.0-3.0-0.16","+","null","","","","","",""
"","1326","html-keyboard-response","49","79657","0.0-3.0-1.16","fofo","s","a","noncog","word","S","exp","4"
"","null","html-keyboard-response","50","80159","0.0-3.0-0.17","+","null","","","","","",""
"","1531","html-keyboard-response","51","81692","0.0-3.0-1.17","taberia","s","null","noncog","pseudo","N","exp","null"
"","null","html-keyboard-response","52","82194","0.0-3.0-0.18","+","null","","","","","",""
"","1719","html-keyboard-response","53","83915","0.0-3.0-1.18","resmungar","s","v","noncog","word","S","exp","9"
"","null","html-keyboard-response","54","84420","0.0-3.0-0.19","+","null","","","","","",""
"","1574","html-keyboard-response","55","85996","0.0-3.0-1.19","arranjar","s","v","cog","word","S","exp","8"
"","null","html-keyboard-response","56","86499","0.0-3.0-0.20","+","null","","","","","",""
"","1204","html-keyboard-response","57","87704","0.0-3.0-1.20","oper","n","null","noncog","pseudo","N","exp","null"
"","null","html-keyboard-response","58","88208","0.0-3.0-0.21","+","null","","","","","",""
"","1422","html-keyboard-response","59","89632","0.0-3.0-1.21","prantal","s","null","noncog","pseudo","N","exp","null"
"","null","html-keyboard-response","60","90148","0.0-3.0-0.22","+","null","","","","","",""
"","1104","html-keyboard-response","61","91252","0.0-3.0-1.22","delirar","s","v","noncog","word","S","exp","7"
"","null","html-keyboard-response","62","91759","0.0-3.0-0.23","+","null","","","","","",""
"","1698","html-keyboard-response","63","93458","0.0-3.0-1.23","bachir","s","null","noncog","pseudo","N","exp","null"
"","null","html-keyboard-response","64","93962","0.0-3.0-0.24","+","null","","","","","",""
"","1340","html-keyboard-response","65","95304","0.0-3.0-1.24","agressivo","s","a","cog","word","S","exp","9"
"","null","html-keyboard-response","66","95807","0.0-3.0-0.25","+","null","","","","","",""
"","1247","html-keyboard-response","67","97056","0.0-3.0-1.25","gertas","s","null","noncog","pseudo","N","exp","null"
"","null","html-keyboard-response","68","97575","0.0-3.0-0.26","+","null","","","","","",""
"","1641","html-keyboard-response","69","99217","0.0-3.0-1.26","enedro","s","null","noncog","pseudo","N","exp","null"
"","null","html-keyboard-response","70","99719","0.0-3.0-0.27","+","null","","","","","",""
"","807","html-keyboard-response","71","100527","0.0-3.0-1.27","livro","s","n","cog","word","S","exp","5"
"","null","html-keyboard-response","72","101035","0.0-3.0-0.28","+","null","","","","","",""
"","998","html-keyboard-response","73","102034","0.0-3.0-1.28","alfabeto","s","n","cog","word","S","exp","8"
"","null","html-keyboard-response","74","102548","0.0-3.0-0.29","+","null","","","","","",""
"","2540","html-keyboard-response","75","105090","0.0-3.0-1.29","distraído","s","a","cog","word","S","exp","9"
"","null","html-keyboard-response","76","105595","0.0-3.0-0.30","+","null","","","","","",""
"","954","html-keyboard-response","77","106551","0.0-3.0-1.30","verdade","s","n","cog","word","S","exp","7"
"","null","html-keyboard-response","78","107058","0.0-3.0-0.31","+","null","","","","","",""
"","1105","html-keyboard-response","79","108165","0.0-3.0-1.31","carona","s","n","noncog","word","S","exp","6"
"","null","html-keyboard-response","80","108667","0.0-3.0-0.32","+","null","","","","","",""
"","1146","html-keyboard-response","81","109812","0.0-3.0-1.32","dipata","n","null","noncog","pseudo","N","exp","null"
"","null","html-keyboard-response","82","110327","0.0-3.0-0.33","+","null","","","","","",""
"","1141","html-keyboard-response","83","111468","0.0-3.0-1.33","jastor","n","null","noncog","pseudo","N","exp","null"
"","null","html-keyboard-response","84","111972","0.0-3.0-0.34","+","null","","","","","",""
"","764","html-keyboard-response","85","112735","0.0-3.0-1.34","país","s","n","noncog","word","S","exp","4"
"","null","html-keyboard-response","86","113243","0.0-3.0-0.35","+","null","","","","","",""
"","1394","html-keyboard-response","87","114637","0.0-3.0-1.35","incomodar","s","v","noncog","word","S","exp","9"
"","null","html-keyboard-response","88","115140","0.0-3.0-0.36","+","null","","","","","",""
"","1735","html-keyboard-response","89","116876","0.0-3.0-1.36","franda","s","null","noncog","pseudo","N","exp","null"
"","null","html-keyboard-response","90","117383","0.0-3.0-0.37","+","null","","","","","",""
"","1396","html-keyboard-response","91","118781","0.0-3.0-1.37","disbrituir","s","null","noncog","pseudo","N","exp","null"
"","null","html-keyboard-response","92","119292","0.0-3.0-0.38","+","null","","","","","",""
"","1384","html-keyboard-response","93","120678","0.0-3.0-1.38","gilha","n","null","noncog","pseudo","N","exp","null"
"","null","html-keyboard-response","94","121189","0.0-3.0-0.39","+","null","","","","","",""
"","1066","html-keyboard-response","95","122255","0.0-3.0-1.39","esperar","s","v","cog","word","S","exp","7"
"","null","html-keyboard-response","96","122761","0.0-3.0-0.40","+","null","","","","","",""
"","1678","html-keyboard-response","97","124440","0.0-3.0-1.40","nevela","n","null","noncog","pseudo","N","exp","null"
"","null","html-keyboard-response","98","124950","0.0-3.0-0.41","+","null","","","","","",""
"","1789","html-keyboard-response","99","126739","0.0-3.0-1.41","senareta","n","null","noncog","pseudo","N","exp","null"
"","null","html-keyboard-response","100","127261","0.0-3.0-0.42","+","null","","","","","",""
"","1448","html-keyboard-response","101","128709","0.0-3.0-1.42","revear","n","null","noncog","pseudo","N","exp","null"
"","null","html-keyboard-response","102","129221","0.0-3.0-0.43","+","null","","","","","",""
"","1330","html-keyboard-response","103","130550","0.0-3.0-1.43","memória","s","n","cog","word","S","exp","7"
"","null","html-keyboard-response","104","131063","0.0-3.0-0.44","+","null","","","","","",""
"","1309","html-keyboard-response","105","132372","0.0-3.0-1.44","costra","s","null","noncog","pseudo","N","exp","null"
"","null","html-keyboard-response","106","132882","0.0-3.0-0.45","+","null","","","","","",""
"","988","html-keyboard-response","107","133872","0.0-3.0-1.45","trabalhar","s","v","noncog","word","S","exp","9"
"","null","html-keyboard-response","108","134389","0.0-3.0-0.46","+","null","","","","","",""
"","1475","html-keyboard-response","109","135865","0.0-3.0-1.46","oricia","n","null","noncog","pseudo","N","exp","null"
"","null","html-keyboard-response","110","136373","0.0-3.0-0.47","+","null","","","","","",""
"","1058","html-keyboard-response","111","137431","0.0-3.0-1.47","hébies","n","null","noncog","pseudo","N","exp","null"
"","null","html-keyboard-response","112","137945","0.0-3.0-0.48","+","null","","","","","",""
"","1156","html-keyboard-response","113","139102","0.0-3.0-1.48","morar","n","v","noncog","word","S","exp","5"
"","null","html-keyboard-response","114","139613","0.0-3.0-0.49","+","null","","","","","",""
"","1423","html-keyboard-response","115","141039","0.0-3.0-1.49","escumo","n","null","noncog","pseudo","N","exp","null"
"","null","html-keyboard-response","116","141547","0.0-3.0-0.50","+","null","","","","","",""
"","1164","html-keyboard-response","117","142711","0.0-3.0-1.50","undivídio","n","null","noncog","pseudo","N","exp","null"
"","null","html-keyboard-response","118","143221","0.0-3.0-0.51","+","null","","","","","",""
"","1717","html-keyboard-response","119","144940","0.0-3.0-1.51","manais","n","null","noncog","pseudo","N","exp","null"
"","null","html-keyboard-response","120","145442","0.0-3.0-0.52","+","null","","","","","",""
"","1223","html-keyboard-response","121","146664","0.0-3.0-1.52","mabras","n","null","noncog","pseudo","N","exp","null"
"","null","html-keyboard-response","122","147172","0.0-3.0-0.53","+","null","","","","","",""
"","1424","html-keyboard-response","123","148597","0.0-3.0-1.53","comércio","s","n","noncog","word","S","exp","8"
"","null","html-keyboard-response","124","149107","0.0-3.0-0.54","+","null","","","","","",""
"","959","html-keyboard-response","125","150067","0.0-3.0-1.54","ilhure","n","null","noncog","pseudo","N","exp","null"
"","null","html-keyboard-response","126","150579","0.0-3.0-0.55","+","null","","","","","",""
"","1258","html-keyboard-response","127","151839","0.0-3.0-1.55","jantar","s","v","noncog","word","S","exp","6"
"","null","html-keyboard-response","128","152351","0.0-3.0-0.56","+","null","","","","","",""
"","1275","html-keyboard-response","129","153627","0.0-3.0-1.56","atapdar","n","null","noncog","pseudo","N","exp","null"
"","null","html-keyboard-response","130","154140","0.0-3.0-0.57","+","null","","","","","",""
"","946","html-keyboard-response","131","155088","0.0-3.0-1.57","multiplicar","s","v","cog","word","S","exp","11"
"","null","html-keyboard-response","132","155602","0.0-3.0-0.58","+","null","","","","","",""
"","1406","html-keyboard-response","133","157009","0.0-3.0-1.58","crutas","n","null","noncog","pseudo","N","exp","null"
"","null","html-keyboard-response","134","157514","0.0-3.0-0.59","+","null","","","","","",""
"","1846","html-keyboard-response","135","159363","0.0-3.0-1.59","candifência","n","null","noncog","pseudo","N","exp","null"
"","null","html-keyboard-response","136","159877","0.0-3.0-0.60","+","null","","","","","",""
"","1295","html-keyboard-response","137","161173","0.0-3.0-1.60","perbas","n","null","noncog","pseudo","N","exp","null"
"","null","html-keyboard-response","138","161688","0.0-3.0-0.61","+","null","","","","","",""
"","1381","html-keyboard-response","139","163070","0.0-3.0-1.61","boreta","s","null","noncog","pseudo","N","exp","null"
"","null","html-keyboard-response","140","163583","0.0-3.0-0.62","+","null","","","","","",""
"","1047","html-keyboard-response","141","164630","0.0-3.0-1.62","risbos","n","null","noncog","pseudo","N","exp","null"
"","null","html-keyboard-response","142","165136","0.0-3.0-0.63","+","null","","","","","",""
"","1315","html-keyboard-response","143","166452","0.0-3.0-1.63","fasdas","n","null","noncog","pseudo","N","exp","null"
"","null","html-keyboard-response","144","166957","0.0-3.0-0.64","+","null","","","","","",""
"","2064","html-keyboard-response","145","169021","0.0-3.0-1.64","filosofia","s","n","cog","word","S","exp","9"
"","null","html-keyboard-response","146","169526","0.0-3.0-0.65","+","null","","","","","",""
"","2361","html-keyboard-response","147","171888","0.0-3.0-1.65","atrasar","s","v","noncog","word","S","exp","7"
"","null","html-keyboard-response","148","172410","0.0-3.0-0.66","+","null","","","","","",""
"","1074","html-keyboard-response","149","173485","0.0-3.0-1.66","grótis","s","null","noncog","pseudo","N","exp","null"
"","null","html-keyboard-response","150","173996","0.0-3.0-0.67","+","null","","","","","",""
"","1360","html-keyboard-response","151","175358","0.0-3.0-1.67","faínas","n","null","noncog","pseudo","N","exp","null"
"","null","html-keyboard-response","152","175869","0.0-3.0-0.68","+","null","","","","","",""
"","1645","html-keyboard-response","153","177516","0.0-3.0-1.68","enxarto","s","null","noncog","pseudo","N","exp","null"
"","null","html-keyboard-response","154","178035","0.0-3.0-0.69","+","null","","","","","",""
"","1910","html-keyboard-response","155","179945","0.0-3.0-1.69","telafonir","s","null","noncog","pseudo","N","exp","null"
"","null","html-keyboard-response","156","180460","0.0-3.0-0.70","+","null","","","","","",""
"","907","html-keyboard-response","157","181369","0.0-3.0-1.70","azul","s","n","noncog","word","S","exp","4"
"","null","html-keyboard-response","158","181884","0.0-3.0-0.71","+","null","","","","","",""
"","1243","html-keyboard-response","159","183128","0.0-3.0-1.71","manfa","n","null","noncog","pseudo","N","exp","null"
"","null","html-keyboard-response","160","183638","0.0-3.0-0.72","+","null","","","","","",""
"","1825","html-keyboard-response","161","185463","0.0-3.0-1.72","planalto","s","n","cog","word","S","exp","8"
"","null","html-keyboard-response","162","185970","0.0-3.0-0.73","+","null","","","","","",""
"","2937","html-keyboard-response","163","188908","0.0-3.0-1.73","quenzina","n","null","noncog","pseudo","N","exp","null"
"","null","html-keyboard-response","164","189415","0.0-3.0-0.74","+","null","","","","","",""
"","1440","html-keyboard-response","165","190855","0.0-3.0-1.74","pimada","s","null","noncog","pseudo","N","exp","null"
"","null","html-keyboard-response","166","191370","0.0-3.0-0.75","+","null","","","","","",""
"","1018","html-keyboard-response","167","192389","0.0-3.0-1.75","fratos","n","null","noncog","pseudo","N","exp","null"
"","null","html-keyboard-response","168","192899","0.0-3.0-0.76","+","null","","","","","",""
"","1124","html-keyboard-response","169","194024","0.0-3.0-1.76","selir","n","null","noncog","pseudo","N","exp","null"
"","null","html-keyboard-response","170","194526","0.0-3.0-0.77","+","null","","","","","",""
"","1306","html-keyboard-response","171","195834","0.0-3.0-1.77","montanha","s","n","cog","word","S","exp","8"
"","null","html-keyboard-response","172","196349","0.0-3.0-0.78","+","null","","","","","",""
"","1202","html-keyboard-response","173","197552","0.0-3.0-1.78","avenas","s","null","noncog","pseudo","N","exp","null"
"","null","html-keyboard-response","174","198056","0.0-3.0-0.79","+","null","","","","","",""
"","1057","html-keyboard-response","175","199113","0.0-3.0-1.79","liberal","s","a","cog","word","S","exp","7"
"","null","html-keyboard-response","176","199619","0.0-3.0-0.80","+","null","","","","","",""
"","1510","html-keyboard-response","177","201130","0.0-3.0-1.80","morija","n","null","noncog","pseudo","N","exp","null"
"","null","html-keyboard-response","178","201639","0.0-3.0-0.81","+","null","","","","","",""
"","1806","html-keyboard-response","179","203447","0.0-3.0-1.81","macras","n","null","noncog","pseudo","N","exp","null"
"","null","html-keyboard-response","180","203959","0.0-3.0-0.82","+","null","","","","","",""
"","1468","html-keyboard-response","181","205429","0.0-3.0-1.82","drama","s","n","cog","word","S","exp","5"
"","null","html-keyboard-response","182","205939","0.0-3.0-0.83","+","null","","","","","",""
"","1596","html-keyboard-response","183","207537","0.0-3.0-1.83","pulmão","n","n","noncog","word","S","exp","6"
"","null","html-keyboard-response","184","208040","0.0-3.0-0.84","+","null","","","","","",""
"","889","html-keyboard-response","185","208931","0.0-3.0-1.84","cinema","s","n","cog","word","S","exp","6"
"","null","html-keyboard-response","186","209436","0.0-3.0-0.85","+","null","","","","","",""
"","2050","html-keyboard-response","187","211488","0.0-3.0-1.85","parceter","n","null","noncog","pseudo","N","exp","null"
"","null","html-keyboard-response","188","212001","0.0-3.0-0.86","+","null","","","","","",""
"","1229","html-keyboard-response","189","213231","0.0-3.0-1.86","raspar","n","v","noncog","word","S","exp","6"
"","null","html-keyboard-response","190","213735","0.0-3.0-0.87","+","null","","","","","",""
"","1182","html-keyboard-response","191","214917","0.0-3.0-1.87","espaço","s","n","cog","word","S","exp","6"
"","null","html-keyboard-response","192","215432","0.0-3.0-0.88","+","null","","","","","",""
"","978","html-keyboard-response","193","216412","0.0-3.0-1.88","pangos","n","null","noncog","pseudo","N","exp","null"
"","null","html-keyboard-response","194","216919","0.0-3.0-0.89","+","null","","","","","",""
"","1000","html-keyboard-response","195","217920","0.0-3.0-1.89","aparme","s","null","noncog","pseudo","N","exp","null"
"","null","html-keyboard-response","196","218432","0.0-3.0-0.90","+","null","","","","","",""
"","1309","html-keyboard-response","197","219743","0.0-3.0-1.90","promessa","n","n","noncog","word","S","exp","8"
"","null","html-keyboard-response","198","220252","0.0-3.0-0.91","+","null","","","","","",""
"","1150","html-keyboard-response","199","221402","0.0-3.0-1.91","garastia","s","null","noncog","pseudo","N","exp","null"
"","null","html-keyboard-response","200","221912","0.0-3.0-0.92","+","null","","","","","",""
"","4248","html-keyboard-response","201","226160","0.0-3.0-1.92","uchães","n","null","noncog","pseudo","N","exp","null"
"","null","html-keyboard-response","202","226665","0.0-3.0-0.93","+","null","","","","","",""
"","1205","html-keyboard-response","203","227870","0.0-3.0-1.93","dacada","n","null","noncog","pseudo","N","exp","null"
"","null","html-keyboard-response","204","228383","0.0-3.0-0.94","+","null","","","","","",""
"","1521","html-keyboard-response","205","229907","0.0-3.0-1.94","extravagante","s","a","cog","word","S","exp","12"
"","null","html-keyboard-response","206","230411","0.0-3.0-0.95","+","null","","","","","",""
"","836","html-keyboard-response","207","231249","0.0-3.0-1.95","mal","s","a","cog","word","S","exp","3"
"","null","html-keyboard-response","208","231760","0.0-3.0-0.96","+","null","","","","","",""
"","1044","html-keyboard-response","209","232805","0.0-3.0-1.96","atitro","n","null","noncog","pseudo","N","exp","null"
"","null","html-keyboard-response","210","233316","0.0-3.0-0.97","+","null","","","","","",""
"","2335","html-keyboard-response","211","235651","0.0-3.0-1.97","bibarconato","s","null","noncog","pseudo","N","exp","null"
"","null","html-keyboard-response","212","236161","0.0-3.0-0.98","+","null","","","","","",""
"","934","html-keyboard-response","213","237097","0.0-3.0-1.98","espinho","n","n","noncog","word","S","exp","7"
"","null","html-keyboard-response","214","237609","0.0-3.0-0.99","+","null","","","","","",""
"","878","html-keyboard-response","215","238488","0.0-3.0-1.99","uçar","s","null","noncog","pseudo","N","exp","null"
"","null","html-keyboard-response","216","238990","0.0-3.0-0.100","+","null","","","","","",""
"","816","html-keyboard-response","217","239807","0.0-3.0-1.100","rovaz","n","null","noncog","pseudo","N","exp","null"
"","null","html-keyboard-response","218","240320","0.0-3.0-0.101","+","null","","","","","",""
"","808","html-keyboard-response","219","241128","0.0-3.0-1.101","ensuas","n","null","noncog","pseudo","N","exp","null"
"","null","html-keyboard-response","220","241640","0.0-3.0-0.102","+","null","","","","","",""
"","998","html-keyboard-response","221","242638","0.0-3.0-1.102","fusbão","n","null","noncog","pseudo","N","exp","null"
"","null","html-keyboard-response","222","243152","0.0-3.0-0.103","+","null","","","","","",""
"","1443","html-keyboard-response","223","244596","0.0-3.0-1.103","árovre","n","null","noncog","pseudo","N","exp","null"
"","null","html-keyboard-response","224","245110","0.0-3.0-0.104","+","null","","","","","",""
"","1639","html-keyboard-response","225","246753","0.0-3.0-1.104","mania","n","n","cog","word","S","exp","5"
"","null","html-keyboard-response","226","247255","0.0-3.0-0.105","+","null","","","","","",""
"","1369","html-keyboard-response","227","248626","0.0-3.0-1.105","bagunceira","s","a","noncog","word","S","exp","10"
"","null","html-keyboard-response","228","249135","0.0-3.0-0.106","+","null","","","","","",""
"","1116","html-keyboard-response","229","250253","0.0-3.0-1.106","conjerto","n","null","noncog","pseudo","N","exp","null"
"","null","html-keyboard-response","230","250762","0.0-3.0-0.107","+","null","","","","","",""
"","658","html-keyboard-response","231","251420","0.0-3.0-1.107","verde","s","a","noncog","word","S","exp","5"
"","null","html-keyboard-response","232","251933","0.0-3.0-0.108","+","null","","","","","",""
"","1456","html-keyboard-response","233","253390","0.0-3.0-1.108","plinta","s","null","noncog","pseudo","N","exp","null"
"","null","html-keyboard-response","234","253896","0.0-3.0-0.109","+","null","","","","","",""
"","789","html-keyboard-response","235","254685","0.0-3.0-1.109","pneucania","n","null","noncog","pseudo","N","exp","null"
"","null","html-keyboard-response","236","255201","0.0-3.0-0.110","+","null","","","","","",""
"","1876","html-keyboard-response","237","257079","0.0-3.0-1.110","carregar","s","v","noncog","word","S","exp","8"
"","null","html-keyboard-response","238","257593","0.0-3.0-0.111","+","null","","","","","",""
"","1331","html-keyboard-response","239","258925","0.0-3.0-1.111","nervoso","s","a","noncog","word","S","exp","7"
"","null","html-keyboard-response","240","259430","0.0-3.0-0.112","+","null","","","","","",""
"","1046","html-keyboard-response","241","260477","0.0-3.0-1.112","civil","s","a","cog","word","S","exp","5"
"","null","html-keyboard-response","242","260985","0.0-3.0-0.113","+","null","","","","","",""
"","1030","html-keyboard-response","243","262016","0.0-3.0-1.113","melão","n","n","cog","word","S","exp","5"
"","null","html-keyboard-response","244","262529","0.0-3.0-0.114","+","null","","","","","",""
"","780","html-keyboard-response","245","263311","0.0-3.0-1.114","verceja","s","null","noncog","pseudo","N","exp","null"
"","null","html-keyboard-response","246","263819","0.0-3.0-0.115","+","null","","","","","",""
"","692","html-keyboard-response","247","264512","0.0-3.0-1.115","mua","s","null","noncog","pseudo","N","exp","null"
"","null","html-keyboard-response","248","265017","0.0-3.0-0.116","+","null","","","","","",""
"","1886","html-keyboard-response","249","266904","0.0-3.0-1.116","suipestar","n","null","noncog","pseudo","N","exp","null"
"","null","html-keyboard-response","250","267417","0.0-3.0-0.117","+","null","","","","","",""
"","861","html-keyboard-response","251","268279","0.0-3.0-1.117","aivões","s","null","noncog","pseudo","N","exp","null"
"","null","html-keyboard-response","252","268797","0.0-3.0-0.118","+","null","","","","","",""
"","1597","html-keyboard-response","253","270397","0.0-3.0-1.118","ocinto","s","null","noncog","pseudo","N","exp","null"
"","null","html-keyboard-response","254","270911","0.0-3.0-0.119","+","null","","","","","",""
"","1810","html-keyboard-response","255","272721","0.0-3.0-1.119","sanque","n","null","noncog","pseudo","N","exp","null"
"","null","html-keyboard-response","256","273231","0.0-3.0-0.120","+","null","","","","","",""
"","770","html-keyboard-response","257","274003","0.0-3.0-1.120","cerca","n","n","noncog","word","S","exp","5"
"","null","html-keyboard-response","258","274513","0.0-3.0-0.121","+","null","","","","","",""
"","1342","html-keyboard-response","259","275855","0.0-3.0-1.121","deselegante","n","a","noncog","word","S","exp","11"
"","null","html-keyboard-response","260","276371","0.0-3.0-0.122","+","null","","","","","",""
"","789","html-keyboard-response","261","277161","0.0-3.0-1.122","farcas","n","null","noncog","pseudo","N","exp","null"
"","null","html-keyboard-response","262","277662","0.0-3.0-0.123","+","null","","","","","",""
"","1036","html-keyboard-response","263","278700","0.0-3.0-1.123","aemaça","n","null","noncog","pseudo","N","exp","null"
"","null","html-keyboard-response","264","279214","0.0-3.0-0.124","+","null","","","","","",""
"","1194","html-keyboard-response","265","280410","0.0-3.0-1.124","pitada","n","n","noncog","word","S","exp","6"
"","null","html-keyboard-response","266","280928","0.0-3.0-0.125","+","null","","","","","",""
"","1245","html-keyboard-response","267","282175","0.0-3.0-1.125","vitrive","s","null","noncog","pseudo","N","exp","null"
"","null","html-keyboard-response","268","282677","0.0-3.0-0.126","+","null","","","","","",""
"","925","html-keyboard-response","269","283603","0.0-3.0-1.126","matinal","s","a","cog","word","S","exp","7"
"","null","html-keyboard-response","270","284119","0.0-3.0-0.127","+","null","","","","","",""
"","1095","html-keyboard-response","271","285215","0.0-3.0-1.127","brincar","n","v","noncog","word","S","exp","7"
"","null","html-keyboard-response","272","285717","0.0-3.0-0.128","+","null","","","","","",""
"","1961","html-keyboard-response","273","287680","0.0-3.0-1.128","bancada","s","n","noncog","word","S","exp","7"
"","null","html-keyboard-response","274","288199","0.0-3.0-0.129","+","null","","","","","",""
"","1317","html-keyboard-response","275","289517","0.0-3.0-1.129","lagoa","n","n","cog","word","S","exp","5"
"","null","html-keyboard-response","276","290031","0.0-3.0-0.130","+","null","","","","","",""
"","4180","html-keyboard-response","277","294212","0.0-3.0-1.130","adoçar","s","v","noncog","word","S","exp","6"
"","null","html-keyboard-response","278","294726","0.0-3.0-0.131","+","null","","","","","",""
"","1100","html-keyboard-response","279","295828","0.0-3.0-1.131","anjo","n","n","cog","word","S","exp","4"
"","null","html-keyboard-response","280","296338","0.0-3.0-0.132","+","null","","","","","",""
"","724","html-keyboard-response","281","297062","0.0-3.0-1.132","dia","s","n","noncog","word","S","exp","3"
"","null","html-keyboard-response","282","297576","0.0-3.0-0.133","+","null","","","","","",""
"","1366","html-keyboard-response","283","298943","0.0-3.0-1.133","refletir","n","v","cog","word","S","exp","8"
"","null","html-keyboard-response","284","299446","0.0-3.0-0.134","+","null","","","","","",""
"","1150","html-keyboard-response","285","300597","0.0-3.0-1.134","açúcar","s","n","noncog","word","S","exp","6"
"","null","html-keyboard-response","286","301102","0.0-3.0-0.135","+","null","","","","","",""
"","879","html-keyboard-response","287","301982","0.0-3.0-1.135","nacional","s","a","cog","word","S","exp","8"
"","null","html-keyboard-response","288","302490","0.0-3.0-0.136","+","null","","","","","",""
"","906","html-keyboard-response","289","303398","0.0-3.0-1.136","motre","s","null","noncog","pseudo","N","exp","null"
"","null","html-keyboard-response","290","303907","0.0-3.0-0.137","+","null","","","","","",""
"","821","html-keyboard-response","291","304727","0.0-3.0-1.137","areia","s","n","noncog","word","S","exp","5"
"","null","html-keyboard-response","292","305240","0.0-3.0-0.138","+","null","","","","","",""
"","1387","html-keyboard-response","293","306628","0.0-3.0-1.138","euorpa","s","null","noncog","pseudo","N","exp","null"
"","null","html-keyboard-response","294","307130","0.0-3.0-0.139","+","null","","","","","",""
"","1046","html-keyboard-response","295","308177","0.0-3.0-1.139","aletiê","n","null","noncog","pseudo","N","exp","null"
"","null","html-keyboard-response","296","308682","0.0-3.0-0.140","+","null","","","","","",""
"","1269","html-keyboard-response","297","309953","0.0-3.0-1.140","tímido","s","a","cog","word","S","exp","6"
"","null","html-keyboard-response","298","310459","0.0-3.0-0.141","+","null","","","","","",""
"","832","html-keyboard-response","299","311292","0.0-3.0-1.141","francês","s","a","cog","word","S","exp","7"
"","null","html-keyboard-response","300","311806","0.0-3.0-0.142","+","null","","","","","",""
"","3575","html-keyboard-response","301","315383","0.0-3.0-1.142","dencosto","n","null","noncog","pseudo","N","exp","null"
"","null","html-keyboard-response","302","315890","0.0-3.0-0.143","+","null","","","","","",""
"","1517","html-keyboard-response","303","317408","0.0-3.0-1.143","chorão","s","a","noncog","word","S","exp","6"
"","null","html-keyboard-response","304","317910","0.0-3.0-0.144","+","null","","","","","",""
"","1569","html-keyboard-response","305","319480","0.0-3.0-1.144","trair","n","v","cog","word","S","exp","5"
"","null","html-keyboard-response","306","319990","0.0-3.0-0.145","+","null","","","","","",""
"","3249","html-keyboard-response","307","323241","0.0-3.0-1.145","ronronar","s","v","cog","word","S","exp","8"
"","null","html-keyboard-response","308","323745","0.0-3.0-0.146","+","null","","","","","",""
"","1596","html-keyboard-response","309","325342","0.0-3.0-1.146","orupas","n","null","noncog","pseudo","N","exp","null"
"","null","html-keyboard-response","310","325855","0.0-3.0-0.147","+","null","","","","","",""
"","1214","html-keyboard-response","311","327070","0.0-3.0-1.147","aperor","n","null","noncog","pseudo","N","exp","null"
"","null","html-keyboard-response","312","327585","0.0-3.0-0.148","+","null","","","","","",""
"","1016","html-keyboard-response","313","328601","0.0-3.0-1.148","bracos","n","null","noncog","pseudo","N","exp","null"
"","null","html-keyboard-response","314","329111","0.0-3.0-0.149","+","null","","","","","",""
"","689","html-keyboard-response","315","329800","0.0-3.0-1.149","fino","n","a","cog","word","S","exp","4"
"","null","html-keyboard-response","316","330306","0.0-3.0-0.150","+","null","","","","","",""
"","1126","html-keyboard-response","317","331433","0.0-3.0-1.150","revista","n","n","cog","word","S","exp","7"
"","null","html-keyboard-response","318","331946","0.0-3.0-0.151","+","null","","","","","",""
"","1121","html-keyboard-response","319","333067","0.0-3.0-1.151","bambu","s","n","cog","word","S","exp","5"
"","null","html-keyboard-response","320","333577","0.0-3.0-0.152","+","null","","","","","",""
"","1815","html-keyboard-response","321","335392","0.0-3.0-1.152","sábio","n","n","noncog","word","S","exp","5"
"","null","html-keyboard-response","322","335907","0.0-3.0-0.153","+","null","","","","","",""
"","664","html-keyboard-response","323","336572","0.0-3.0-1.153","esfoce","s","null","noncog","pseudo","N","exp","null"
"","null","html-keyboard-response","324","337076","0.0-3.0-0.154","+","null","","","","","",""
"","874","html-keyboard-response","325","337951","0.0-3.0-1.154","convidado","s","n","noncog","word","S","exp","9"
"","null","html-keyboard-response","326","338459","0.0-3.0-0.155","+","null","","","","","",""
"","761","html-keyboard-response","327","339222","0.0-3.0-1.155","preferir","s","v","cog","word","S","exp","8"
"","null","html-keyboard-response","328","339728","0.0-3.0-0.156","+","null","","","","","",""
"","635","html-keyboard-response","329","340364","0.0-3.0-1.156","frotes","s","null","noncog","pseudo","N","exp","null"
"","null","html-keyboard-response","330","340869","0.0-3.0-0.157","+","null","","","","","",""
"","2035","html-keyboard-response","331","342906","0.0-3.0-1.157","fogão","s","n","noncog","word","S","exp","5"
"","null","html-keyboard-response","332","343416","0.0-3.0-0.158","+","null","","","","","",""
"","668","html-keyboard-response","333","344083","0.0-3.0-1.158","telefone","s","n","cog","word","S","exp","8"
"","null","html-keyboard-response","334","344587","0.0-3.0-0.159","+","null","","","","","",""
"","944","html-keyboard-response","335","345532","0.0-3.0-1.159","prever","n","v","cog","word","S","exp","6"
"","null","html-keyboard-response","336","346036","0.0-3.0-0.160","+","null","","","","","",""
"","1577","html-keyboard-response","337","347612","0.0-3.0-1.160","socorro","n","n","noncog","word","S","exp","7"
"","null","html-keyboard-response","338","348115","0.0-3.0-0.161","+","null","","","","","",""
"","1180","html-keyboard-response","339","349297","0.0-3.0-1.161","casuas","n","null","noncog","pseudo","N","exp","null"
"","null","html-keyboard-response","340","349810","0.0-3.0-0.162","+","null","","","","","",""
"","2307","html-keyboard-response","341","352118","0.0-3.0-1.162","lapestra","n","null","noncog","pseudo","N","exp","null"
"","null","html-keyboard-response","342","352634","0.0-3.0-0.163","+","null","","","","","",""
"","827","html-keyboard-response","343","353463","0.0-3.0-1.163","grave","s","a","cog","word","S","exp","5"
"","null","html-keyboard-response","344","353974","0.0-3.0-0.164","+","null","","","","","",""
"","1579","html-keyboard-response","345","355555","0.0-3.0-1.164","usfiga","n","null","noncog","pseudo","N","exp","null"
"","null","html-keyboard-response","346","356058","0.0-3.0-0.165","+","null","","","","","",""
"","948","html-keyboard-response","347","357009","0.0-3.0-1.165","temperar","s","v","noncog","word","S","exp","8"
"","null","html-keyboard-response","348","357525","0.0-3.0-0.166","+","null","","","","","",""
"","800","html-keyboard-response","349","358326","0.0-3.0-1.166","especial","s","a","cog","word","S","exp","8"
"","null","html-keyboard-response","350","358835","0.0-3.0-0.167","+","null","","","","","",""
"","1601","html-keyboard-response","351","360438","0.0-3.0-1.167","dilheira","s","null","noncog","pseudo","N","exp","null"
"","null","html-keyboard-response","352","360953","0.0-3.0-0.168","+","null","","","","","",""
"","1224","html-keyboard-response","353","362178","0.0-3.0-1.168","berquesa","s","null","noncog","pseudo","N","exp","null"
"","null","html-keyboard-response","354","362681","0.0-3.0-0.169","+","null","","","","","",""
"","1677","html-keyboard-response","355","364359","0.0-3.0-1.169","nome","s","n","cog","word","S","exp","4"
"","null","html-keyboard-response","356","364865","0.0-3.0-0.170","+","null","","","","","",""
"","783","html-keyboard-response","357","365648","0.0-3.0-1.170","papai","s","n","cog","word","S","exp","5"
"","null","html-keyboard-response","358","366153","0.0-3.0-0.171","+","null","","","","","",""
"","2946","html-keyboard-response","359","369101","0.0-3.0-1.171","hedoru","s","null","noncog","pseudo","N","exp","null"
"","null","html-keyboard-response","360","369611","0.0-3.0-0.172","+","null","","","","","",""
"","1454","html-keyboard-response","361","371066","0.0-3.0-1.172","beima","s","null","noncog","pseudo","N","exp","null"
"","null","html-keyboard-response","362","371571","0.0-3.0-0.173","+","null","","","","","",""
"","916","html-keyboard-response","363","372489","0.0-3.0-1.173","tatear","s","v","cog","word","S","exp","6"
"","null","html-keyboard-response","364","372994","0.0-3.0-0.174","+","null","","","","","",""
"","1135","html-keyboard-response","365","374130","0.0-3.0-1.174","reduzir","n","v","cog","word","S","exp","7"
"","null","html-keyboard-response","366","374640","0.0-3.0-0.175","+","null","","","","","",""
"","153","html-keyboard-response","367","374794","0.0-3.0-1.175","enxerido","n","a","noncog","word","S","exp","8"
"","null","html-keyboard-response","368","375299","0.0-3.0-0.176","+","null","","","","","",""
"","187","html-keyboard-response","369","375487","0.0-3.0-1.176","hipócrita","n","a","noncog","word","S","exp","9"
"","null","html-keyboard-response","370","375998","0.0-3.0-0.177","+","null","","","","","",""
"","244","html-keyboard-response","371","376243","0.0-3.0-1.177","agravar","n","v","cog","word","S","exp","7"
"","null","html-keyboard-response","372","376748","0.0-3.0-0.178","+","null","","","","","",""
"","1190","html-keyboard-response","373","377940","0.0-3.0-1.178","sustentar","n","v","noncog","word","S","exp","9"
"","null","html-keyboard-response","374","378445","0.0-3.0-0.179","+","null","","","","","",""
"","1285","html-keyboard-response","375","379731","0.0-3.0-1.179","trenos","n","null","noncog","pseudo","N","exp","null"
"","null","html-keyboard-response","376","380236","0.0-3.0-0.180","+","null","","","","","",""
"","713","html-keyboard-response","377","380950","0.0-3.0-1.180","esprotiar","s","null","noncog","pseudo","N","exp","null"
"","null","html-keyboard-response","378","381452","0.0-3.0-0.181","+","null","","","","","",""
"","807","html-keyboard-response","379","382260","0.0-3.0-1.181","ideisa","s","null","noncog","pseudo","N","exp","null"
"","null","html-keyboard-response","380","382762","0.0-3.0-0.182","+","null","","","","","",""
"","897","html-keyboard-response","381","383661","0.0-3.0-1.182","cenada","s","null","noncog","pseudo","N","exp","null"
"","null","html-keyboard-response","382","384168","0.0-3.0-0.183","+","null","","","","","",""
"","577","html-keyboard-response","383","384746","0.0-3.0-1.183","bandido","n","n","cog","word","S","exp","7"
"","null","html-keyboard-response","384","385249","0.0-3.0-0.184","+","null","","","","","",""
"","111","html-keyboard-response","385","385363","0.0-3.0-1.184","prenas","n","null","noncog","pseudo","N","exp","null"
"","null","html-keyboard-response","386","385885","0.0-3.0-0.185","+","null","","","","","",""
"","160","html-keyboard-response","387","386046","0.0-3.0-1.185","detative","s","null","noncog","pseudo","N","exp","null"
"","null","html-keyboard-response","388","386571","0.0-3.0-0.186","+","null","","","","","",""
"","375","html-keyboard-response","389","386945","0.0-3.0-1.186","ênclio","n","null","noncog","pseudo","N","exp","null"
"","null","html-keyboard-response","390","387454","0.0-3.0-0.187","+","null","","","","","",""
"","277","html-keyboard-response","391","387732","0.0-3.0-1.187","lorfaz","n","null","noncog","pseudo","N","exp","null"
"","null","html-keyboard-response","392","388235","0.0-3.0-0.188","+","null","","","","","",""
"","235","html-keyboard-response","393","388471","0.0-3.0-1.188","ejerro","n","null","noncog","pseudo","N","exp","null"
"","null","html-keyboard-response","394","388985","0.0-3.0-0.189","+","null","","","","","",""
"","51","html-keyboard-response","395","389038","0.0-3.0-1.189","cravo","n","n","noncog","word","S","exp","5"
"","null","html-keyboard-response","396","389554","0.0-3.0-0.190","+","null","","","","","",""
"","68","html-keyboard-response","397","389624","0.0-3.0-1.190","rédesa","n","null","noncog","pseudo","N","exp","null"
"","null","html-keyboard-response","398","390137","0.0-3.0-0.191","+","null","","","","","",""
"","518","html-keyboard-response","399","390657","0.0-3.0-1.191","protas","n","null","noncog","pseudo","N","exp","null"
"","null","html-keyboard-response","400","391160","0.0-3.0-0.192","+","null","","","","","",""
"","95","html-keyboard-response","401","391256","0.0-3.0-1.192","encelhor","n","null","noncog","pseudo","N","exp","null"
"","null","html-keyboard-response","402","391765","0.0-3.0-0.193","+","null","","","","","",""
"","22","html-keyboard-response","403","391788","0.0-3.0-1.193","liso","n","n","noncog","word","S","exp","4"
"","null","html-keyboard-response","404","392299","0.0-3.0-0.194","+","null","","","","","",""
"","601","html-keyboard-response","405","392902","0.0-3.0-1.194","chato","n","n","noncog","word","S","exp","5"
"","null","html-keyboard-response","406","393405","0.0-3.0-0.195","+","null","","","","","",""
"","200","html-keyboard-response","407","393606","0.0-3.0-1.195","promeção","n","null","noncog","pseudo","N","exp","null"
"","null","html-keyboard-response","408","394111","0.0-3.0-0.196","+","null","","","","","",""
"","168","html-keyboard-response","409","394280","0.0-3.0-1.196","propaganda","n","n","cog","word","S","exp","10"
"","null","html-keyboard-response","410","394785","0.0-3.0-0.197","+","null","","","","","",""
"","37","html-keyboard-response","411","394823","0.0-3.0-1.197","podilo","s","null","noncog","pseudo","N","exp","null"
"","null","html-keyboard-response","412","395335","0.0-3.0-0.198","+","null","","","","","",""
"","2574","html-keyboard-response","413","397911","0.0-3.0-1.198","braras","n","null","noncog","pseudo","N","exp","null"
"","null","html-keyboard-response","414","398414","0.0-3.0-0.199","+","null","","","","","",""
"","929","html-keyboard-response","415","399345","0.0-3.0-1.199","perdão","s","n","noncog","word","S","exp","6"
"","null","html-keyboard-response","416","399856","0.0-3.0-0.200","+","null","","","","","",""
"","861","html-keyboard-response","417","400719","0.0-3.0-1.200","tinta","n","n","cog","word","S","exp","5"
"","null","html-keyboard-response","418","401231","0.0-3.0-0.201","+","null","","","","","",""
"","953","html-keyboard-response","419","402186","0.0-3.0-1.201","morno","s","a","noncog","word","S","exp","5"
"","null","html-keyboard-response","420","402688","0.0-3.0-0.202","+","null","","","","","",""
"","767","html-keyboard-response","421","403455","0.0-3.0-1.202","pritas","n","null","noncog","pseudo","N","exp","null"
"","null","html-keyboard-response","422","403961","0.0-3.0-0.203","+","null","","","","","",""
"","3754","html-keyboard-response","423","407716","0.0-3.0-1.203","aitrou","s","null","noncog","pseudo","N","exp","null"
"","null","html-keyboard-response","424","408217","0.0-3.0-0.204","+","null","","","","","",""
"","482","html-keyboard-response","425","408701","0.0-3.0-1.204","sintonizar","n","v","noncog","word","S","exp","10"
"","null","html-keyboard-response","426","409214","0.0-3.0-0.205","+","null","","","","","",""
"","152","html-keyboard-response","427","409366","0.0-3.0-1.205","cristal","s","n","cog","word","S","exp","7"
"","null","html-keyboard-response","428","409884","0.0-3.0-0.206","+","null","","","","","",""
"","988","html-keyboard-response","429","410875","0.0-3.0-1.206","destino","s","n","cog","word","S","exp","7"
"","null","html-keyboard-response","430","411389","0.0-3.0-0.207","+","null","","","","","",""
"","666","html-keyboard-response","431","412055","0.0-3.0-1.207","barco","s","n","cog","word","S","exp","5"
"","null","html-keyboard-response","432","412563","0.0-3.0-0.208","+","null","","","","","",""
"","1343","html-keyboard-response","433","413907","0.0-3.0-1.208","delomir","s","null","noncog","pseudo","N","exp","null"
"","null","html-keyboard-response","434","414420","0.0-3.0-0.209","+","null","","","","","",""
"","3380","html-keyboard-response","435","417800","0.0-3.0-1.209","instruído","s","a","noncog","word","S","exp","9"
"","null","html-keyboard-response","436","418302","0.0-3.0-0.210","+","null","","","","","",""
"","751","html-keyboard-response","437","419056","0.0-3.0-1.210","irratinte","n","null","noncog","pseudo","N","exp","null"
"","null","html-keyboard-response","438","419563","0.0-3.0-0.211","+","null","","","","","",""
"","49","html-keyboard-response","439","419613","0.0-3.0-1.211","espionar","s","v","cog","word","S","exp","8"
"","null","html-keyboard-response","440","420125","0.0-3.0-0.212","+","null","","","","","",""
"","6","html-keyboard-response","441","420134","0.0-3.0-1.212","pega-pega","n","n","noncog","word","S","exp","8"
"","null","html-keyboard-response","442","420638","0.0-3.0-0.213","+","null","","","","","",""
"","27","html-keyboard-response","443","420667","0.0-3.0-1.213","tênis","n","n","cog","word","S","exp","5"
"","null","html-keyboard-response","444","421179","0.0-3.0-0.214","+","null","","","","","",""
"","7","html-keyboard-response","445","421188","0.0-3.0-1.214","carro","n","n","noncog","word","S","exp","5"
"","null","html-keyboard-response","446","421694","0.0-3.0-0.215","+","null","","","","","",""
"","1062","html-keyboard-response","447","422757","0.0-3.0-1.215","loaco","n","null","noncog","pseudo","N","exp","null"
"","null","html-keyboard-response","448","423260","0.0-3.0-0.216","+","null","","","","","",""
"","2106","html-keyboard-response","449","425368","0.0-3.0-1.216","dobradiça","s","n","noncog","word","S","exp","9"
"","null","html-keyboard-response","450","425878","0.0-3.0-0.217","+","null","","","","","",""
"","1248","html-keyboard-response","451","427127","0.0-3.0-1.217","nivelado","n","a","cog","word","S","exp","8"
"","null","html-keyboard-response","452","427649","0.0-3.0-0.218","+","null","","","","","",""
"","119","html-keyboard-response","453","427769","0.0-3.0-1.218","tio","s","n","noncog","word","S","exp","3"
"","null","html-keyboard-response","454","428272","0.0-3.0-0.219","+","null","","","","","",""
"","584","html-keyboard-response","455","428857","0.0-3.0-1.219","abieso","n","null","noncog","pseudo","N","exp","null"
"","null","html-keyboard-response","456","429375","0.0-3.0-0.220","+","null","","","","","",""
"","42","html-keyboard-response","457","429418","0.0-3.0-1.220","afonher","n","null","noncog","pseudo","N","exp","null"
"","null","html-keyboard-response","458","429931","0.0-3.0-0.221","+","null","","","","","",""
"","1107","html-keyboard-response","459","431038","0.0-3.0-1.221","ofreta","s","null","noncog","pseudo","N","exp","null"
"","null","html-keyboard-response","460","431542","0.0-3.0-0.222","+","null","","","","","",""
"","1933","html-keyboard-response","461","433477","0.0-3.0-1.222","lagras","n","null","noncog","pseudo","N","exp","null"
"","null","html-keyboard-response","462","433984","0.0-3.0-0.223","+","null","","","","","",""
"","853","html-keyboard-response","463","434838","0.0-3.0-1.223","traduzir","s","v","cog","word","S","exp","8"
"","null","html-keyboard-response","464","435344","0.0-3.0-0.224","+","null","","","","","",""
"","1423","html-keyboard-response","465","436768","0.0-3.0-1.224","burtos","s","null","noncog","pseudo","N","exp","null"
"","null","html-keyboard-response","466","437287","0.0-3.0-0.225","+","null","","","","","",""
"","723","html-keyboard-response","467","438010","0.0-3.0-1.225","viver","s","v","cog","word","S","exp","5"
"","null","html-keyboard-response","468","438526","0.0-3.0-0.226","+","null","","","","","",""
"","1292","html-keyboard-response","469","439818","0.0-3.0-1.226","cápsula","n","n","noncog","word","S","exp","7"
"","null","html-keyboard-response","470","440320","0.0-3.0-0.227","+","null","","","","","",""
"","1813","html-keyboard-response","471","442133","0.0-3.0-1.227","usnado","n","null","noncog","pseudo","N","exp","null"
"","null","html-keyboard-response","472","442644","0.0-3.0-0.228","+","null","","","","","",""
"","1421","html-keyboard-response","473","444066","0.0-3.0-1.228","ótimo","n","a","noncog","word","S","exp","5"
"","null","html-keyboard-response","474","444580","0.0-3.0-0.229","+","null","","","","","",""
"","1370","html-keyboard-response","475","445950","0.0-3.0-1.229","gruja","n","null","noncog","pseudo","N","exp","null"
"","null","html-keyboard-response","476","446465","0.0-3.0-0.230","+","null","","","","","",""
"","1205","html-keyboard-response","477","447672","0.0-3.0-1.230","gordo","s","a","noncog","word","S","exp","5"
"","null","html-keyboard-response","478","448179","0.0-3.0-0.231","+","null","","","","","",""
"","1339","html-keyboard-response","479","449520","0.0-3.0-1.231","imitar","s","v","cog","word","S","exp","6"
"","null","html-keyboard-response","480","450025","0.0-3.0-0.232","+","null","","","","","",""
"","1647","html-keyboard-response","481","451672","0.0-3.0-1.232","pantufa","n","n","cog","word","S","exp","7"
"","null","html-keyboard-response","482","452175","0.0-3.0-0.233","+","null","","","","","",""
"","1892","html-keyboard-response","483","454069","0.0-3.0-1.233","tartos","n","null","noncog","pseudo","N","exp","null"
"","null","html-keyboard-response","484","454575","0.0-3.0-0.234","+","null","","","","","",""
"","1126","html-keyboard-response","485","455701","0.0-3.0-1.234","oecano","n","null","noncog","pseudo","N","exp","null"
"","null","html-keyboard-response","486","456216","0.0-3.0-0.235","+","null","","","","","",""
"","2073","html-keyboard-response","487","458291","0.0-3.0-1.235","medalha","n","n","cog","word","S","exp","7"
"","null","html-keyboard-response","488","458804","0.0-3.0-0.236","+","null","","","","","",""
"","1653","html-keyboard-response","489","460460","0.0-3.0-1.236","cirado","n","null","noncog","pseudo","N","exp","null"
"","null","html-keyboard-response","490","460973","0.0-3.0-0.237","+","null","","","","","",""
"","1591","html-keyboard-response","491","462565","0.0-3.0-1.237","mudança","s","n","noncog","word","S","exp","7"
"","null","html-keyboard-response","492","463076","0.0-3.0-0.238","+","null","","","","","",""
"","2784","html-keyboard-response","493","465862","0.0-3.0-1.238","independente","s","a","noncog","word","S","exp","12"
"","null","html-keyboard-response","494","466380","0.0-3.0-0.239","+","null","","","","","",""
"","1421","html-keyboard-response","495","467803","0.0-3.0-1.239","vervas","n","null","noncog","pseudo","N","exp","null"
