[
	{
		"view_history": [
			{
				"page_index": 0,
				"viewing_time": 3085
			}
		],
		"rt": 3085,
		"trial_type": "instructions",
		"trial_index": 0,
		"time_elapsed": 3091,
		"internal_node_id": "0.0-0.0"
	},
	{
		"rt": 1327689,
		"response": {
			"tcle": "Concordo voluntariamente em participar da pesquisa conforme texto acima."
		},
		"question_order": [
			0
		],
		"trial_type": "survey-multi-choice",
		"trial_index": 1,
		"time_elapsed": 1331001,
		"internal_node_id": "0.0-1.0"
	},
	{
		"rt": 73818,
		"response": {
			"email": "UE7T1"
		},
		"trial_type": "survey-text",
		"trial_index": 2,
		"time_elapsed": 1405852,
		"internal_node_id": "0.0-2.0"
	}
]