"view_history","rt","trial_type","trial_index","time_elapsed","internal_node_id","stimulus","response","portuguese","kreyol"
"[{""page_index"":0,""viewing_time"":31032}]","31033","instructions","0","31034","0.0-0.0","","","",""
"","null","html-keyboard-response","1","31644","0.0-1.0-0.0","+","null","",""
"","9208","audio-keyboard-response","2","40890","0.0-1.0-1.0","../audio/teste-vocab--128.mp3","s","incisivo","ensisiv"
"","null","html-keyboard-response","3","41401","0.0-1.0-0.1","+","null","",""
"","3120","audio-keyboard-response","4","44537","0.0-1.0-1.1","../audio/teste-vocab--35.mp3","s","líquido","likid"
"","null","html-keyboard-response","5","45051","0.0-1.0-0.2","+","null","",""
"","2280","audio-keyboard-response","6","47353","0.0-1.0-1.2","../audio/teste-vocab--10.mp3","s","corneta","kòn"
"","null","html-keyboard-response","7","47871","0.0-1.0-0.3","+","null","",""
"","4880","audio-keyboard-response","8","52777","0.0-1.0-1.3","../audio/teste-vocab--78.mp3","n","quarteto","qwatèt"
"","null","html-keyboard-response","9","53281","0.0-1.0-0.4","+","null","",""
"","2811","audio-keyboard-response","10","56121","0.0-1.0-1.4","../audio/teste-vocab--125.mp3","s","lamaçal","labou"
"","null","html-keyboard-response","11","56631","0.0-1.0-0.5","+","null","",""
"","2061","audio-keyboard-response","12","58713","0.0-1.0-1.5","../audio/teste-vocab--68.mp3","s","surpreendido","sezi"
"","null","html-keyboard-response","13","59231","0.0-1.0-0.6","+","null","",""
"","2061","audio-keyboard-response","14","61305","0.0-1.0-1.6","../audio/teste-vocab--20.mp3","s","medir","mezire"
"","null","html-keyboard-response","15","61811","0.0-1.0-0.7","+","null","",""
"","2120","audio-keyboard-response","16","63945","0.0-1.0-1.7","../audio/teste-vocab--114.mp3","s","fragmentar","dechire"
"","null","html-keyboard-response","17","64451","0.0-1.0-0.8","+","null","",""
"","2080","audio-keyboard-response","18","66553","0.0-1.0-1.8","../audio/teste-vocab--13.mp3","s","ambulância","anbilans"
"","null","html-keyboard-response","19","67061","0.0-1.0-0.9","+","null","",""
"","3589","audio-keyboard-response","20","70665","0.0-1.0-1.9","../audio/teste-vocab--70.mp3","s","funil","antónwa"
"","null","html-keyboard-response","21","71171","0.0-1.0-0.10","+","null","",""
"","2080","audio-keyboard-response","22","73273","0.0-1.0-1.10","../audio/teste-vocab--119.mp3","s","numeroso","anpil"
"","null","html-keyboard-response","23","73781","0.0-1.0-0.11","+","null","",""
"","1992","audio-keyboard-response","24","75801","0.0-1.0-1.11","../audio/teste-vocab--27.mp3","s","rio","rivyè"
"","null","html-keyboard-response","25","76311","0.0-1.0-0.12","+","null","",""
"","2072","audio-keyboard-response","26","78393","0.0-1.0-1.12","../audio/teste-vocab--91.mp3","s","bússola","bousòl"
"","null","html-keyboard-response","27","78901","0.0-1.0-0.13","+","null","",""
"","1749","audio-keyboard-response","28","80665","0.0-1.0-1.13","../audio/teste-vocab--41.mp3","s","médico","doktè,"
"","null","html-keyboard-response","29","81181","0.0-1.0-0.14","+","null","",""
"","1752","audio-keyboard-response","30","82953","0.0-1.0-1.14","../audio/teste-vocab--39.mp3","s","cobra","koulèv"
"","null","html-keyboard-response","31","83471","0.0-1.0-0.15","+","null","",""
"","1712","audio-keyboard-response","32","85193","0.0-1.0-1.15","../audio/teste-vocab--03.mp3","s","balançar","balanse"
"","null","html-keyboard-response","33","85711","0.0-1.0-0.16","+","null","",""
"","2061","audio-keyboard-response","34","87801","0.0-1.0-1.16","../audio/teste-vocab--52.mp3","s","construção","konstriksyon"
"","null","html-keyboard-response","35","88321","0.0-1.0-0.17","+","null","",""
"","1640","audio-keyboard-response","36","89971","0.0-1.0-1.17","../audio/teste-vocab--06.mp3","s","barco","bato"
"","null","html-keyboard-response","37","90475","0.0-1.0-0.18","+","null","",""
"","2589","audio-keyboard-response","38","93090","0.0-1.0-1.18","../audio/teste-vocab--115.mp3","s","perpendicular","pèpandikilè"
"","null","html-keyboard-response","39","93605","0.0-1.0-0.19","+","null","",""
"","2368","audio-keyboard-response","40","96003","0.0-1.0-1.19","../audio/teste-vocab--65.mp3","s","discussão","diskisyon"
"","null","html-keyboard-response","41","96506","0.0-1.0-0.20","+","null","",""
"","1771","audio-keyboard-response","42","98291","0.0-1.0-1.20","../audio/teste-vocab--123.mp3","s","emissão","emisyon"
"","null","html-keyboard-response","43","98795","0.0-1.0-0.21","+","null","",""
"","5320","audio-keyboard-response","44","104131","0.0-1.0-1.21","../audio/teste-vocab--105.mp3","n","cítrico","sitrik"
"","null","html-keyboard-response","45","104635","0.0-1.0-0.22","+","null","",""
"","2429","audio-keyboard-response","46","107091","0.0-1.0-1.22","../audio/teste-vocab--75.mp3","s","carpinteiro","chapantye"
"","null","html-keyboard-response","47","107605","0.0-1.0-0.23","+","null","",""
"","1800","audio-keyboard-response","48","109427","0.0-1.0-1.23","../audio/teste-vocab--18.mp3","s","abelha","myèl"
"","null","html-keyboard-response","49","109935","0.0-1.0-0.24","+","null","",""
"","1800","audio-keyboard-response","50","111747","0.0-1.0-1.24","../audio/teste-vocab--29.mp3","s","rasgar","chire"
"","null","html-keyboard-response","51","112255","0.0-1.0-0.25","+","null","",""
"","1749","audio-keyboard-response","52","114019","0.0-1.0-1.25","../audio/teste-vocab--71.mp3","s","caule","tij"
"","null","html-keyboard-response","53","114525","0.0-1.0-0.26","+","null","",""
"","1480","audio-keyboard-response","54","116019","0.0-1.0-1.26","../audio/teste-vocab--59.mp3","s","par","pè"
"","null","html-keyboard-response","55","116535","0.0-1.0-0.27","+","null","",""
"","1720","audio-keyboard-response","56","118275","0.0-1.0-1.27","../audio/teste-vocab--85.mp3","s","trio","trio"
"","null","html-keyboard-response","57","118785","0.0-1.0-0.28","+","null","",""
"","2131","audio-keyboard-response","58","120931","0.0-1.0-1.28","../audio/teste-vocab--23.mp3","s","acariciar","karese"
"","null","html-keyboard-response","59","121445","0.0-1.0-0.29","+","null","",""
"","1949","audio-keyboard-response","60","123411","0.0-1.0-1.29","../audio/teste-vocab--117.mp3","s","córnea","kòn"
"","null","html-keyboard-response","61","123915","0.0-1.0-0.30","+","null","",""
"","2029","audio-keyboard-response","62","125971","0.0-1.0-1.30","../audio/teste-vocab--64.mp3","s","colher","kiyè"
"","null","html-keyboard-response","63","126485","0.0-1.0-0.31","+","null","",""
"","2379","audio-keyboard-response","64","128883","0.0-1.0-1.31","../audio/teste-vocab--04.mp3","s","roda","wonn"
"","null","html-keyboard-response","65","129385","0.0-1.0-0.32","+","null","",""
"","3141","audio-keyboard-response","66","132547","0.0-1.0-1.32","../audio/teste-vocab--112.mp3","s","aparição","aparisyon"
"","null","html-keyboard-response","67","133055","0.0-1.0-0.33","+","null","",""
"","1968","audio-keyboard-response","68","135043","0.0-1.0-1.33","../audio/teste-vocab--22.mp3","s","quebrado","kraze"
"","null","html-keyboard-response","69","135545","0.0-1.0-0.34","+","null","",""
"","2080","audio-keyboard-response","70","137651","0.0-1.0-1.34","../audio/teste-vocab--76.mp3","s","arquivar","achive"
"","null","html-keyboard-response","71","138165","0.0-1.0-0.35","+","null","",""
"","1960","audio-keyboard-response","72","140147","0.0-1.0-1.35","../audio/teste-vocab--37.mp3","s","músico","mizisyen"
"","null","html-keyboard-response","73","140655","0.0-1.0-0.36","+","null","",""
"","1480","audio-keyboard-response","74","142163","0.0-1.0-1.36","../audio/teste-vocab--26.mp3","s","cotovelo","koud"
"","null","html-keyboard-response","75","142665","0.0-1.0-0.37","+","null","",""
"","1320","audio-keyboard-response","76","144003","0.0-1.0-1.37","../audio/teste-vocab--16.mp3","s","pescoço","kou"
"","null","html-keyboard-response","77","144505","0.0-1.0-0.38","+","null","",""
"","1192","audio-keyboard-response","78","145715","0.0-1.0-1.38","../audio/teste-vocab--30.mp3","s","pintor","pent"
"","null","html-keyboard-response","79","146235","0.0-1.0-0.39","+","null","",""
"","1141","audio-keyboard-response","80","147395","0.0-1.0-1.39","../audio/teste-vocab--77.mp3","s","comércio","komès"
"","null","html-keyboard-response","81","147915","0.0-1.0-0.40","+","null","",""
"","1872","audio-keyboard-response","82","149827","0.0-1.0-1.40","../audio/teste-vocab--60.mp3","s","secretaria","sekretè"
"","null","html-keyboard-response","83","150340","0.0-1.0-0.41","+","null","",""
"","1440","audio-keyboard-response","84","151800","0.0-1.0-1.41","../audio/teste-vocab--49.mp3","s","humano","moun"
"","null","html-keyboard-response","85","152310","0.0-1.0-0.42","+","null","",""
"","1912","audio-keyboard-response","86","154232","0.0-1.0-1.42","../audio/teste-vocab--57.mp3","s","raiz","rasin"
"","null","html-keyboard-response","87","154740","0.0-1.0-0.43","+","null","",""
"","2019","audio-keyboard-response","88","156776","0.0-1.0-1.43","../audio/teste-vocab--111.mp3","s","jubilosa","rejwisans"
"","null","html-keyboard-response","89","157290","0.0-1.0-0.44","+","null","",""
"","2440","audio-keyboard-response","90","159752","0.0-1.0-1.44","../audio/teste-vocab--61.mp3","s","iluminação","iliminasyon"
"","null","html-keyboard-response","91","160260","0.0-1.0-0.45","+","null","",""
"","1429","audio-keyboard-response","92","161704","0.0-1.0-1.45","../audio/teste-vocab--21.mp3","s","baleia","balèn"
"","null","html-keyboard-response","93","162220","0.0-1.0-0.46","+","null","",""
"","1840","audio-keyboard-response","94","164072","0.0-1.0-1.46","../audio/teste-vocab--25.mp3","s","canguru","kanguwou"
"","null","html-keyboard-response","95","164587","0.0-1.0-0.47","+","null","",""
"","2181","audio-keyboard-response","96","166792","0.0-1.0-1.47","../audio/teste-vocab--32.mp3","s","descascar","dekale"
"","null","html-keyboard-response","97","167310","0.0-1.0-0.48","+","null","",""
"","1821","audio-keyboard-response","98","169144","0.0-1.0-1.48","../audio/teste-vocab--33.mp3","s","uniforme","inifòm"
"","null","html-keyboard-response","99","169661","0.0-1.0-0.49","+","null","",""
"","2080","audio-keyboard-response","100","171752","0.0-1.0-1.49","../audio/teste-vocab--58.mp3","s","nutritivo","nourisan"
"","null","html-keyboard-response","101","172270","0.0-1.0-0.50","+","null","",""
"","1981","audio-keyboard-response","102","174280","0.0-1.0-1.50","../audio/teste-vocab--62.mp3","s","carretel","bobin"
"","null","html-keyboard-response","103","174790","0.0-1.0-0.51","+","null","",""
"","2000","audio-keyboard-response","104","176808","0.0-1.0-1.51","../audio/teste-vocab--88.mp3","s","portátil","pòtab"
"","null","html-keyboard-response","105","177320","0.0-1.0-0.52","+","null","",""
"","1931","audio-keyboard-response","106","179272","0.0-1.0-1.52","../audio/teste-vocab--47.mp3","s","envelope","anvlope"
"","null","html-keyboard-response","107","179790","0.0-1.0-0.53","+","null","",""
"","2232","audio-keyboard-response","108","182040","0.0-1.0-1.53","../audio/teste-vocab--95.mp3","s","submergir","plonje"
"","null","html-keyboard-response","109","182560","0.0-1.0-0.54","+","null","",""
"","1800","audio-keyboard-response","110","184376","0.0-1.0-1.54","../audio/teste-vocab--28.mp3","s","águia","èg"
"","null","html-keyboard-response","111","184890","0.0-1.0-0.55","+","null","",""
"","2440","audio-keyboard-response","112","187352","0.0-1.0-1.55","../audio/teste-vocab--43.mp3","s","mecânico","mekanisyen"
"","null","html-keyboard-response","113","187860","0.0-1.0-0.56","+","null","",""
"","2120","audio-keyboard-response","114","190008","0.0-1.0-1.56","../audio/teste-vocab--121.mp3","s","atônito","sezi"
"","null","html-keyboard-response","115","190510","0.0-1.0-0.57","+","null","",""
"","1901","audio-keyboard-response","116","192424","0.0-1.0-1.57","../audio/teste-vocab--92.mp3","s","esférico","won"
"","null","html-keyboard-response","117","192930","0.0-1.0-0.58","+","null","",""
"","5240","audio-keyboard-response","118","198184","0.0-1.0-1.58","../audio/teste-vocab--79.mp3","s","moldura"," chanbranl"
"","null","html-keyboard-response","119","198690","0.0-1.0-0.59","+","null","",""
"","2349","audio-keyboard-response","120","201064","0.0-1.0-1.59","../audio/teste-vocab--69.mp3","s","pingar","degoute"
"","null","html-keyboard-response","121","201570","0.0-1.0-0.60","+","null","",""
"","2080","audio-keyboard-response","122","203704","0.0-1.0-1.60","../audio/teste-vocab--120.mp3","s","induzir","pwovoke"
"","null","html-keyboard-response","123","204220","0.0-1.0-0.61","+","null","",""
"","1992","audio-keyboard-response","124","206232","0.0-1.0-1.61","../audio/teste-vocab--90.mp3","s","carniça","kanivò"
"","null","html-keyboard-response","125","206751","0.0-1.0-0.62","+","null","",""
"","1901","audio-keyboard-response","126","208664","0.0-1.0-1.62","../audio/teste-vocab--14.mp3","s","ler","li"
"","null","html-keyboard-response","127","209170","0.0-1.0-0.63","+","null","",""
"","1992","audio-keyboard-response","128","211189","0.0-1.0-1.63","../audio/teste-vocab--126.mp3","s","ambulante","promennen"
"","null","html-keyboard-response","129","211697","0.0-1.0-0.64","+","null","",""
"","1939","audio-keyboard-response","130","213653","0.0-1.0-1.64","../audio/teste-vocab--106.mp3","s","lubrificar","grese"
"","null","html-keyboard-response","131","214167","0.0-1.0-0.65","+","null","",""
"","1971","audio-keyboard-response","132","216149","0.0-1.0-1.65","../audio/teste-vocab--110.mp3","s","prodígio","pwodij"
"","null","html-keyboard-response","133","216667","0.0-1.0-0.66","+","null","",""
"","1981","audio-keyboard-response","134","218661","0.0-1.0-1.66","../audio/teste-vocab--38.mp3","s","cerimônia","seremoni"
"","null","html-keyboard-response","135","219178","0.0-1.0-0.67","+","null","",""
"","2000","audio-keyboard-response","136","221205","0.0-1.0-1.67","../audio/teste-vocab--36.mp3","s","grupo","gwoup"
"","null","html-keyboard-response","137","221708","0.0-1.0-0.68","+","null","",""
"","1691","audio-keyboard-response","138","223413","0.0-1.0-1.68","../audio/teste-vocab--82.mp3","s","roer","ronje"
"","null","html-keyboard-response","139","223917","0.0-1.0-0.69","+","null","",""
"","1920","audio-keyboard-response","140","225861","0.0-1.0-1.69","../audio/teste-vocab--53.mp3","s","orientar","oryante"
"","null","html-keyboard-response","141","226377","0.0-1.0-0.70","+","null","",""
"","2280","audio-keyboard-response","142","228677","0.0-1.0-1.70","../audio/teste-vocab--81.mp3","s","judicial","jidisyè"
"","null","html-keyboard-response","143","229197","0.0-1.0-0.71","+","null","",""
"","2459","audio-keyboard-response","144","231686","0.0-1.0-1.71","../audio/teste-vocab--101.mp3","s","incandescente","enkandesan"
"","null","html-keyboard-response","145","232187","0.0-1.0-0.72","+","null","",""
"","1872","audio-keyboard-response","146","234069","0.0-1.0-1.72","../audio/teste-vocab--48.mp3","s","joia","bijou"
"","null","html-keyboard-response","147","234578","0.0-1.0-0.73","+","null","",""
"","2152","audio-keyboard-response","148","236758","0.0-1.0-1.73","../audio/teste-vocab--09.mp3","s","vela","bouji"
"","null","html-keyboard-response","149","237267","0.0-1.0-0.74","+","null","",""
"","2021","audio-keyboard-response","150","239301","0.0-1.0-1.74","../audio/teste-vocab--54.mp3","s","arbusto","raje"
"","null","html-keyboard-response","151","239807","0.0-1.0-0.75","+","null","",""
"","1960","audio-keyboard-response","152","241782","0.0-1.0-1.75","../audio/teste-vocab--94.mp3","s","paralelo","paralèl"
"","null","html-keyboard-response","153","242297","0.0-1.0-0.76","+","null","",""
"","1739","audio-keyboard-response","154","244053","0.0-1.0-1.76","../audio/teste-vocab--86.mp3","s","pensar","panse"
"","null","html-keyboard-response","155","244558","0.0-1.0-0.77","+","null","",""
"","1840","audio-keyboard-response","156","246421","0.0-1.0-1.77","../audio/teste-vocab--45.mp3","s","dentista","dantis"
"","null","html-keyboard-response","157","246927","0.0-1.0-0.78","+","null","",""
"","1640","audio-keyboard-response","158","248597","0.0-1.0-1.78","../audio/teste-vocab--15.mp3","s","flecha","flèch"
"","null","html-keyboard-response","159","249117","0.0-1.0-0.79","+","null","",""
"","2091","audio-keyboard-response","160","251221","0.0-1.0-1.79","../audio/teste-vocab--17.mp3","s","móvel","mobil"
"","null","html-keyboard-response","161","251728","0.0-1.0-0.80","+","null","",""
"","1789","audio-keyboard-response","162","253541","0.0-1.0-1.80","../audio/teste-vocab--24.mp3","s","acidente","aksidan"
"","null","html-keyboard-response","163","254048","0.0-1.0-0.81","+","null","",""
"","5448","audio-keyboard-response","164","259525","0.0-1.0-1.81","../audio/teste-vocab--83.mp3","n","morsa","mòs"
"","null","html-keyboard-response","165","260028","0.0-1.0-0.82","+","null","",""
"","1941","audio-keyboard-response","166","261989","0.0-1.0-1.82","../audio/teste-vocab--113.mp3","s","ascender","limen"
"","null","html-keyboard-response","167","262507","0.0-1.0-0.83","+","null","",""
"","1912","audio-keyboard-response","168","264438","0.0-1.0-1.83","../audio/teste-vocab--96.mp3","s","árido","sechrès"
"","null","html-keyboard-response","169","264957","0.0-1.0-0.84","+","null","",""
"","1800","audio-keyboard-response","170","266773","0.0-1.0-1.84","../audio/teste-vocab--19.mp3","s","hora","è"
"","null","html-keyboard-response","171","267287","0.0-1.0-0.85","+","null","",""
"","1811","audio-keyboard-response","172","269109","0.0-1.0-1.85","../audio/teste-vocab--104.mp3","s","ira","pwal"
"","null","html-keyboard-response","173","269617","0.0-1.0-0.86","+","null","",""
"","2371","audio-keyboard-response","174","272039","0.0-1.0-1.86","../audio/teste-vocab--63.mp3","s","transparente","transparan"
"","null","html-keyboard-response","175","272559","0.0-1.0-0.87","+","null","",""
"","2059","audio-keyboard-response","176","274647","0.0-1.0-1.87","../audio/teste-vocab--05.mp3","s","limpar","netwaye"
"","null","html-keyboard-response","177","275149","0.0-1.0-0.88","+","null","",""
"","1971","audio-keyboard-response","178","277143","0.0-1.0-1.88","../audio/teste-vocab--56.mp3","s","agricultura","agrikilti"
"","null","html-keyboard-response","179","277659","0.0-1.0-0.89","+","null","",""
"","1560","audio-keyboard-response","180","279239","0.0-1.0-1.89","../audio/teste-vocab--55.mp3","s","bosque","forè"
"","null","html-keyboard-response","181","279759","0.0-1.0-0.90","+","null","",""
"","2171","audio-keyboard-response","182","281943","0.0-1.0-1.90","../audio/teste-vocab--80.mp3","s","binóculo","longvi"
"","null","html-keyboard-response","183","282449","0.0-1.0-0.91","+","null","",""
"","1960","audio-keyboard-response","184","284439","0.0-1.0-1.91","../audio/teste-vocab--51.mp3","s","recolher","kolekte"
"","null","html-keyboard-response","185","284955","0.0-1.0-0.92","+","null","",""
"","1861","audio-keyboard-response","186","286839","0.0-1.0-1.92","../audio/teste-vocab--129.mp3","s","elipse","elips"
"","null","html-keyboard-response","187","287359","0.0-1.0-0.93","+","null","",""
"","1931","audio-keyboard-response","188","289302","0.0-1.0-1.93","../audio/teste-vocab--31.mp3","s","vazio","vid"
"","null","html-keyboard-response","189","289819","0.0-1.0-0.94","+","null","",""
"","6808","audio-keyboard-response","190","296646","0.0-1.0-1.94","../audio/teste-vocab--99.mp3","n","arqueólogo","akeyológ"
"","null","html-keyboard-response","191","297159","0.0-1.0-0.95","+","null","",""
"","2019","audio-keyboard-response","192","299207","0.0-1.0-1.95","../audio/teste-vocab--102.mp3","s","arrogante","arogan"
"","null","html-keyboard-response","193","299708","0.0-1.0-0.96","+","null","",""
"","2371","audio-keyboard-response","194","302119","0.0-1.0-1.96","../audio/teste-vocab--93.mp3","s","felino","leopa"
"","null","html-keyboard-response","195","302639","0.0-1.0-0.97","+","null","",""
"","2219","audio-keyboard-response","196","304887","0.0-1.0-1.97","../audio/teste-vocab--42.mp3","s","isolamento","izòlman"
"","null","html-keyboard-response","197","305389","0.0-1.0-0.98","+","null","",""
"","1640","audio-keyboard-response","198","307047","0.0-1.0-1.98","../audio/teste-vocab--07.mp3","s","abajur","lanp"
"","null","html-keyboard-response","199","307549","0.0-1.0-0.99","+","null","",""
"","1901","audio-keyboard-response","200","309463","0.0-1.0-1.99","../audio/teste-vocab--11.mp3","s","joelho","jenou"
"","null","html-keyboard-response","201","309969","0.0-1.0-0.100","+","null","",""
"","1819","audio-keyboard-response","202","311815","0.0-1.0-1.100","../audio/teste-vocab--107.mp3","s","elo","emay"
"","null","html-keyboard-response","203","312319","0.0-1.0-0.101","+","null","",""
"","2299","audio-keyboard-response","204","314647","0.0-1.0-1.101","../audio/teste-vocab--84.mp3","s","confiar","konfye"
"","null","html-keyboard-response","205","315149","0.0-1.0-0.102","+","null","",""
"","2000","audio-keyboard-response","206","317175","0.0-1.0-1.102","../audio/teste-vocab--127.mp3","s","côncavo","konkav"
"","null","html-keyboard-response","207","317679","0.0-1.0-0.103","+","null","",""
"","1669","audio-keyboard-response","208","319367","0.0-1.0-1.103","../audio/teste-vocab--108.mp3","s","moradia","kay"
"","null","html-keyboard-response","209","319869","0.0-1.0-0.104","+","null","",""
"","1811","audio-keyboard-response","210","321703","0.0-1.0-1.104","../audio/teste-vocab--40.mp3","s","bebida","bwason"
"","null","html-keyboard-response","211","322209","0.0-1.0-0.105","+","null","",""
"","1680","audio-keyboard-response","212","323911","0.0-1.0-1.105","../audio/teste-vocab--12.mp3","s","jaula","kaj"
"","null","html-keyboard-response","213","324419","0.0-1.0-0.106","+","null","",""
"","5021","audio-keyboard-response","214","329479","0.0-1.0-1.106","../audio/teste-vocab--103.mp3","n","utensílio","istansil"
"","null","html-keyboard-response","215","329989","0.0-1.0-0.107","+","null","",""
"","2901","audio-keyboard-response","216","332918","0.0-1.0-1.107","../audio/teste-vocab--66.mp3","s","cooperação","koperasyon"
"","null","html-keyboard-response","217","333438","0.0-1.0-0.108","+","null","",""
"","2021","audio-keyboard-response","218","335478","0.0-1.0-1.108","../audio/teste-vocab--01.mp3","s","boneca","pope"
"","null","html-keyboard-response","219","335988","0.0-1.0-0.109","+","null","",""
"","1781","audio-keyboard-response","220","337782","0.0-1.0-1.109","../audio/teste-vocab--67.mp3","s","corrimão","ranp"
"","null","html-keyboard-response","221","338288","0.0-1.0-0.110","+","null","",""
"","1661","audio-keyboard-response","222","339958","0.0-1.0-1.110","../audio/teste-vocab--34.mp3","s","tronco","twon"
"","null","html-keyboard-response","223","340478","0.0-1.0-0.111","+","null","",""
"","2688","audio-keyboard-response","224","343206","0.0-1.0-1.111","../audio/teste-vocab--89.mp3","s","classificar","klasifika"
"","null","html-keyboard-response","225","343708","0.0-1.0-0.112","+","null","",""
"","2160","audio-keyboard-response","226","345894","0.0-1.0-1.112","../audio/teste-vocab--72.mp3","s","ilha","zile"
"","null","html-keyboard-response","227","346398","0.0-1.0-0.113","+","null","",""
"","2632","audio-keyboard-response","228","349078","0.0-1.0-1.113","../audio/teste-vocab--74.mp3","s","desilusão","dezilizyon"
"","null","html-keyboard-response","229","349588","0.0-1.0-0.114","+","null","",""
"","2941","audio-keyboard-response","230","352550","0.0-1.0-1.114","../audio/teste-vocab--118.mp3","s","paralelogramo","paralelogram"
"","null","html-keyboard-response","231","353068","0.0-1.0-0.115","+","null","",""
"","1949","audio-keyboard-response","232","355046","0.0-1.0-1.115","../audio/teste-vocab--122.mp3","s","transeunte","pasajè"
"","null","html-keyboard-response","233","355558","0.0-1.0-0.116","+","null","",""
"","1571","audio-keyboard-response","234","357142","0.0-1.0-1.116","../audio/teste-vocab--97.mp3","s","frágil","frajil"
"","null","html-keyboard-response","235","357644","0.0-1.0-0.117","+","null","",""
"","1771","audio-keyboard-response","236","359430","0.0-1.0-1.117","../audio/teste-vocab--08.mp3","s","vaca","vach"
"","null","html-keyboard-response","237","359948","0.0-1.0-0.118","+","null","",""
"","1811","audio-keyboard-response","238","361781","0.0-1.0-1.118","../audio/teste-vocab--50.mp3","s","artista","atis"
"","null","html-keyboard-response","239","362288","0.0-1.0-0.119","+","null","",""
"","5339","audio-keyboard-response","240","367640","0.0-1.0-1.119","../audio/teste-vocab--109.mp3","n","anfíbio","anfibyen"
"","null","html-keyboard-response","241","368150","0.0-1.0-0.120","+","null","",""
"","2149","audio-keyboard-response","242","370326","0.0-1.0-1.120","../audio/teste-vocab--87.mp3","s","ave","zwazo"
"","null","html-keyboard-response","243","370838","0.0-1.0-0.121","+","null","",""
"","2091","audio-keyboard-response","244","372982","0.0-1.0-1.121","../audio/teste-vocab--100.mp3","s","consumir","konsome"
"","null","html-keyboard-response","245","373498","0.0-1.0-0.122","+","null","",""
"","1688","audio-keyboard-response","246","375206","0.0-1.0-1.122","../audio/teste-vocab--130.mp3","s","gentil","dou"
"","null","html-keyboard-response","247","375708","0.0-1.0-0.123","+","null","",""
"","1760","audio-keyboard-response","248","377494","0.0-1.0-1.123","../audio/teste-vocab--02.mp3","s","homem","gason"
"","null","html-keyboard-response","249","378008","0.0-1.0-0.124","+","null","",""
"","2048","audio-keyboard-response","250","380086","0.0-1.0-1.124","../audio/teste-vocab--44.mp3","s","premiar","rekonpanse"
"","null","html-keyboard-response","251","380598","0.0-1.0-0.125","+","null","",""
"","2280","audio-keyboard-response","252","382902","0.0-1.0-1.125","../audio/teste-vocab--116.mp3","s","vestuário","vestyè"
"","null","html-keyboard-response","253","383408","0.0-1.0-0.126","+","null","",""
"","1811","audio-keyboard-response","254","385238","0.0-1.0-1.126","../audio/teste-vocab--73.mp3","s","ângulo","ang"
"","null","html-keyboard-response","255","385758","0.0-1.0-0.127","+","null","",""
"","1731","audio-keyboard-response","256","387510","0.0-1.0-1.127","../audio/teste-vocab--46.mp3","s","ombro","zepòl"
"","null","html-keyboard-response","257","388018","0.0-1.0-0.128","+","null","",""
"","1800","audio-keyboard-response","258","389846","0.0-1.0-1.128","../audio/teste-vocab--98.mp3","s","instruir","enstwi"
"","null","html-keyboard-response","259","390348","0.0-1.0-0.129","+","null","",""
"","4621","audio-keyboard-response","260","394982","0.0-1.0-1.129","../audio/teste-vocab--124.mp3","n","obelisco","obelisk"
