"view_history","rt","trial_type","trial_index","time_elapsed","internal_node_id","stimulus","response","trial_part","trial","word","question","answer","accuracy"
"[{""page_index"":0,""viewing_time"":116482},{""page_index"":1,""viewing_time"":9872}]","126355","instructions","0","126354","0.0-0.0","","","","","","","",""
"","null","html-keyboard-response","1","127457","0.0-1.0-0.0-0.0","<span style= ""font-size:30px; font-family: monospace"">+</span>","null","fixation","","","","",""
"","4357","html-keyboard-response","2","132066","0.0-1.0-1.0","<span style=""font-size:30px; font-family: monospace"">O</span>"," ","","prac-sent","O","","",""
"","2147","html-keyboard-response","3","134465","0.0-1.0-1.1","<span style=""font-size:30px; font-family: monospace"">dia</span>"," ","","prac-sent","dia","","",""
"","1508","html-keyboard-response","4","136225","0.0-1.0-1.2","<span style=""font-size:30px; font-family: monospace"">estará</span>"," ","","prac-sent","estará","","",""
"","1572","html-keyboard-response","5","138049","0.0-1.0-1.3","<span style=""font-size:30px; font-family: monospace"">cheio</span>"," ","","prac-sent","cheio","","",""
"","1189","html-keyboard-response","6","139489","0.0-1.0-1.4","<span style=""font-size:30px; font-family: monospace"">de</span>"," ","","prac-sent","de","","",""
"","4341","html-keyboard-response","7","144081","0.0-1.0-1.5","<span style=""font-size:30px; font-family: monospace"">nuvens</span>"," ","","prac-sent","nuvens","","",""
"","4805","html-keyboard-response","8","149137","0.0-1.0-1.6","<span style=""font-size:30px; font-family: monospace"">hoje.</span>"," ","","prac-sent","hoje.","","",""
"","null","html-keyboard-response","9","150389","0.0-1.0-0.7-0.7","<span style= ""font-size:30px; font-family: monospace"">+</span>","null","fixation","","","","",""
"","2769","html-keyboard-response","10","153409","0.0-1.0-1.7","<span style=""font-size:30px; font-family: monospace"">A</span>"," ","","prac-sent","A","","",""
"","2085","html-keyboard-response","11","155745","0.0-1.0-1.8","<span style=""font-size:30px; font-family: monospace"">caneca</span>"," ","","prac-sent","caneca","","",""
"","1948","html-keyboard-response","12","157953","0.0-1.0-1.9","<span style=""font-size:30px; font-family: monospace"">colorida</span>"," ","","prac-sent","colorida","","",""
"","1413","html-keyboard-response","13","159617","0.0-1.0-1.10","<span style=""font-size:30px; font-family: monospace"">caiu</span>"," ","","prac-sent","caiu","","",""
"","1237","html-keyboard-response","14","161105","0.0-1.0-1.11","<span style=""font-size:30px; font-family: monospace"">da</span>"," ","","prac-sent","da","","",""
"","4580","html-keyboard-response","15","165937","0.0-1.0-1.12","<span style=""font-size:30px; font-family: monospace"">mesa</span>"," ","","prac-sent","mesa","","",""
"","1205","html-keyboard-response","16","167393","0.0-1.0-1.13","<span style=""font-size:30px; font-family: monospace"">de</span>"," ","","prac-sent","de","","",""
"","1717","html-keyboard-response","17","169361","0.0-1.0-1.14","<span style=""font-size:30px; font-family: monospace"">jantar.</span>"," ","","prac-comp","jantar.","","",""
"","61732","html-keyboard-response","18","231345","0.0-1.0-2.14-0.14","<span style=""font-size:30px; font-family: monospace"">A caneca permaneceu na mesa?</span>","n","","prac-comp","","A caneca permaneceu na mesa?","não","false"
"[{""page_index"":0,""viewing_time"":20388}]","20388","instructions","19","252233","0.0-2.0","","","","","","","",""
"","null","html-keyboard-response","20","253335","0.0-3.0-0.0-0.0","<span style= ""font-size:30px; font-family: monospace"">+</span>","null","fixation","","","","",""
"","2526","html-keyboard-response","21","256112","0.0-3.0-1.0","<span style=""font-size:30px; font-family: monospace"">Este</span>"," ","","exp-sent","Este","","",""
"","1716","html-keyboard-response","22","258080","0.0-3.0-1.1","<span style=""font-size:30px; font-family: monospace"">conto</span>"," ","","exp-sent","conto","","",""
"","1269","html-keyboard-response","23","259600","0.0-3.0-1.2","<span style=""font-size:30px; font-family: monospace"">tem</span>"," ","","exp-sent","tem","","",""
"","1189","html-keyboard-response","24","261040","0.0-3.0-1.3","<span style=""font-size:30px; font-family: monospace"">um</span>"," ","","exp-sent","um","","",""
"","1685","html-keyboard-response","25","262976","0.0-3.0-1.4","<span style=""font-size:30px; font-family: monospace"">final</span>"," ","","exp-sent","final","","",""
"","1701","html-keyboard-response","26","264928","0.0-3.0-1.5","<span style=""font-size:30px; font-family: monospace"">perfeito.</span>"," ","","exp-sent","perfeito.","","",""
"","null","html-keyboard-response","27","266179","0.0-3.0-0.6-0.6","<span style= ""font-size:30px; font-family: monospace"">+</span>","null","fixation","","","","",""
"","1602","html-keyboard-response","28","268032","0.0-3.0-1.6","<span style=""font-size:30px; font-family: monospace"">Ele</span>"," ","","exp-sent","Ele","","",""
"","1333","html-keyboard-response","29","269616","0.0-3.0-1.7","<span style=""font-size:30px; font-family: monospace"">precisa</span>"," ","","exp-sent","precisa","","",""
"","1333","html-keyboard-response","30","271200","0.0-3.0-1.8","<span style=""font-size:30px; font-family: monospace"">de</span>"," ","","exp-sent","de","","",""
"","1221","html-keyboard-response","31","272672","0.0-3.0-1.9","<span style=""font-size:30px; font-family: monospace"">um</span>"," ","","exp-sent","um","","",""
"","1941","html-keyboard-response","32","274864","0.0-3.0-1.10","<span style=""font-size:30px; font-family: monospace"">protetor</span>"," ","","exp-sent","protetor","","",""
"","1093","html-keyboard-response","33","276208","0.0-3.0-1.11","<span style=""font-size:30px; font-family: monospace"">de</span>"," ","","exp-sent","de","","",""
"","2084","html-keyboard-response","34","278544","0.0-3.0-1.12","<span style=""font-size:30px; font-family: monospace"">ouvido.</span>"," ","","exp-sent","ouvido.","","",""
"","null","html-keyboard-response","35","279796","0.0-3.0-0.13-0.13","<span style= ""font-size:30px; font-family: monospace"">+</span>","null","fixation","","","","",""
"","1680","html-keyboard-response","36","281728","0.0-3.0-1.13","<span style=""font-size:30px; font-family: monospace"">Os</span>"," ","","exp-sent","Os","","",""
"","2805","html-keyboard-response","37","284784","0.0-3.0-1.14","<span style=""font-size:30px; font-family: monospace"">hábitos</span>"," ","","exp-sent","hábitos","","",""
"","821","html-keyboard-response","38","285856","0.0-3.0-1.15","<span style=""font-size:30px; font-family: monospace"">de</span>"," ","","exp-sent","de","","",""
"","1589","html-keyboard-response","39","287696","0.0-3.0-1.16","<span style=""font-size:30px; font-family: monospace"">lugares</span>"," ","","exp-sent","lugares","","",""
"","1749","html-keyboard-response","40","289696","0.0-3.0-1.17","<span style=""font-size:30px; font-family: monospace"">diferentes</span>"," ","","exp-sent","diferentes","","",""
"","1221","html-keyboard-response","41","291168","0.0-3.0-1.18","<span style=""font-size:30px; font-family: monospace"">são</span>"," ","","exp-sent","são","","",""
"","1765","html-keyboard-response","42","293184","0.0-3.0-1.19","<span style=""font-size:30px; font-family: monospace"">muito</span>"," ","","exp-sent","muito","","",""
"","1157","html-keyboard-response","43","294592","0.0-3.0-1.20","<span style=""font-size:30px; font-family: monospace"">lindos.</span>"," ","","exp-sent","lindos.","","",""
"","null","html-keyboard-response","44","295844","0.0-3.0-0.21-0.21","<span style= ""font-size:30px; font-family: monospace"">+</span>","null","fixation","","","","",""
"","2367","html-keyboard-response","45","298464","0.0-3.0-1.21","<span style=""font-size:30px; font-family: monospace"">O</span>"," ","","exp-sent","O","","",""
"","1285","html-keyboard-response","46","300000","0.0-3.0-1.22","<span style=""font-size:30px; font-family: monospace"">médico</span>"," ","","exp-sent","médico","","",""
"","2406","html-keyboard-response","47","302656","0.0-3.0-1.23","<span style=""font-size:30px; font-family: monospace"">corrigiu</span>"," ","","exp-sent","corrigiu","","",""
"","949","html-keyboard-response","48","303857","0.0-3.0-1.24","<span style=""font-size:30px; font-family: monospace"">a</span>"," ","","exp-sent","a","","",""
"","1957","html-keyboard-response","49","306064","0.0-3.0-1.25","<span style=""font-size:30px; font-family: monospace"">postura</span>"," ","","exp-sent","postura","","",""
"","1253","html-keyboard-response","50","307568","0.0-3.0-1.26","<span style=""font-size:30px; font-family: monospace"">das</span>"," ","","exp-sent","das","","",""
"","1173","html-keyboard-response","51","308992","0.0-3.0-1.27","<span style=""font-size:30px; font-family: monospace"">costas</span>"," ","","exp-sent","costas","","",""
"","1173","html-keyboard-response","52","310415","0.0-3.0-1.28","<span style=""font-size:30px; font-family: monospace"">da</span>"," ","","exp-sent","da","","",""
"","8821","html-keyboard-response","53","319488","0.0-3.0-1.29","<span style=""font-size:30px; font-family: monospace"">pessoa.</span>"," ","","exp-sent","pessoa.","","",""
"","null","html-keyboard-response","54","320739","0.0-3.0-0.30-0.30","<span style= ""font-size:30px; font-family: monospace"">+</span>","null","fixation","","","","",""
"","1777","html-keyboard-response","55","322767","0.0-3.0-1.30","<span style=""font-size:30px; font-family: monospace"">Aquele</span>"," ","","exp-sent","Aquele","","",""
"","1077","html-keyboard-response","56","324095","0.0-3.0-1.31","<span style=""font-size:30px; font-family: monospace"">era</span>"," ","","exp-sent","era","","",""
"","885","html-keyboard-response","57","325231","0.0-3.0-1.32","<span style=""font-size:30px; font-family: monospace"">um</span>"," ","","exp-sent","um","","",""
"","1317","html-keyboard-response","58","326799","0.0-3.0-1.33","<span style=""font-size:30px; font-family: monospace"">caso</span>"," ","","exp-sent","caso","","",""
"","1109","html-keyboard-response","59","328159","0.0-3.0-1.34","<span style=""font-size:30px; font-family: monospace"">real</span>"," ","","exp-sent","real","","",""
"","1045","html-keyboard-response","60","329455","0.0-3.0-1.35","<span style=""font-size:30px; font-family: monospace"">de</span>"," ","","exp-sent","de","","",""
"","2149","html-keyboard-response","61","331855","0.0-3.0-1.36","<span style=""font-size:30px; font-family: monospace"">sequestro</span>"," ","","exp-sent","sequestro","","",""
"","11029","html-keyboard-response","62","343135","0.0-3.0-1.37","<span style=""font-size:30px; font-family: monospace"">premeditado.</span>"," ","","comp","premeditado.","","",""
"","131749","html-keyboard-response","63","475132","0.0-3.0-2.37-0.37","<span style=""font-size:30px; font-family: monospace"">Aquele era um caso real de roubo?</span>","s","","comp","","Aquele era um caso real de roubo?","não","false"
"","null","html-keyboard-response","64","476635","0.0-3.0-0.38-0.38","<span style= ""font-size:30px; font-family: monospace"">+</span>","null","fixation","","","","",""
"","3079","html-keyboard-response","65","479965","0.0-3.0-1.38","<span style=""font-size:30px; font-family: monospace"">Minha</span>"," ","","exp-sent","Minha","","",""
"","1189","html-keyboard-response","66","481405","0.0-3.0-1.39","<span style=""font-size:30px; font-family: monospace"">prima</span>"," ","","exp-sent","prima","","",""
"","1716","html-keyboard-response","67","483372","0.0-3.0-1.40","<span style=""font-size:30px; font-family: monospace"">trocou</span>"," ","","exp-sent","trocou","","",""
"","1125","html-keyboard-response","68","484749","0.0-3.0-1.41","<span style=""font-size:30px; font-family: monospace"">a</span>"," ","","exp-sent","a","","",""
"","1125","html-keyboard-response","69","486125","0.0-3.0-1.42","<span style=""font-size:30px; font-family: monospace"">tela</span>"," ","","exp-sent","tela","","",""
"","1061","html-keyboard-response","70","487437","0.0-3.0-1.43","<span style=""font-size:30px; font-family: monospace"">do</span>"," ","","exp-sent","do","","",""
"","1748","html-keyboard-response","71","489437","0.0-3.0-1.44","<span style=""font-size:30px; font-family: monospace"">celular</span>"," ","","exp-sent","celular","","",""
"","1269","html-keyboard-response","72","490957","0.0-3.0-1.45","<span style=""font-size:30px; font-family: monospace"">duas</span>"," ","","exp-sent","duas","","",""
"","4885","html-keyboard-response","73","496092","0.0-3.0-1.46","<span style=""font-size:30px; font-family: monospace"">vezes.</span>"," ","","exp-sent","vezes.","","",""
"","null","html-keyboard-response","74","497344","0.0-3.0-0.47-0.47","<span style= ""font-size:30px; font-family: monospace"">+</span>","null","fixation","","","","",""
"","1265","html-keyboard-response","75","498861","0.0-3.0-1.47","<span style=""font-size:30px; font-family: monospace"">Agora</span>"," ","","exp-sent","Agora","","",""
"","885","html-keyboard-response","76","499997","0.0-3.0-1.48","<span style=""font-size:30px; font-family: monospace"">a</span>"," ","","exp-sent","a","","",""
"","1077","html-keyboard-response","77","501325","0.0-3.0-1.49","<span style=""font-size:30px; font-family: monospace"">minha</span>"," ","","exp-sent","minha","","",""
"","1701","html-keyboard-response","78","503276","0.0-3.0-1.50","<span style=""font-size:30px; font-family: monospace"">única</span>"," ","","exp-sent","única","","",""
"","1893","html-keyboard-response","79","505421","0.0-3.0-1.51","<span style=""font-size:30px; font-family: monospace"">preocupação</span>"," ","","exp-sent","preocupação","","",""
"","868","html-keyboard-response","80","506541","0.0-3.0-1.52","<span style=""font-size:30px; font-family: monospace"">é</span>"," ","","exp-sent","é","","",""
"","948","html-keyboard-response","81","507741","0.0-3.0-1.53","<span style=""font-size:30px; font-family: monospace"">um</span>"," ","","exp-sent","um","","",""
"","2516","html-keyboard-response","82","510509","0.0-3.0-1.54","<span style=""font-size:30px; font-family: monospace"">descanso</span>"," ","","exp-sent","descanso","","",""
"","1973","html-keyboard-response","83","512732","0.0-3.0-1.55","<span style=""font-size:30px; font-family: monospace"">tranquilo.</span>"," ","","exp-sent","tranquilo.","","",""
"","null","html-keyboard-response","84","513984","0.0-3.0-0.56-0.56","<span style= ""font-size:30px; font-family: monospace"">+</span>","null","fixation","","","","",""
"","1234","html-keyboard-response","85","515469","0.0-3.0-1.56","<span style=""font-size:30px; font-family: monospace"">A</span>"," ","","exp-sent","A","","",""
"","1493","html-keyboard-response","86","517213","0.0-3.0-1.57","<span style=""font-size:30px; font-family: monospace"">criança</span>"," ","","exp-sent","criança","","",""
"","1268","html-keyboard-response","87","518732","0.0-3.0-1.58","<span style=""font-size:30px; font-family: monospace"">ganhou</span>"," ","","exp-sent","ganhou","","",""
"","1173","html-keyboard-response","88","520157","0.0-3.0-1.59","<span style=""font-size:30px; font-family: monospace"">um</span>"," ","","exp-sent","um","","",""
"","1557","html-keyboard-response","89","521965","0.0-3.0-1.60","<span style=""font-size:30px; font-family: monospace"">presente</span>"," ","","exp-sent","presente","","",""
"","2421","html-keyboard-response","90","524637","0.0-3.0-1.61","<span style=""font-size:30px; font-family: monospace"">maravilhoso.</span>"," ","","exp-sent","maravilhoso.","","",""
"","null","html-keyboard-response","91","525889","0.0-3.0-0.62-0.62","<span style= ""font-size:30px; font-family: monospace"">+</span>","null","fixation","","","","",""
"","1040","html-keyboard-response","92","527181","0.0-3.0-1.62","<span style=""font-size:30px; font-family: monospace"">Os</span>"," ","","exp-sent","Os","","",""
"","1621","html-keyboard-response","93","529052","0.0-3.0-1.63","<span style=""font-size:30px; font-family: monospace"">bichos</span>"," ","","exp-sent","bichos","","",""
"","1606","html-keyboard-response","94","530909","0.0-3.0-1.64","<span style=""font-size:30px; font-family: monospace"">têm</span>"," ","","exp-sent","têm","","",""
"","1493","html-keyboard-response","95","532653","0.0-3.0-1.65","<span style=""font-size:30px; font-family: monospace"">um</span>"," ","","exp-sent","um","","",""
"","3093","html-keyboard-response","96","535996","0.0-3.0-1.66","<span style=""font-size:30px; font-family: monospace"">instinto</span>"," ","","exp-sent","instinto","","",""
"","901","html-keyboard-response","97","537148","0.0-3.0-1.67","<span style=""font-size:30px; font-family: monospace"">de</span>"," ","","exp-sent","de","","",""
"","5061","html-keyboard-response","98","542460","0.0-3.0-1.68","<span style=""font-size:30px; font-family: monospace"">sobrevivência</span>"," ","","exp-sent","sobrevivência","","",""
"","1269","html-keyboard-response","99","543980","0.0-3.0-1.69","<span style=""font-size:30px; font-family: monospace"">forte.</span>"," ","","exp-sent","forte.","","",""
"","null","html-keyboard-response","100","545232","0.0-3.0-0.70-0.70","<span style= ""font-size:30px; font-family: monospace"">+</span>","null","fixation","","","","",""
"","2368","html-keyboard-response","101","547852","0.0-3.0-1.70","<span style=""font-size:30px; font-family: monospace"">Aquele</span>"," ","","exp-sent","Aquele","","",""
"","1509","html-keyboard-response","102","549612","0.0-3.0-1.71","<span style=""font-size:30px; font-family: monospace"">menino</span>"," ","","exp-sent","menino","","",""
"","1205","html-keyboard-response","103","551068","0.0-3.0-1.72","<span style=""font-size:30px; font-family: monospace"">alto</span>"," ","","exp-sent","alto","","",""
"","1350","html-keyboard-response","104","552668","0.0-3.0-1.73","<span style=""font-size:30px; font-family: monospace"">é</span>"," ","","exp-sent","é","","",""
"","2357","html-keyboard-response","105","555276","0.0-3.0-1.74","<span style=""font-size:30px; font-family: monospace"">exibido</span>"," ","","exp-sent","exibido","","",""
"","2837","html-keyboard-response","106","558364","0.0-3.0-1.75","<span style=""font-size:30px; font-family: monospace"">e</span>"," ","","exp-sent","e","","",""
"","1829","html-keyboard-response","107","560444","0.0-3.0-1.76","<span style=""font-size:30px; font-family: monospace"">sovina.</span>"," ","","comp","sovina.","","",""
"","43654","html-keyboard-response","108","604347","0.0-3.0-2.76-0.76","<span style=""font-size:30px; font-family: monospace"">Aquele menino é humilde?</span>","n","","comp","","Aquele menino é humilde?","não","false"
"","null","html-keyboard-response","109","605848","0.0-3.0-0.77-0.77","<span style= ""font-size:30px; font-family: monospace"">+</span>","null","fixation","","","","",""
"","1960","html-keyboard-response","110","608059","0.0-3.0-1.77","<span style=""font-size:30px; font-family: monospace"">A</span>"," ","","exp-sent","A","","",""
"","1632","html-keyboard-response","111","609947","0.0-3.0-1.78","<span style=""font-size:30px; font-family: monospace"">senhora</span>"," ","","exp-sent","senhora","","",""
"","8085","html-keyboard-response","112","618283","0.0-3.0-1.79","<span style=""font-size:30px; font-family: monospace"">cumprimentou</span>"," ","","exp-sent","cumprimentou","","",""
"","1365","html-keyboard-response","113","619899","0.0-3.0-1.80","<span style=""font-size:30px; font-family: monospace"">o</span>"," ","","exp-sent","o","","",""
"","3525","html-keyboard-response","114","623675","0.0-3.0-1.81","<span style=""font-size:30px; font-family: monospace"">operador</span>"," ","","exp-sent","operador","","",""
"","1061","html-keyboard-response","115","624987","0.0-3.0-1.82","<span style=""font-size:30px; font-family: monospace"">de</span>"," ","","exp-sent","de","","",""
"","1476","html-keyboard-response","116","626714","0.0-3.0-1.83","<span style=""font-size:30px; font-family: monospace"">caixa.</span>"," ","","exp-sent","caixa.","","",""
"","null","html-keyboard-response","117","627965","0.0-3.0-0.84-0.84","<span style= ""font-size:30px; font-family: monospace"">+</span>","null","fixation","","","","",""
"","1235","html-keyboard-response","118","629451","0.0-3.0-1.84","<span style=""font-size:30px; font-family: monospace"">A</span>"," ","","exp-sent","A","","",""
"","1285","html-keyboard-response","119","630987","0.0-3.0-1.85","<span style=""font-size:30px; font-family: monospace"">gente</span>"," ","","exp-sent","gente","","",""
"","1589","html-keyboard-response","120","632827","0.0-3.0-1.86","<span style=""font-size:30px; font-family: monospace"">viu</span>"," ","","exp-sent","viu","","",""
"","1045","html-keyboard-response","121","634123","0.0-3.0-1.87","<span style=""font-size:30px; font-family: monospace"">o</span>"," ","","exp-sent","o","","",""
"","4725","html-keyboard-response","122","639099","0.0-3.0-1.88","<span style=""font-size:30px; font-family: monospace"">eclipse</span>"," ","","exp-sent","eclipse","","",""
"","2248","html-keyboard-response","123","641611","0.0-3.0-1.89","<span style=""font-size:30px; font-family: monospace"">lunar</span>"," ","","exp-sent","lunar","","",""
"","3029","html-keyboard-response","124","644891","0.0-3.0-1.90","<span style=""font-size:30px; font-family: monospace"">durante</span>"," ","","exp-sent","durante","","",""
"","1012","html-keyboard-response","125","646155","0.0-3.0-1.91","<span style=""font-size:30px; font-family: monospace"">o</span>"," ","","exp-sent","o","","",""
"","1798","html-keyboard-response","126","648203","0.0-3.0-1.92","<span style=""font-size:30px; font-family: monospace"">dia.</span>"," ","","exp-sent","dia.","","",""
"","null","html-keyboard-response","127","649455","0.0-3.0-0.93-0.93","<span style= ""font-size:30px; font-family: monospace"">+</span>","null","fixation","","","","",""
"","833","html-keyboard-response","128","650539","0.0-3.0-1.93","<span style=""font-size:30px; font-family: monospace"">A</span>"," ","","exp-sent","A","","",""
"","2710","html-keyboard-response","129","653499","0.0-3.0-1.94","<span style=""font-size:30px; font-family: monospace"">mordida</span>"," ","","exp-sent","mordida","","",""
"","1141","html-keyboard-response","130","654891","0.0-3.0-1.95","<span style=""font-size:30px; font-family: monospace"">do</span>"," ","","exp-sent","do","","",""
"","1989","html-keyboard-response","131","657131","0.0-3.0-1.96","<span style=""font-size:30px; font-family: monospace"">cachorro</span>"," ","","exp-sent","cachorro","","",""
"","1493","html-keyboard-response","132","658875","0.0-3.0-1.97","<span style=""font-size:30px; font-family: monospace"">voraz</span>"," ","","exp-sent","voraz","","",""
"","1861","html-keyboard-response","133","660987","0.0-3.0-1.98","<span style=""font-size:30px; font-family: monospace"">causou</span>"," ","","exp-sent","causou","","",""
"","1925","html-keyboard-response","134","663163","0.0-3.0-1.99","<span style=""font-size:30px; font-family: monospace"">uma</span>"," ","","exp-sent","uma","","",""
"","2725","html-keyboard-response","135","666139","0.0-3.0-1.100","<span style=""font-size:30px; font-family: monospace"">cicatriz.</span>"," ","","exp-sent","cicatriz.","","",""
"","null","html-keyboard-response","136","667391","0.0-3.0-0.101-0.101","<span style= ""font-size:30px; font-family: monospace"">+</span>","null","fixation","","","","",""
"","1713","html-keyboard-response","137","669355","0.0-3.0-1.101","<span style=""font-size:30px; font-family: monospace"">Elas</span>"," ","","exp-sent","Elas","","",""
"","1077","html-keyboard-response","138","670683","0.0-3.0-1.102","<span style=""font-size:30px; font-family: monospace"">não</span>"," ","","exp-sent","não","","",""
"","1541","html-keyboard-response","139","672475","0.0-3.0-1.103","<span style=""font-size:30px; font-family: monospace"">viram</span>"," ","","exp-sent","viram","","",""
"","1925","html-keyboard-response","140","674651","0.0-3.0-1.104","<span style=""font-size:30px; font-family: monospace"">nenhuma</span>"," ","","exp-sent","nenhuma","","",""
"","2149","html-keyboard-response","141","677051","0.0-3.0-1.105","<span style=""font-size:30px; font-family: monospace"">diferença</span>"," ","","exp-sent","diferença","","",""
"","1445","html-keyboard-response","142","678747","0.0-3.0-1.106","<span style=""font-size:30px; font-family: monospace"">entre</span>"," ","","exp-sent","entre","","",""
"","1141","html-keyboard-response","143","680139","0.0-3.0-1.107","<span style=""font-size:30px; font-family: monospace"">os</span>"," ","","exp-sent","os","","",""
"","5396","html-keyboard-response","144","685787","0.0-3.0-1.108","<span style=""font-size:30px; font-family: monospace"">textos.</span>"," ","","exp-sent","textos.","","",""
"","null","html-keyboard-response","145","687043","0.0-3.0-0.109-0.109","<span style= ""font-size:30px; font-family: monospace"">+</span>","null","fixation","","","","",""
"","1197","html-keyboard-response","146","688491","0.0-3.0-1.109","<span style=""font-size:30px; font-family: monospace"">Amanhã</span>"," ","","exp-sent","Amanhã","","",""
"","916","html-keyboard-response","147","689659","0.0-3.0-1.110","<span style=""font-size:30px; font-family: monospace"">vai</span>"," ","","exp-sent","vai","","",""
"","1396","html-keyboard-response","148","691307","0.0-3.0-1.111","<span style=""font-size:30px; font-family: monospace"">ter</span>"," ","","exp-sent","ter","","",""
"","821","html-keyboard-response","149","692379","0.0-3.0-1.112","<span style=""font-size:30px; font-family: monospace"">um</span>"," ","","exp-sent","um","","",""
"","2566","html-keyboard-response","150","695195","0.0-3.0-1.113","<span style=""font-size:30px; font-family: monospace"">bazar</span>"," ","","exp-sent","bazar","","",""
"","933","html-keyboard-response","151","696378","0.0-3.0-1.114","<span style=""font-size:30px; font-family: monospace"">no</span>"," ","","exp-sent","no","","",""
"","1942","html-keyboard-response","152","698571","0.0-3.0-1.115","<span style=""font-size:30px; font-family: monospace"">bairro.</span>"," ","","comp","bairro.","","",""
"","153269","html-keyboard-response","153","852088","0.0-3.0-2.115-0.115","<span style=""font-size:30px; font-family: monospace"">Amanhã vai acontecer um bazar no bairro?</span>","n","","comp","","Amanhã vai acontecer um bazar no bairro?","sim","false"
"","null","html-keyboard-response","154","853590","0.0-3.0-0.116-0.116","<span style= ""font-size:30px; font-family: monospace"">+</span>","null","fixation","","","","",""
"","2583","html-keyboard-response","155","856424","0.0-3.0-1.116","<span style=""font-size:30px; font-family: monospace"">Ele</span>"," ","","exp-sent","Ele","","",""
"","1221","html-keyboard-response","156","857896","0.0-3.0-1.117","<span style=""font-size:30px; font-family: monospace"">é</span>"," ","","exp-sent","é","","",""
"","1188","html-keyboard-response","157","859336","0.0-3.0-1.118","<span style=""font-size:30px; font-family: monospace"">um</span>"," ","","exp-sent","um","","",""
"","2308","html-keyboard-response","158","861896","0.0-3.0-1.119","<span style=""font-size:30px; font-family: monospace"">pai</span>"," ","","exp-sent","pai","","",""
"","27093","html-keyboard-response","159","889240","0.0-3.0-1.120","<span style=""font-size:30px; font-family: monospace"">ausente</span>"," ","","exp-sent","ausente","","",""
"","1077","html-keyboard-response","160","890568","0.0-3.0-1.121","<span style=""font-size:30px; font-family: monospace"">e</span>"," ","","exp-sent","e","","",""
"","1284","html-keyboard-response","161","892104","0.0-3.0-1.122","<span style=""font-size:30px; font-family: monospace"">muito</span>"," ","","exp-sent","muito","","",""
"","3733","html-keyboard-response","162","896088","0.0-3.0-1.123","<span style=""font-size:30px; font-family: monospace"">fofoqueiro.</span>"," ","","exp-sent","fofoqueiro.","","",""
"","null","html-keyboard-response","163","897340","0.0-3.0-0.124-0.124","<span style= ""font-size:30px; font-family: monospace"">+</span>","null","fixation","","","","",""
"","625","html-keyboard-response","164","898216","0.0-3.0-1.124","<span style=""font-size:30px; font-family: monospace"">O</span>"," ","","exp-sent","O","","",""
"","1029","html-keyboard-response","165","899496","0.0-3.0-1.125","<span style=""font-size:30px; font-family: monospace"">filho</span>"," ","","exp-sent","filho","","",""
"","1172","html-keyboard-response","166","900920","0.0-3.0-1.126","<span style=""font-size:30px; font-family: monospace"">lavou</span>"," ","","exp-sent","lavou","","",""
"","853","html-keyboard-response","167","902024","0.0-3.0-1.127","<span style=""font-size:30px; font-family: monospace"">a</span>"," ","","exp-sent","a","","",""
"","1461","html-keyboard-response","168","903736","0.0-3.0-1.128","<span style=""font-size:30px; font-family: monospace"">roupa</span>"," ","","exp-sent","roupa","","",""
"","1221","html-keyboard-response","169","905208","0.0-3.0-1.129","<span style=""font-size:30px; font-family: monospace"">sem</span>"," ","","exp-sent","sem","","",""
"","1669","html-keyboard-response","170","907128","0.0-3.0-1.130","<span style=""font-size:30px; font-family: monospace"">nenhuma</span>"," ","","exp-sent","nenhuma","","",""
"","1686","html-keyboard-response","171","909064","0.0-3.0-1.131","<span style=""font-size:30px; font-family: monospace"">ajuda.</span>"," ","","exp-sent","ajuda.","","",""
"","null","html-keyboard-response","172","910316","0.0-3.0-0.132-0.132","<span style= ""font-size:30px; font-family: monospace"">+</span>","null","fixation","","","","",""
"","720","html-keyboard-response","173","911288","0.0-3.0-1.132","<span style=""font-size:30px; font-family: monospace"">O</span>"," ","","exp-sent","O","","",""
"","1077","html-keyboard-response","174","912615","0.0-3.0-1.133","<span style=""font-size:30px; font-family: monospace"">menino</span>"," ","","exp-sent","menino","","",""
"","2053","html-keyboard-response","175","914919","0.0-3.0-1.134","<span style=""font-size:30px; font-family: monospace"">quebrou</span>"," ","","exp-sent","quebrou","","",""
"","1045","html-keyboard-response","176","916215","0.0-3.0-1.135","<span style=""font-size:30px; font-family: monospace"">a</span>"," ","","exp-sent","a","","",""
"","1093","html-keyboard-response","177","917559","0.0-3.0-1.136","<span style=""font-size:30px; font-family: monospace"">perna</span>"," ","","exp-sent","perna","","",""
"","1013","html-keyboard-response","178","918823","0.0-3.0-1.137","<span style=""font-size:30px; font-family: monospace"">nos</span>"," ","","exp-sent","nos","","",""
"","1957","html-keyboard-response","179","921031","0.0-3.0-1.138","<span style=""font-size:30px; font-family: monospace"">esportes.</span>"," ","","exp-sent","esportes.","","",""
"","null","html-keyboard-response","180","922289","0.0-3.0-0.139-0.139","<span style= ""font-size:30px; font-family: monospace"">+</span>","null","fixation","","","","",""
"","891","html-keyboard-response","181","923431","0.0-3.0-1.139","<span style=""font-size:30px; font-family: monospace"">Ela</span>"," ","","exp-sent","Ela","","",""
"","2485","html-keyboard-response","182","926167","0.0-3.0-1.140","<span style=""font-size:30px; font-family: monospace"">brincou</span>"," ","","exp-sent","brincou","","",""
"","868","html-keyboard-response","183","927287","0.0-3.0-1.141","<span style=""font-size:30px; font-family: monospace"">com</span>"," ","","exp-sent","com","","",""
"","934","html-keyboard-response","184","928487","0.0-3.0-1.142","<span style=""font-size:30px; font-family: monospace"">uma</span>"," ","","exp-sent","uma","","",""
"","1701","html-keyboard-response","185","930439","0.0-3.0-1.143","<span style=""font-size:30px; font-family: monospace"">menina</span>"," ","","exp-sent","menina","","",""
"","965","html-keyboard-response","186","931655","0.0-3.0-1.144","<span style=""font-size:30px; font-family: monospace"">da</span>"," ","","exp-sent","da","","",""
"","2486","html-keyboard-response","187","934391","0.0-3.0-1.145","<span style=""font-size:30px; font-family: monospace"">turma.</span>"," ","","exp-sent","turma.","","",""
"","null","html-keyboard-response","188","935645","0.0-3.0-0.146-0.146","<span style= ""font-size:30px; font-family: monospace"">+</span>","null","fixation","","","","",""
"","1168","html-keyboard-response","189","937063","0.0-3.0-1.146","<span style=""font-size:30px; font-family: monospace"">Ele</span>"," ","","exp-sent","Ele","","",""
"","1540","html-keyboard-response","190","938855","0.0-3.0-1.147","<span style=""font-size:30px; font-family: monospace"">esteve</span>"," ","","exp-sent","esteve","","",""
"","852","html-keyboard-response","191","939959","0.0-3.0-1.148","<span style=""font-size:30px; font-family: monospace"">no</span>"," ","","exp-sent","no","","",""
"","1477","html-keyboard-response","192","941687","0.0-3.0-1.149","<span style=""font-size:30px; font-family: monospace"">escritório</span>"," ","","exp-sent","escritório","","",""
"","1140","html-keyboard-response","193","943079","0.0-3.0-1.150","<span style=""font-size:30px; font-family: monospace"">o</span>"," ","","exp-sent","o","","",""
"","1861","html-keyboard-response","194","945191","0.0-3.0-1.151","<span style=""font-size:30px; font-family: monospace"">dia</span>"," ","","exp-sent","dia","","",""
"","1444","html-keyboard-response","195","946887","0.0-3.0-1.152","<span style=""font-size:30px; font-family: monospace"">inteiro.</span>"," ","","comp","inteiro.","","",""
"","15813","html-keyboard-response","196","962951","0.0-3.0-2.152-0.152","<span style=""font-size:30px; font-family: monospace"">Ele esteve no parque o dia inteiro?</span>","s","","comp","","Ele esteve no parque o dia inteiro?","não","false"
"","null","html-keyboard-response","197","964453","0.0-3.0-0.153-0.153","<span style= ""font-size:30px; font-family: monospace"">+</span>","null","fixation","","","","",""
"","1703","html-keyboard-response","198","966407","0.0-3.0-1.153","<span style=""font-size:30px; font-family: monospace"">Eu</span>"," ","","exp-sent","Eu","","",""
"","1077","html-keyboard-response","199","967735","0.0-3.0-1.154","<span style=""font-size:30px; font-family: monospace"">gosto</span>"," ","","exp-sent","gosto","","",""
"","1013","html-keyboard-response","200","968999","0.0-3.0-1.155","<span style=""font-size:30px; font-family: monospace"">de</span>"," ","","exp-sent","de","","",""
"","1205","html-keyboard-response","201","970455","0.0-3.0-1.156","<span style=""font-size:30px; font-family: monospace"">molho</span>"," ","","exp-sent","molho","","",""
"","1380","html-keyboard-response","202","972087","0.0-3.0-1.157","<span style=""font-size:30px; font-family: monospace"">picante</span>"," ","","exp-sent","picante","","",""
"","1254","html-keyboard-response","203","973591","0.0-3.0-1.158","<span style=""font-size:30px; font-family: monospace"">nas</span>"," ","","exp-sent","nas","","",""
"","1461","html-keyboard-response","204","975303","0.0-3.0-1.159","<span style=""font-size:30px; font-family: monospace"">batatas.</span>"," ","","exp-sent","batatas.","","",""
"","null","html-keyboard-response","205","976555","0.0-3.0-0.160-0.160","<span style= ""font-size:30px; font-family: monospace"">+</span>","null","fixation","","","","",""
"","785","html-keyboard-response","206","977591","0.0-3.0-1.160","<span style=""font-size:30px; font-family: monospace"">As</span>"," ","","exp-sent","As","","",""
"","1749","html-keyboard-response","207","979591","0.0-3.0-1.161","<span style=""font-size:30px; font-family: monospace"">pessoas</span>"," ","","exp-sent","pessoas","","",""
"","1093","html-keyboard-response","208","980935","0.0-3.0-1.162","<span style=""font-size:30px; font-family: monospace"">têm</span>"," ","","exp-sent","têm","","",""
"","19750","html-keyboard-response","209","1000935","0.0-3.0-1.163","<span style=""font-size:30px; font-family: monospace"">sua</span>"," ","","exp-sent","sua","","",""
"","1749","html-keyboard-response","210","1002935","0.0-3.0-1.164","<span style=""font-size:30px; font-family: monospace"">liberdade</span>"," ","","exp-sent","liberdade","","",""
"","1152","html-keyboard-response","211","1004343","0.0-3.0-1.165","<span style=""font-size:30px; font-family: monospace"">até</span>"," ","","exp-sent","até","","",""
"","1269","html-keyboard-response","212","1005863","0.0-3.0-1.166","<span style=""font-size:30px; font-family: monospace"">certo</span>"," ","","exp-sent","certo","","",""
"","1061","html-keyboard-response","213","1007175","0.0-3.0-1.167","<span style=""font-size:30px; font-family: monospace"">ponto.</span>"," ","","exp-sent","ponto.","","",""
"","null","html-keyboard-response","214","1008427","0.0-3.0-0.168-0.168","<span style= ""font-size:30px; font-family: monospace"">+</span>","null","fixation","","","","",""
"","849","html-keyboard-response","215","1009526","0.0-3.0-1.168","<span style=""font-size:30px; font-family: monospace"">A</span>"," ","","exp-sent","A","","",""
"","1094","html-keyboard-response","216","1010871","0.0-3.0-1.169","<span style=""font-size:30px; font-family: monospace"">empresa</span>"," ","","exp-sent","empresa","","",""
"","981","html-keyboard-response","217","1012103","0.0-3.0-1.170","<span style=""font-size:30px; font-family: monospace"">enviou</span>"," ","","exp-sent","enviou","","",""
"","1157","html-keyboard-response","218","1013511","0.0-3.0-1.171","<span style=""font-size:30px; font-family: monospace"">o</span>"," ","","exp-sent","o","","",""
"","1637","html-keyboard-response","219","1015399","0.0-3.0-1.172","<span style=""font-size:30px; font-family: monospace"">aviso</span>"," ","","exp-sent","aviso","","",""
"","1013","html-keyboard-response","220","1016662","0.0-3.0-1.173","<span style=""font-size:30px; font-family: monospace"">hoje</span>"," ","","exp-sent","hoje","","",""
"","870","html-keyboard-response","221","1017783","0.0-3.0-1.174","<span style=""font-size:30px; font-family: monospace"">de</span>"," ","","exp-sent","de","","",""
"","1077","html-keyboard-response","222","1019111","0.0-3.0-1.175","<span style=""font-size:30px; font-family: monospace"">tarde.</span>"," ","","exp-sent","tarde.","","",""
"","null","html-keyboard-response","223","1020362","0.0-3.0-0.176-0.176","<span style= ""font-size:30px; font-family: monospace"">+</span>","null","fixation","","","","",""
"","641","html-keyboard-response","224","1021255","0.0-3.0-1.176","<span style=""font-size:30px; font-family: monospace"">A</span>"," ","","exp-sent","A","","",""
"","1125","html-keyboard-response","225","1022631","0.0-3.0-1.177","<span style=""font-size:30px; font-family: monospace"">loja</span>"," ","","exp-sent","loja","","",""
"","1044","html-keyboard-response","226","1023926","0.0-3.0-1.178","<span style=""font-size:30px; font-family: monospace"">vende</span>"," ","","exp-sent","vende","","",""
"","1253","html-keyboard-response","227","1025430","0.0-3.0-1.179","<span style=""font-size:30px; font-family: monospace"">tanto</span>"," ","","exp-sent","tanto","","",""
"","3878","html-keyboard-response","228","1029559","0.0-3.0-1.180","<span style=""font-size:30px; font-family: monospace"">frituras</span>"," ","","exp-sent","frituras","","",""
"","981","html-keyboard-response","229","1030791","0.0-3.0-1.181","<span style=""font-size:30px; font-family: monospace"">quanto</span>"," ","","exp-sent","quanto","","",""
"","1717","html-keyboard-response","230","1032759","0.0-3.0-1.182","<span style=""font-size:30px; font-family: monospace"">comidas</span>"," ","","exp-sent","comidas","","",""
"","965","html-keyboard-response","231","1033974","0.0-3.0-1.183","<span style=""font-size:30px; font-family: monospace"">leves.</span>"," ","","exp-sent","leves.","","",""
"","null","html-keyboard-response","232","1035225","0.0-3.0-0.184-0.184","<span style= ""font-size:30px; font-family: monospace"">+</span>","null","fixation","","","","",""
"","1506","html-keyboard-response","233","1036982","0.0-3.0-1.184","<span style=""font-size:30px; font-family: monospace"">As</span>"," ","","exp-sent","As","","",""
"","1541","html-keyboard-response","234","1038774","0.0-3.0-1.185","<span style=""font-size:30px; font-family: monospace"">cadeiras</span>"," ","","exp-sent","cadeiras","","",""
"","1123","html-keyboard-response","235","1040150","0.0-3.0-1.186","<span style=""font-size:30px; font-family: monospace"">azuis</span>"," ","","exp-sent","azuis","","",""
"","981","html-keyboard-response","236","1041382","0.0-3.0-1.187","<span style=""font-size:30px; font-family: monospace"">da</span>"," ","","exp-sent","da","","",""
"","1061","html-keyboard-response","237","1042694","0.0-3.0-1.188","<span style=""font-size:30px; font-family: monospace"">sala</span>"," ","","exp-sent","sala","","",""
"","1028","html-keyboard-response","238","1043974","0.0-3.0-1.189","<span style=""font-size:30px; font-family: monospace"">eram</span>"," ","","exp-sent","eram","","",""
"","2133","html-keyboard-response","239","1046358","0.0-3.0-1.190","<span style=""font-size:30px; font-family: monospace"">da</span>"," ","","exp-sent","da","","",""
"","4293","html-keyboard-response","240","1050902","0.0-3.0-1.191","<span style=""font-size:30px; font-family: monospace"">minha</span>"," ","","exp-sent","minha","","",""
"","1157","html-keyboard-response","241","1052310","0.0-3.0-1.192","<span style=""font-size:30px; font-family: monospace"">vó.</span>"," ","","comp","vó.","","",""
"","17158","html-keyboard-response","242","1069718","0.0-3.0-2.192-0.192","<span style=""font-size:30px; font-family: monospace"">As cadeiras eram da avó?</span>","n","","comp","","As cadeiras eram da avó?","sim","false"
"","null","html-keyboard-response","243","1071220","0.0-3.0-0.193-0.193","<span style= ""font-size:30px; font-family: monospace"">+</span>","null","fixation","","","","",""
"","1527","html-keyboard-response","244","1072998","0.0-3.0-1.193","<span style=""font-size:30px; font-family: monospace"">A</span>"," ","","exp-sent","A","","",""
"","1413","html-keyboard-response","245","1074662","0.0-3.0-1.194","<span style=""font-size:30px; font-family: monospace"">força</span>"," ","","exp-sent","força","","",""
"","1605","html-keyboard-response","246","1076518","0.0-3.0-1.195","<span style=""font-size:30px; font-family: monospace"">d'água</span>"," ","","exp-sent","d'água","","",""
"","1142","html-keyboard-response","247","1077910","0.0-3.0-1.196","<span style=""font-size:30px; font-family: monospace"">estava</span>"," ","","exp-sent","estava","","",""
"","1974","html-keyboard-response","248","1080134","0.0-3.0-1.197","<span style=""font-size:30px; font-family: monospace"">normal</span>"," ","","exp-sent","normal","","",""
"","1606","html-keyboard-response","249","1081990","0.0-3.0-1.198","<span style=""font-size:30px; font-family: monospace"">naquele</span>"," ","","exp-sent","naquele","","",""
"","1429","html-keyboard-response","250","1083670","0.0-3.0-1.199","<span style=""font-size:30px; font-family: monospace"">dia.</span>"," ","","exp-sent","dia.","","",""
"","null","html-keyboard-response","251","1084923","0.0-3.0-0.200-0.200","<span style= ""font-size:30px; font-family: monospace"">+</span>","null","fixation","","","","",""
"","720","html-keyboard-response","252","1085894","0.0-3.0-1.200","<span style=""font-size:30px; font-family: monospace"">A</span>"," ","","exp-sent","A","","",""
"","1669","html-keyboard-response","253","1087814","0.0-3.0-1.201","<span style=""font-size:30px; font-family: monospace"">médica</span>"," ","","exp-sent","médica","","",""
"","1653","html-keyboard-response","254","1089718","0.0-3.0-1.202","<span style=""font-size:30px; font-family: monospace"">ofereceu</span>"," ","","exp-sent","ofereceu","","",""
"","933","html-keyboard-response","255","1090902","0.0-3.0-1.203","<span style=""font-size:30px; font-family: monospace"">a</span>"," ","","exp-sent","a","","",""
"","1252","html-keyboard-response","256","1092406","0.0-3.0-1.204","<span style=""font-size:30px; font-family: monospace"">pomada</span>"," ","","exp-sent","pomada","","",""
"","885","html-keyboard-response","257","1093542","0.0-3.0-1.205","<span style=""font-size:30px; font-family: monospace"">para</span>"," ","","exp-sent","para","","",""
"","933","html-keyboard-response","258","1094725","0.0-3.0-1.206","<span style=""font-size:30px; font-family: monospace"">o</span>"," ","","exp-sent","o","","",""
"","1126","html-keyboard-response","259","1096102","0.0-3.0-1.207","<span style=""font-size:30px; font-family: monospace"">avô.</span>"," ","","exp-sent","avô.","","",""
"","null","html-keyboard-response","260","1097354","0.0-3.0-0.208-0.208","<span style= ""font-size:30px; font-family: monospace"">+</span>","null","fixation","","","","",""
"","1098","html-keyboard-response","261","1098710","0.0-3.0-1.208","<span style=""font-size:30px; font-family: monospace"">Ele</span>"," ","","exp-sent","Ele","","",""
"","1909","html-keyboard-response","262","1100870","0.0-3.0-1.209","<span style=""font-size:30px; font-family: monospace"">conversou</span>"," ","","exp-sent","conversou","","",""
"","982","html-keyboard-response","263","1102102","0.0-3.0-1.210","<span style=""font-size:30px; font-family: monospace"">com</span>"," ","","exp-sent","com","","",""
"","1077","html-keyboard-response","264","1103430","0.0-3.0-1.211","<span style=""font-size:30px; font-family: monospace"">o</span>"," ","","exp-sent","o","","",""
"","1285","html-keyboard-response","265","1104966","0.0-3.0-1.212","<span style=""font-size:30px; font-family: monospace"">patrão</span>"," ","","exp-sent","patrão","","",""
"","2133","html-keyboard-response","266","1107350","0.0-3.0-1.213","<span style=""font-size:30px; font-family: monospace"">durante</span>"," ","","exp-sent","durante","","",""
"","949","html-keyboard-response","267","1108550","0.0-3.0-1.214","<span style=""font-size:30px; font-family: monospace"">a</span>"," ","","exp-sent","a","","",""
"","1029","html-keyboard-response","268","1109830","0.0-3.0-1.215","<span style=""font-size:30px; font-family: monospace"">tarde.</span>"," ","","exp-sent","tarde.","","",""
"","null","html-keyboard-response","269","1111081","0.0-3.0-0.216-0.216","<span style= ""font-size:30px; font-family: monospace"">+</span>","null","fixation","","","","",""
"","5538","html-keyboard-response","270","1116870","0.0-3.0-1.216","<span style=""font-size:30px; font-family: monospace"">Algumas</span>"," ","","exp-sent","Algumas","","",""
"","2725","html-keyboard-response","271","1119846","0.0-3.0-1.217","<span style=""font-size:30px; font-family: monospace"">pessoas</span>"," ","","exp-sent","pessoas","","",""
"","1620","html-keyboard-response","272","1121718","0.0-3.0-1.218","<span style=""font-size:30px; font-family: monospace"">acreditam</span>"," ","","exp-sent","acreditam","","",""
"","1605","html-keyboard-response","273","1123574","0.0-3.0-1.219","<span style=""font-size:30px; font-family: monospace"">em</span>"," ","","exp-sent","em","","",""
"","2613","html-keyboard-response","274","1126438","0.0-3.0-1.220","<span style=""font-size:30px; font-family: monospace"">espíritos</span>"," ","","exp-sent","espíritos","","",""
"","805","html-keyboard-response","275","1127494","0.0-3.0-1.221","<span style=""font-size:30px; font-family: monospace"">e</span>"," ","","exp-sent","e","","",""
"","1093","html-keyboard-response","276","1128838","0.0-3.0-1.222","<span style=""font-size:30px; font-family: monospace"">em</span>"," ","","exp-sent","em","","",""
"","1701","html-keyboard-response","277","1130790","0.0-3.0-1.223","<span style=""font-size:30px; font-family: monospace"">outras</span>"," ","","exp-sent","outras","","",""
"","1237","html-keyboard-response","278","1132278","0.0-3.0-1.224","<span style=""font-size:30px; font-family: monospace"">vidas.</span>"," ","","exp-sent","vidas.","","",""
"","null","html-keyboard-response","279","1133529","0.0-3.0-0.225-0.225","<span style= ""font-size:30px; font-family: monospace"">+</span>","null","fixation","","","","",""
"","817","html-keyboard-response","280","1134598","0.0-3.0-1.225","<span style=""font-size:30px; font-family: monospace"">Ela</span>"," ","","exp-sent","Ela","","",""
"","981","html-keyboard-response","281","1135830","0.0-3.0-1.226","<span style=""font-size:30px; font-family: monospace"">gosta</span>"," ","","exp-sent","gosta","","",""
"","933","html-keyboard-response","282","1137014","0.0-3.0-1.227","<span style=""font-size:30px; font-family: monospace"">de</span>"," ","","exp-sent","de","","",""
"","1156","html-keyboard-response","283","1138422","0.0-3.0-1.228","<span style=""font-size:30px; font-family: monospace"">estudar</span>"," ","","exp-sent","estudar","","",""
"","1892","html-keyboard-response","284","1140565","0.0-3.0-1.229","<span style=""font-size:30px; font-family: monospace"">matemática</span>"," ","","exp-sent","matemática","","",""
"","965","html-keyboard-response","285","1141782","0.0-3.0-1.230","<span style=""font-size:30px; font-family: monospace"">com</span>"," ","","exp-sent","com","","",""
"","1861","html-keyboard-response","286","1143894","0.0-3.0-1.231","<span style=""font-size:30px; font-family: monospace"">colegas.</span>"," ","","comp","colegas.","","",""
"","13460","html-keyboard-response","287","1157604","0.0-3.0-2.231-0.231","<span style=""font-size:30px; font-family: monospace"">Ela gosta de estudar física?</span>","n","","comp","","Ela gosta de estudar física?","não","false"
"","null","html-keyboard-response","288","1159105","0.0-3.0-0.232-0.232","<span style= ""font-size:30px; font-family: monospace"">+</span>","null","fixation","","","","",""
"","24265","html-keyboard-response","289","1183621","0.0-3.0-1.232","<span style=""font-size:30px; font-family: monospace"">Ganhamos</span>"," ","","exp-sent","Ganhamos","","",""
"","885","html-keyboard-response","290","1184757","0.0-3.0-1.233","<span style=""font-size:30px; font-family: monospace"">passagem</span>"," ","","exp-sent","passagem","","",""
"","789","html-keyboard-response","291","1185797","0.0-3.0-1.234","<span style=""font-size:30px; font-family: monospace"">para</span>"," ","","exp-sent","para","","",""
"","773","html-keyboard-response","292","1186821","0.0-3.0-1.235","<span style=""font-size:30px; font-family: monospace"">uma</span>"," ","","exp-sent","uma","","",""
"","901","html-keyboard-response","293","1187973","0.0-3.0-1.236","<span style=""font-size:30px; font-family: monospace"">viagem</span>"," ","","exp-sent","viagem","","",""
"","709","html-keyboard-response","294","1188933","0.0-3.0-1.237","<span style=""font-size:30px; font-family: monospace"">de</span>"," ","","exp-sent","de","","",""
"","2228","html-keyboard-response","295","1191413","0.0-3.0-1.238","<span style=""font-size:30px; font-family: monospace"">férias.</span>"," ","","exp-sent","férias.","","",""
"","null","html-keyboard-response","296","1192664","0.0-3.0-0.239-0.239","<span style= ""font-size:30px; font-family: monospace"">+</span>","null","fixation","","","","",""
"","1409","html-keyboard-response","297","1194325","0.0-3.0-1.239","<span style=""font-size:30px; font-family: monospace"">Caiu</span>"," ","","exp-sent","Caiu","","",""
"","933","html-keyboard-response","298","1195509","0.0-3.0-1.240","<span style=""font-size:30px; font-family: monospace"">algo</span>"," ","","exp-sent","algo","","",""
"","677","html-keyboard-response","299","1196437","0.0-3.0-1.241","<span style=""font-size:30px; font-family: monospace"">no</span>"," ","","exp-sent","no","","",""
"","693","html-keyboard-response","300","1197381","0.0-3.0-1.242","<span style=""font-size:30px; font-family: monospace"">meu</span>"," ","","exp-sent","meu","","",""
"","1765","html-keyboard-response","301","1199397","0.0-3.0-1.243","<span style=""font-size:30px; font-family: monospace"">olho</span>"," ","","exp-sent","olho","","",""
"","836","html-keyboard-response","302","1200485","0.0-3.0-1.244","<span style=""font-size:30px; font-family: monospace"">ontem</span>"," ","","exp-sent","ontem","","",""
"","965","html-keyboard-response","303","1201701","0.0-3.0-1.245","<span style=""font-size:30px; font-family: monospace"">de</span>"," ","","exp-sent","de","","",""
"","1061","html-keyboard-response","304","1203013","0.0-3.0-1.246","<span style=""font-size:30px; font-family: monospace"">tarde.</span>"," ","","exp-sent","tarde.","","",""
"","null","html-keyboard-response","305","1204266","0.0-3.0-0.247-0.247","<span style= ""font-size:30px; font-family: monospace"">+</span>","null","fixation","","","","",""
"","927","html-keyboard-response","306","1205445","0.0-3.0-1.247","<span style=""font-size:30px; font-family: monospace"">Não</span>"," ","","exp-sent","Não","","",""
"","1653","html-keyboard-response","307","1207349","0.0-3.0-1.248","<span style=""font-size:30px; font-family: monospace"">havia</span>"," ","","exp-sent","havia","","",""
"","837","html-keyboard-response","308","1208437","0.0-3.0-1.249","<span style=""font-size:30px; font-family: monospace"">mais</span>"," ","","exp-sent","mais","","",""
"","981","html-keyboard-response","309","1209669","0.0-3.0-1.250","<span style=""font-size:30px; font-family: monospace"">nenhum</span>"," ","","exp-sent","nenhum","","",""
"","1189","html-keyboard-response","310","1211109","0.0-3.0-1.251","<span style=""font-size:30px; font-family: monospace"">ingresso</span>"," ","","exp-sent","ingresso","","",""
"","709","html-keyboard-response","311","1212069","0.0-3.0-1.252","<span style=""font-size:30px; font-family: monospace"">para</span>"," ","","exp-sent","para","","",""
"","821","html-keyboard-response","312","1213141","0.0-3.0-1.253","<span style=""font-size:30px; font-family: monospace"">o</span>"," ","","exp-sent","o","","",""
"","4773","html-keyboard-response","313","1218164","0.0-3.0-1.254","<span style=""font-size:30px; font-family: monospace"">evento.</span>"," ","","exp-sent","evento.","","",""
"","null","html-keyboard-response","314","1219416","0.0-3.0-0.255-0.255","<span style= ""font-size:30px; font-family: monospace"">+</span>","null","fixation","","","","",""
"","625","html-keyboard-response","315","1220292","0.0-3.0-1.255","<span style=""font-size:30px; font-family: monospace"">A</span>"," ","","exp-sent","A","","",""
"","1157","html-keyboard-response","316","1221700","0.0-3.0-1.256","<span style=""font-size:30px; font-family: monospace"">médica</span>"," ","","exp-sent","médica","","",""
"","1508","html-keyboard-response","317","1223459","0.0-3.0-1.257","<span style=""font-size:30px; font-family: monospace"">descobriu</span>"," ","","exp-sent","descobriu","","",""
"","869","html-keyboard-response","318","1224580","0.0-3.0-1.258","<span style=""font-size:30px; font-family: monospace"">uma</span>"," ","","exp-sent","uma","","",""
"","1173","html-keyboard-response","319","1226004","0.0-3.0-1.259","<span style=""font-size:30px; font-family: monospace"">cura</span>"," ","","exp-sent","cura","","",""
"","773","html-keyboard-response","320","1227027","0.0-3.0-1.260","<span style=""font-size:30px; font-family: monospace"">para</span>"," ","","exp-sent","para","","",""
"","1252","html-keyboard-response","321","1228532","0.0-3.0-1.261","<span style=""font-size:30px; font-family: monospace"">a</span>"," ","","exp-sent","a","","",""
"","1013","html-keyboard-response","322","1229796","0.0-3.0-1.262","<span style=""font-size:30px; font-family: monospace"">doença.</span>"," ","","exp-sent","doença.","","",""
"","null","html-keyboard-response","323","1231048","0.0-3.0-0.263-0.263","<span style= ""font-size:30px; font-family: monospace"">+</span>","null","fixation","","","","",""
"","1201","html-keyboard-response","324","1232500","0.0-3.0-1.263","<span style=""font-size:30px; font-family: monospace"">O</span>"," ","","exp-sent","O","","",""
"","1365","html-keyboard-response","325","1234116","0.0-3.0-1.264","<span style=""font-size:30px; font-family: monospace"">menino</span>"," ","","exp-sent","menino","","",""
"","1236","html-keyboard-response","326","1235604","0.0-3.0-1.265","<span style=""font-size:30px; font-family: monospace"">riscou</span>"," ","","exp-sent","riscou","","",""
"","1013","html-keyboard-response","327","1236868","0.0-3.0-1.266","<span style=""font-size:30px; font-family: monospace"">o</span>"," ","","exp-sent","o","","",""
"","1253","html-keyboard-response","328","1238372","0.0-3.0-1.267","<span style=""font-size:30px; font-family: monospace"">caderno</span>"," ","","exp-sent","caderno","","",""
"","885","html-keyboard-response","329","1239508","0.0-3.0-1.268","<span style=""font-size:30px; font-family: monospace"">com</span>"," ","","exp-sent","com","","",""
"","869","html-keyboard-response","330","1240628","0.0-3.0-1.269","<span style=""font-size:30px; font-family: monospace"">a</span>"," ","","exp-sent","a","","",""
"","1221","html-keyboard-response","331","1242100","0.0-3.0-1.270","<span style=""font-size:30px; font-family: monospace"">caneta.</span>"," ","","comp","caneta.","","",""
"","96693","html-keyboard-response","332","1339042","0.0-3.0-2.270-0.270","<span style=""font-size:30px; font-family: monospace"">O menino riscou a parede com a caneta?</span>","n","","comp","","O menino riscou a parede com a caneta?","não","false"
"","null","html-keyboard-response","333","1340543","0.0-3.0-0.271-0.271","<span style= ""font-size:30px; font-family: monospace"">+</span>","null","fixation","","","","",""
"","1096","html-keyboard-response","334","1341890","0.0-3.0-1.271","<span style=""font-size:30px; font-family: monospace"">No</span>"," ","","exp-sent","No","","",""
"","2021","html-keyboard-response","335","1344162","0.0-3.0-1.272","<span style=""font-size:30px; font-family: monospace"">passado</span>"," ","","exp-sent","passado","","",""
"","1381","html-keyboard-response","336","1345794","0.0-3.0-1.273","<span style=""font-size:30px; font-family: monospace"">houve</span>"," ","","exp-sent","houve","","",""
"","917","html-keyboard-response","337","1346962","0.0-3.0-1.274","<span style=""font-size:30px; font-family: monospace"">uma</span>"," ","","exp-sent","uma","","",""
"","1828","html-keyboard-response","338","1349042","0.0-3.0-1.275","<span style=""font-size:30px; font-family: monospace"">rebelião</span>"," ","","exp-sent","rebelião","","",""
"","917","html-keyboard-response","339","1350210","0.0-3.0-1.276","<span style=""font-size:30px; font-family: monospace"">nesta</span>"," ","","exp-sent","nesta","","",""
"","982","html-keyboard-response","340","1351442","0.0-3.0-1.277","<span style=""font-size:30px; font-family: monospace"">cidade.</span>"," ","","exp-sent","cidade.","","",""
"","null","html-keyboard-response","341","1352694","0.0-3.0-0.278-0.278","<span style= ""font-size:30px; font-family: monospace"">+</span>","null","fixation","","","","",""
"","769","html-keyboard-response","342","1353714","0.0-3.0-1.278","<span style=""font-size:30px; font-family: monospace"">Ele</span>"," ","","exp-sent","Ele","","",""
"","1125","html-keyboard-response","343","1355090","0.0-3.0-1.279","<span style=""font-size:30px; font-family: monospace"">fundou</span>"," ","","exp-sent","fundou","","",""
"","757","html-keyboard-response","344","1356098","0.0-3.0-1.280","<span style=""font-size:30px; font-family: monospace"">uma</span>"," ","","exp-sent","uma","","",""
"","1125","html-keyboard-response","345","1357474","0.0-3.0-1.281","<span style=""font-size:30px; font-family: monospace"">empresa</span>"," ","","exp-sent","empresa","","",""
"","1925","html-keyboard-response","346","1359650","0.0-3.0-1.282","<span style=""font-size:30px; font-family: monospace"">privada</span>"," ","","exp-sent","privada","","",""
"","1206","html-keyboard-response","347","1361106","0.0-3.0-1.283","<span style=""font-size:30px; font-family: monospace"">sem</span>"," ","","exp-sent","sem","","",""
"","1285","html-keyboard-response","348","1362642","0.0-3.0-1.284","<span style=""font-size:30px; font-family: monospace"">ajuda.</span>"," ","","exp-sent","ajuda.","","",""
"","null","html-keyboard-response","349","1363894","0.0-3.0-0.285-0.285","<span style= ""font-size:30px; font-family: monospace"">+</span>","null","fixation","","","","",""
"","641","html-keyboard-response","350","1364786","0.0-3.0-1.285","<span style=""font-size:30px; font-family: monospace"">As</span>"," ","","exp-sent","As","","",""
"","1109","html-keyboard-response","351","1366146","0.0-3.0-1.286","<span style=""font-size:30px; font-family: monospace"">meninas</span>"," ","","exp-sent","meninas","","",""
"","2261","html-keyboard-response","352","1368658","0.0-3.0-1.287","<span style=""font-size:30px; font-family: monospace"">encontraram</span>"," ","","exp-sent","encontraram","","",""
"","1109","html-keyboard-response","353","1370018","0.0-3.0-1.288","<span style=""font-size:30px; font-family: monospace"">um</span>"," ","","exp-sent","um","","",""
"","1141","html-keyboard-response","354","1371410","0.0-3.0-1.289","<span style=""font-size:30px; font-family: monospace"">rato</span>"," ","","exp-sent","rato","","",""
"","1092","html-keyboard-response","355","1372754","0.0-3.0-1.290","<span style=""font-size:30px; font-family: monospace"">dentro</span>"," ","","exp-sent","dentro","","",""
"","965","html-keyboard-response","356","1373970","0.0-3.0-1.291","<span style=""font-size:30px; font-family: monospace"">de</span>"," ","","exp-sent","de","","",""
"","1604","html-keyboard-response","357","1375826","0.0-3.0-1.292","<span style=""font-size:30px; font-family: monospace"">casa.</span>"," ","","exp-sent","casa.","","",""
"","null","html-keyboard-response","358","1377078","0.0-3.0-0.293-0.293","<span style= ""font-size:30px; font-family: monospace"">+</span>","null","fixation","","","","",""
"","642","html-keyboard-response","359","1377970","0.0-3.0-1.293","<span style=""font-size:30px; font-family: monospace"">O</span>"," ","","exp-sent","O","","",""
"","1141","html-keyboard-response","360","1379362","0.0-3.0-1.294","<span style=""font-size:30px; font-family: monospace"">texto</span>"," ","","exp-sent","texto","","",""
"","1621","html-keyboard-response","361","1381234","0.0-3.0-1.295","<span style=""font-size:30px; font-family: monospace"">tinha</span>"," ","","exp-sent","tinha","","",""
"","1877","html-keyboard-response","362","1383362","0.0-3.0-1.296","<span style=""font-size:30px; font-family: monospace"">ideias</span>"," ","","exp-sent","ideias","","",""
"","1125","html-keyboard-response","363","1384738","0.0-3.0-1.297","<span style=""font-size:30px; font-family: monospace"">vagas</span>"," ","","exp-sent","vagas","","",""
"","997","html-keyboard-response","364","1385986","0.0-3.0-1.298","<span style=""font-size:30px; font-family: monospace"">e</span>"," ","","exp-sent","e","","",""
"","3477","html-keyboard-response","365","1389714","0.0-3.0-1.299","<span style=""font-size:30px; font-family: monospace"">confusas.</span>"," ","","exp-sent","confusas.","","",""
"","null","html-keyboard-response","366","1390966","0.0-3.0-0.300-0.300","<span style= ""font-size:30px; font-family: monospace"">+</span>","null","fixation","","","","",""
"","1122","html-keyboard-response","367","1392338","0.0-3.0-1.300","<span style=""font-size:30px; font-family: monospace"">As</span>"," ","","exp-sent","As","","",""
"","965","html-keyboard-response","368","1393554","0.0-3.0-1.301","<span style=""font-size:30px; font-family: monospace"">crianças</span>"," ","","exp-sent","crianças","","",""
"","1045","html-keyboard-response","369","1394850","0.0-3.0-1.302","<span style=""font-size:30px; font-family: monospace"">viram</span>"," ","","exp-sent","viram","","",""
"","1316","html-keyboard-response","370","1396418","0.0-3.0-1.303","<span style=""font-size:30px; font-family: monospace"">a</span>"," ","","exp-sent","a","","",""
"","2741","html-keyboard-response","371","1399410","0.0-3.0-1.304","<span style=""font-size:30px; font-family: monospace"">acrobata</span>"," ","","exp-sent","acrobata","","",""
"","2037","html-keyboard-response","372","1401698","0.0-3.0-1.305","<span style=""font-size:30px; font-family: monospace"">talentosa</span>"," ","","exp-sent","talentosa","","",""
"","757","html-keyboard-response","373","1402706","0.0-3.0-1.306","<span style=""font-size:30px; font-family: monospace"">no</span>"," ","","exp-sent","no","","",""
"","1669","html-keyboard-response","374","1404626","0.0-3.0-1.307","<span style=""font-size:30px; font-family: monospace"">circo.</span>"," ","","comp","circo.","","",""
"","25509","html-keyboard-response","375","1430386","0.0-3.0-2.307-0.307","<span style=""font-size:30px; font-family: monospace"">As crianças viram o palhaço no circo?</span>","s","","comp","","As crianças viram o palhaço no circo?","não","false"
"","null","html-keyboard-response","376","1431889","0.0-3.0-0.308-0.308","<span style= ""font-size:30px; font-family: monospace"">+</span>","null","fixation","","","","",""
"","15318","html-keyboard-response","377","1447458","0.0-3.0-1.308","<span style=""font-size:30px; font-family: monospace"">O</span>"," ","","exp-sent","O","","",""
"","901","html-keyboard-response","378","1448610","0.0-3.0-1.309","<span style=""font-size:30px; font-family: monospace"">texto</span>"," ","","exp-sent","texto","","",""
"","2613","html-keyboard-response","379","1451474","0.0-3.0-1.310","<span style=""font-size:30px; font-family: monospace"">trazia</span>"," ","","exp-sent","trazia","","",""
"","709","html-keyboard-response","380","1452434","0.0-3.0-1.311","<span style=""font-size:30px; font-family: monospace"">um</span>"," ","","exp-sent","um","","",""
"","3173","html-keyboard-response","381","1455858","0.0-3.0-1.312","<span style=""font-size:30px; font-family: monospace"">argumento</span>"," ","","exp-sent","argumento","","",""
"","1909","html-keyboard-response","382","1458018","0.0-3.0-1.313","<span style=""font-size:30px; font-family: monospace"">central</span>"," ","","exp-sent","central","","",""
"","917","html-keyboard-response","383","1459186","0.0-3.0-1.314","<span style=""font-size:30px; font-family: monospace"">para</span>"," ","","exp-sent","para","","",""
"","789","html-keyboard-response","384","1460225","0.0-3.0-1.315","<span style=""font-size:30px; font-family: monospace"">a</span>"," ","","exp-sent","a","","",""
"","1925","html-keyboard-response","385","1462401","0.0-3.0-1.316","<span style=""font-size:30px; font-family: monospace"">conversa.</span>"," ","","exp-sent","conversa.","","",""
"","null","html-keyboard-response","386","1463653","0.0-3.0-0.317-0.317","<span style= ""font-size:30px; font-family: monospace"">+</span>","null","fixation","","","","",""
"","1008","html-keyboard-response","387","1464913","0.0-3.0-1.317","<span style=""font-size:30px; font-family: monospace"">Ontem</span>"," ","","exp-sent","Ontem","","",""
"","885","html-keyboard-response","388","1466049","0.0-3.0-1.318","<span style=""font-size:30px; font-family: monospace"">a</span>"," ","","exp-sent","a","","",""
"","2021","html-keyboard-response","389","1468321","0.0-3.0-1.319","<span style=""font-size:30px; font-family: monospace"">temperatura</span>"," ","","exp-sent","temperatura","","",""
"","1237","html-keyboard-response","390","1469809","0.0-3.0-1.320","<span style=""font-size:30px; font-family: monospace"">estava</span>"," ","","exp-sent","estava","","",""
"","1909","html-keyboard-response","391","1471969","0.0-3.0-1.321","<span style=""font-size:30px; font-family: monospace"">amena</span>"," ","","exp-sent","amena","","",""
"","1061","html-keyboard-response","392","1473281","0.0-3.0-1.322","<span style=""font-size:30px; font-family: monospace"">durante</span>"," ","","exp-sent","durante","","",""
"","869","html-keyboard-response","393","1474401","0.0-3.0-1.323","<span style=""font-size:30px; font-family: monospace"">o</span>"," ","","exp-sent","o","","",""
"","1301","html-keyboard-response","394","1475953","0.0-3.0-1.324","<span style=""font-size:30px; font-family: monospace"">dia.</span>"," ","","exp-sent","dia.","","",""
"","null","html-keyboard-response","395","1477205","0.0-3.0-0.325-0.325","<span style= ""font-size:30px; font-family: monospace"">+</span>","null","fixation","","","","",""
"","2193","html-keyboard-response","396","1479649","0.0-3.0-1.325","<span style=""font-size:30px; font-family: monospace"">Havia</span>"," ","","exp-sent","Havia","","",""
"","1077","html-keyboard-response","397","1480977","0.0-3.0-1.326","<span style=""font-size:30px; font-family: monospace"">um</span>"," ","","exp-sent","um","","",""
"","2901","html-keyboard-response","398","1484129","0.0-3.0-1.327","<span style=""font-size:30px; font-family: monospace"">machucado</span>"," ","","exp-sent","machucado","","",""
"","837","html-keyboard-response","399","1485217","0.0-3.0-1.328","<span style=""font-size:30px; font-family: monospace"">no</span>"," ","","exp-sent","no","","",""
"","1445","html-keyboard-response","400","1486913","0.0-3.0-1.329","<span style=""font-size:30px; font-family: monospace"">dedo</span>"," ","","exp-sent","dedo","","",""
"","949","html-keyboard-response","401","1488112","0.0-3.0-1.330","<span style=""font-size:30px; font-family: monospace"">da</span>"," ","","exp-sent","da","","",""
"","2438","html-keyboard-response","402","1490801","0.0-3.0-1.331","<span style=""font-size:30px; font-family: monospace"">criança.</span>"," ","","exp-sent","criança.","","",""
"","null","html-keyboard-response","403","1492053","0.0-3.0-0.332-0.332","<span style= ""font-size:30px; font-family: monospace"">+</span>","null","fixation","","","","",""
"","737","html-keyboard-response","404","1493040","0.0-3.0-1.332","<span style=""font-size:30px; font-family: monospace"">A</span>"," ","","exp-sent","A","","",""
"","4645","html-keyboard-response","405","1497937","0.0-3.0-1.333","<span style=""font-size:30px; font-family: monospace"">borboleta</span>"," ","","exp-sent","borboleta","","",""
"","1813","html-keyboard-response","406","1500001","0.0-3.0-1.334","<span style=""font-size:30px; font-family: monospace"">pousou</span>"," ","","exp-sent","pousou","","",""
"","1493","html-keyboard-response","407","1501745","0.0-3.0-1.335","<span style=""font-size:30px; font-family: monospace"">no</span>"," ","","exp-sent","no","","",""
"","1717","html-keyboard-response","408","1503713","0.0-3.0-1.336","<span style=""font-size:30px; font-family: monospace"">ombro</span>"," ","","exp-sent","ombro","","",""
"","2565","html-keyboard-response","409","1506529","0.0-3.0-1.337","<span style=""font-size:30px; font-family: monospace"">daquela</span>"," ","","exp-sent","daquela","","",""
"","2036","html-keyboard-response","410","1508817","0.0-3.0-1.338","<span style=""font-size:30px; font-family: monospace"">moça.</span>"," ","","exp-sent","moça.","","",""
"","null","html-keyboard-response","411","1510071","0.0-3.0-0.339-0.339","<span style= ""font-size:30px; font-family: monospace"">+</span>","null","fixation","","","","",""
"","1007","html-keyboard-response","412","1511329","0.0-3.0-1.339","<span style=""font-size:30px; font-family: monospace"">Eu</span>"," ","","exp-sent","Eu","","",""
"","1061","html-keyboard-response","413","1512641","0.0-3.0-1.340","<span style=""font-size:30px; font-family: monospace"">quero</span>"," ","","exp-sent","quero","","",""
"","1013","html-keyboard-response","414","1513905","0.0-3.0-1.341","<span style=""font-size:30px; font-family: monospace"">um</span>"," ","","exp-sent","um","","",""
"","2134","html-keyboard-response","415","1516289","0.0-3.0-1.342","<span style=""font-size:30px; font-family: monospace"">namorado</span>"," ","","exp-sent","namorado","","",""
"","3397","html-keyboard-response","416","1519936","0.0-3.0-1.343","<span style=""font-size:30px; font-family: monospace"">honesto</span>"," ","","exp-sent","honesto","","",""
"","1285","html-keyboard-response","417","1521472","0.0-3.0-1.344","<span style=""font-size:30px; font-family: monospace"">e</span>"," ","","exp-sent","e","","",""
"","2373","html-keyboard-response","418","1524097","0.0-3.0-1.345","<span style=""font-size:30px; font-family: monospace"">compreensivo.</span>"," ","","comp","compreensivo.","","",""
"","8693","html-keyboard-response","419","1533040","0.0-3.0-2.345-0.345","<span style=""font-size:30px; font-family: monospace"">Eu quero um namorado honesto?</span>","s","","comp","","Eu quero um namorado honesto?","sim","false"
"","null","html-keyboard-response","420","1534542","0.0-3.0-0.346-0.346","<span style= ""font-size:30px; font-family: monospace"">+</span>","null","fixation","","","","",""
"","5799","html-keyboard-response","421","1540592","0.0-3.0-1.346","<span style=""font-size:30px; font-family: monospace"">O</span>"," ","","exp-sent","O","","",""
"","1029","html-keyboard-response","422","1541872","0.0-3.0-1.347","<span style=""font-size:30px; font-family: monospace"">moço</span>"," ","","exp-sent","moço","","",""
"","1494","html-keyboard-response","423","1543616","0.0-3.0-1.348","<span style=""font-size:30px; font-family: monospace"">usou</span>"," ","","exp-sent","usou","","",""
"","981","html-keyboard-response","424","1544848","0.0-3.0-1.349","<span style=""font-size:30px; font-family: monospace"">várias</span>"," ","","exp-sent","várias","","",""
"","1268","html-keyboard-response","425","1546368","0.0-3.0-1.350","<span style=""font-size:30px; font-family: monospace"">velas</span>"," ","","exp-sent","velas","","",""
"","837","html-keyboard-response","426","1547456","0.0-3.0-1.351","<span style=""font-size:30px; font-family: monospace"">no</span>"," ","","exp-sent","no","","",""
"","2181","html-keyboard-response","427","1549889","0.0-3.0-1.352","<span style=""font-size:30px; font-family: monospace"">enfeite</span>"," ","","exp-sent","enfeite","","",""
"","996","html-keyboard-response","428","1551136","0.0-3.0-1.353","<span style=""font-size:30px; font-family: monospace"">de</span>"," ","","exp-sent","de","","",""
"","1621","html-keyboard-response","429","1553008","0.0-3.0-1.354","<span style=""font-size:30px; font-family: monospace"">mesa.</span>"," ","","exp-sent","mesa.","","",""
"","null","html-keyboard-response","430","1554260","0.0-3.0-0.355-0.355","<span style= ""font-size:30px; font-family: monospace"">+</span>","null","fixation","","","","",""
"","1441","html-keyboard-response","431","1555952","0.0-3.0-1.355","<span style=""font-size:30px; font-family: monospace"">Gostamos</span>"," ","","exp-sent","Gostamos","","",""
"","1508","html-keyboard-response","432","1557712","0.0-3.0-1.356","<span style=""font-size:30px; font-family: monospace"">de</span>"," ","","exp-sent","de","","",""
"","1910","html-keyboard-response","433","1559872","0.0-3.0-1.357","<span style=""font-size:30px; font-family: monospace"">suco</span>"," ","","exp-sent","suco","","",""
"","1253","html-keyboard-response","434","1561376","0.0-3.0-1.358","<span style=""font-size:30px; font-family: monospace"">em</span>"," ","","exp-sent","em","","",""
"","1940","html-keyboard-response","435","1563568","0.0-3.0-1.359","<span style=""font-size:30px; font-family: monospace"">garrafa</span>"," ","","exp-sent","garrafa","","",""
"","1220","html-keyboard-response","436","1565040","0.0-3.0-1.360","<span style=""font-size:30px; font-family: monospace"">de</span>"," ","","exp-sent","de","","",""
"","2965","html-keyboard-response","437","1568256","0.0-3.0-1.361","<span style=""font-size:30px; font-family: monospace"">tamanho</span>"," ","","exp-sent","tamanho","","",""
"","2005","html-keyboard-response","438","1570512","0.0-3.0-1.362","<span style=""font-size:30px; font-family: monospace"">pequeno.</span>"," ","","exp-sent","pequeno.","","",""
"","null","html-keyboard-response","439","1571763","0.0-3.0-0.363-0.363","<span style= ""font-size:30px; font-family: monospace"">+</span>","null","fixation","","","","",""
"","898","html-keyboard-response","440","1572912","0.0-3.0-1.363","<span style=""font-size:30px; font-family: monospace"">Sua</span>"," ","","exp-sent","Sua","","",""
"","1349","html-keyboard-response","441","1574512","0.0-3.0-1.364","<span style=""font-size:30px; font-family: monospace"">filha</span>"," ","","exp-sent","filha","","",""
"","1413","html-keyboard-response","442","1576176","0.0-3.0-1.365","<span style=""font-size:30px; font-family: monospace"">é</span>"," ","","exp-sent","é","","",""
"","1060","html-keyboard-response","443","1577488","0.0-3.0-1.366","<span style=""font-size:30px; font-family: monospace"">muito</span>"," ","","exp-sent","muito","","",""
"","1284","html-keyboard-response","444","1579024","0.0-3.0-1.367","<span style=""font-size:30px; font-family: monospace"">capaz</span>"," ","","exp-sent","capaz","","",""
"","1076","html-keyboard-response","445","1580352","0.0-3.0-1.368","<span style=""font-size:30px; font-family: monospace"">e</span>"," ","","exp-sent","e","","",""
"","3701","html-keyboard-response","446","1584304","0.0-3.0-1.369","<span style=""font-size:30px; font-family: monospace"">esforçada.</span>"," ","","exp-sent","esforçada.","","",""
"","null","html-keyboard-response","447","1585556","0.0-3.0-0.370-0.370","<span style= ""font-size:30px; font-family: monospace"">+</span>","null","fixation","","","","",""
"","1105","html-keyboard-response","448","1586912","0.0-3.0-1.370","<span style=""font-size:30px; font-family: monospace"">A</span>"," ","","exp-sent","A","","",""
"","1941","html-keyboard-response","449","1589104","0.0-3.0-1.371","<span style=""font-size:30px; font-family: monospace"">batida</span>"," ","","exp-sent","batida","","",""
"","1669","html-keyboard-response","450","1591024","0.0-3.0-1.372","<span style=""font-size:30px; font-family: monospace"">causou</span>"," ","","exp-sent","causou","","",""
"","1029","html-keyboard-response","451","1592304","0.0-3.0-1.373","<span style=""font-size:30px; font-family: monospace"">muita</span>"," ","","exp-sent","muita","","",""
"","2949","html-keyboard-response","452","1595504","0.0-3.0-1.374","<span style=""font-size:30px; font-family: monospace"">confusão</span>"," ","","exp-sent","confusão","","",""
"","996","html-keyboard-response","453","1596752","0.0-3.0-1.375","<span style=""font-size:30px; font-family: monospace"">na</span>"," ","","exp-sent","na","","",""
"","3333","html-keyboard-response","454","1600336","0.0-3.0-1.376","<span style=""font-size:30px; font-family: monospace"">estrada.</span>"," ","","exp-sent","estrada.","","",""
"","null","html-keyboard-response","455","1601588","0.0-3.0-0.377-0.377","<span style= ""font-size:30px; font-family: monospace"">+</span>","null","fixation","","","","",""
"","813","html-keyboard-response","456","1602656","0.0-3.0-1.377","<span style=""font-size:30px; font-family: monospace"">Eu</span>"," ","","exp-sent","Eu","","",""
"","2933","html-keyboard-response","457","1605840","0.0-3.0-1.378","<span style=""font-size:30px; font-family: monospace"">cozinhei</span>"," ","","exp-sent","cozinhei","","",""
"","1285","html-keyboard-response","458","1607376","0.0-3.0-1.379","<span style=""font-size:30px; font-family: monospace"">um</span>"," ","","exp-sent","um","","",""
"","1333","html-keyboard-response","459","1608960","0.0-3.0-1.380","<span style=""font-size:30px; font-family: monospace"">almoço</span>"," ","","exp-sent","almoço","","",""
"","2148","html-keyboard-response","460","1611359","0.0-3.0-1.381","<span style=""font-size:30px; font-family: monospace"">nutritivo</span>"," ","","exp-sent","nutritivo","","",""
"","1142","html-keyboard-response","461","1612752","0.0-3.0-1.382","<span style=""font-size:30px; font-family: monospace"">para</span>"," ","","exp-sent","para","","",""
"","2308","html-keyboard-response","462","1615312","0.0-3.0-1.383","<span style=""font-size:30px; font-family: monospace"">hoje.</span>"," ","","comp","hoje.","","",""
"","64213","html-keyboard-response","463","1679775","0.0-3.0-2.383-0.383","<span style=""font-size:30px; font-family: monospace"">O almoço era nutritivo?</span>","s","","comp","","O almoço era nutritivo?","sim","false"
"","null","html-keyboard-response","464","1681276","0.0-3.0-0.384-0.384","<span style= ""font-size:30px; font-family: monospace"">+</span>","null","fixation","","","","",""
"","2071","html-keyboard-response","465","1683598","0.0-3.0-1.384","<span style=""font-size:30px; font-family: monospace"">A</span>"," ","","exp-sent","A","","",""
"","7318","html-keyboard-response","466","1691166","0.0-3.0-1.385","<span style=""font-size:30px; font-family: monospace"">motorista</span>"," ","","exp-sent","motorista","","",""
"","1189","html-keyboard-response","467","1692606","0.0-3.0-1.386","<span style=""font-size:30px; font-family: monospace"">fez</span>"," ","","exp-sent","fez","","",""
"","756","html-keyboard-response","468","1693614","0.0-3.0-1.387","<span style=""font-size:30px; font-family: monospace"">o</span>"," ","","exp-sent","o","","",""
"","1509","html-keyboard-response","469","1695374","0.0-3.0-1.388","<span style=""font-size:30px; font-family: monospace"">retorno</span>"," ","","exp-sent","retorno","","",""
"","693","html-keyboard-response","470","1696318","0.0-3.0-1.389","<span style=""font-size:30px; font-family: monospace"">com</span>"," ","","exp-sent","com","","",""
"","1941","html-keyboard-response","471","1698510","0.0-3.0-1.390","<span style=""font-size:30px; font-family: monospace"">cuidado.</span>"," ","","exp-sent","cuidado.","","",""
"","null","html-keyboard-response","472","1699762","0.0-3.0-0.391-0.391","<span style= ""font-size:30px; font-family: monospace"">+</span>","null","fixation","","","","",""
"","2337","html-keyboard-response","473","1702350","0.0-3.0-1.391","<span style=""font-size:30px; font-family: monospace"">Contos</span>"," ","","exp-sent","Contos","","",""
"","1221","html-keyboard-response","474","1703822","0.0-3.0-1.392","<span style=""font-size:30px; font-family: monospace"">de</span>"," ","","exp-sent","de","","",""
"","2181","html-keyboard-response","475","1706254","0.0-3.0-1.393","<span style=""font-size:30px; font-family: monospace"">ação</span>"," ","","exp-sent","ação","","",""
"","917","html-keyboard-response","476","1707422","0.0-3.0-1.394","<span style=""font-size:30px; font-family: monospace"">têm</span>"," ","","exp-sent","têm","","",""
"","2565","html-keyboard-response","477","1710238","0.0-3.0-1.395","<span style=""font-size:30px; font-family: monospace"">chantagem</span>"," ","","exp-sent","chantagem","","",""
"","1093","html-keyboard-response","478","1711582","0.0-3.0-1.396","<span style=""font-size:30px; font-family: monospace"">e</span>"," ","","exp-sent","e","","",""
"","1541","html-keyboard-response","479","1713374","0.0-3.0-1.397","<span style=""font-size:30px; font-family: monospace"">muita</span>"," ","","exp-sent","muita","","",""
"","1045","html-keyboard-response","480","1714670","0.0-3.0-1.398","<span style=""font-size:30px; font-family: monospace"">luta.</span>"," ","","exp-sent","luta.","","",""
"","null","html-keyboard-response","481","1715922","0.0-3.0-0.399-0.399","<span style= ""font-size:30px; font-family: monospace"">+</span>","null","fixation","","","","",""
"","769","html-keyboard-response","482","1716942","0.0-3.0-1.399","<span style=""font-size:30px; font-family: monospace"">A</span>"," ","","exp-sent","A","","",""
"","4213","html-keyboard-response","483","1721406","0.0-3.0-1.400","<span style=""font-size:30px; font-family: monospace"">bisavó</span>"," ","","exp-sent","bisavó","","",""
"","1781","html-keyboard-response","484","1723439","0.0-3.0-1.401","<span style=""font-size:30px; font-family: monospace"">recebeu</span>"," ","","exp-sent","recebeu","","",""
"","965","html-keyboard-response","485","1724654","0.0-3.0-1.402","<span style=""font-size:30px; font-family: monospace"">um</span>"," ","","exp-sent","um","","",""
"","1828","html-keyboard-response","486","1726734","0.0-3.0-1.403","<span style=""font-size:30px; font-family: monospace"">benefício</span>"," ","","exp-sent","benefício","","",""
"","3509","html-keyboard-response","487","1730494","0.0-3.0-1.404","<span style=""font-size:30px; font-family: monospace"">temporário</span>"," ","","exp-sent","temporário","","",""
"","725","html-keyboard-response","488","1731470","0.0-3.0-1.405","<span style=""font-size:30px; font-family: monospace"">do</span>"," ","","exp-sent","do","","",""
"","1701","html-keyboard-response","489","1733422","0.0-3.0-1.406","<span style=""font-size:30px; font-family: monospace"">governo.</span>"," ","","exp-sent","governo.","","",""
"","null","html-keyboard-response","490","1734674","0.0-3.0-0.407-0.407","<span style= ""font-size:30px; font-family: monospace"">+</span>","null","fixation","","","","",""
"","690","html-keyboard-response","491","1735614","0.0-3.0-1.407","<span style=""font-size:30px; font-family: monospace"">As</span>"," ","","exp-sent","As","","",""
"","1093","html-keyboard-response","492","1736958","0.0-3.0-1.408","<span style=""font-size:30px; font-family: monospace"">crianças</span>"," ","","exp-sent","crianças","","",""
"","2421","html-keyboard-response","493","1739630","0.0-3.0-1.409","<span style=""font-size:30px; font-family: monospace"">brincaram</span>"," ","","exp-sent","brincaram","","",""
"","822","html-keyboard-response","494","1740702","0.0-3.0-1.410","<span style=""font-size:30px; font-family: monospace"">no</span>"," ","","exp-sent","no","","",""
"","1189","html-keyboard-response","495","1742142","0.0-3.0-1.411","<span style=""font-size:30px; font-family: monospace"">balanço</span>"," ","","exp-sent","balanço","","",""
"","853","html-keyboard-response","496","1743246","0.0-3.0-1.412","<span style=""font-size:30px; font-family: monospace"">a</span>"," ","","exp-sent","a","","",""
"","1381","html-keyboard-response","497","1744877","0.0-3.0-1.413","<span style=""font-size:30px; font-family: monospace"">tarde</span>"," ","","exp-sent","tarde","","",""
"","1125","html-keyboard-response","498","1746253","0.0-3.0-1.414","<span style=""font-size:30px; font-family: monospace"">toda.</span>"," ","","exp-sent","toda.","","",""
"","null","html-keyboard-response","499","1747506","0.0-3.0-0.415-0.415","<span style= ""font-size:30px; font-family: monospace"">+</span>","null","fixation","","","","",""
"","666","html-keyboard-response","500","1748430","0.0-3.0-1.415","<span style=""font-size:30px; font-family: monospace"">Ela</span>"," ","","exp-sent","Ela","","",""
"","885","html-keyboard-response","501","1749566","0.0-3.0-1.416","<span style=""font-size:30px; font-family: monospace"">gosta</span>"," ","","exp-sent","gosta","","",""
"","853","html-keyboard-response","502","1750670","0.0-3.0-1.417","<span style=""font-size:30px; font-family: monospace"">de</span>"," ","","exp-sent","de","","",""
"","916","html-keyboard-response","503","1751837","0.0-3.0-1.418","<span style=""font-size:30px; font-family: monospace"">comida</span>"," ","","exp-sent","comida","","",""
"","1125","html-keyboard-response","504","1753214","0.0-3.0-1.419","<span style=""font-size:30px; font-family: monospace"">natural</span>"," ","","exp-sent","natural","","",""
"","837","html-keyboard-response","505","1754302","0.0-3.0-1.420","<span style=""font-size:30px; font-family: monospace"">no</span>"," ","","exp-sent","no","","",""
"","949","html-keyboard-response","506","1755502","0.0-3.0-1.421","<span style=""font-size:30px; font-family: monospace"">almoço.</span>"," ","","comp","almoço.","","",""
"","72389","html-keyboard-response","507","1828141","0.0-3.0-2.421-0.421","<span style=""font-size:30px; font-family: monospace"">Ela gosta de comida natural no almoço?</span>","s","","comp","","Ela gosta de comida natural no almoço?","sim","false"
"","null","html-keyboard-response","508","1829643","0.0-3.0-0.422-0.422","<span style= ""font-size:30px; font-family: monospace"">+</span>","null","fixation","","","","",""
"","1927","html-keyboard-response","509","1831821","0.0-3.0-1.422","<span style=""font-size:30px; font-family: monospace"">As</span>"," ","","exp-sent","As","","",""
"","1316","html-keyboard-response","510","1833389","0.0-3.0-1.423","<span style=""font-size:30px; font-family: monospace"">crianças</span>"," ","","exp-sent","crianças","","",""
"","1733","html-keyboard-response","511","1835373","0.0-3.0-1.424","<span style=""font-size:30px; font-family: monospace"">viram</span>"," ","","exp-sent","viram","","",""
"","773","html-keyboard-response","512","1836397","0.0-3.0-1.425","<span style=""font-size:30px; font-family: monospace"">um</span>"," ","","exp-sent","um","","",""
"","3093","html-keyboard-response","513","1839741","0.0-3.0-1.426","<span style=""font-size:30px; font-family: monospace"">vaga-lume</span>"," ","","exp-sent","vaga-lume","","",""
"","917","html-keyboard-response","514","1840909","0.0-3.0-1.427","<span style=""font-size:30px; font-family: monospace"">nos</span>"," ","","exp-sent","nos","","",""
"","2677","html-keyboard-response","515","1843837","0.0-3.0-1.428","<span style=""font-size:30px; font-family: monospace"">arbustos.</span>"," ","","exp-sent","arbustos.","","",""
"","null","html-keyboard-response","516","1845089","0.0-3.0-0.429-0.429","<span style= ""font-size:30px; font-family: monospace"">+</span>","null","fixation","","","","",""
"","1776","html-keyboard-response","517","1847117","0.0-3.0-1.429","<span style=""font-size:30px; font-family: monospace"">Ontem</span>"," ","","exp-sent","Ontem","","",""
"","789","html-keyboard-response","518","1848157","0.0-3.0-1.430","<span style=""font-size:30px; font-family: monospace"">o</span>"," ","","exp-sent","o","","",""
"","1845","html-keyboard-response","519","1850253","0.0-3.0-1.431","<span style=""font-size:30px; font-family: monospace"">funcionário</span>"," ","","exp-sent","funcionário","","",""
"","2229","html-keyboard-response","520","1852733","0.0-3.0-1.432","<span style=""font-size:30px; font-family: monospace"">pediu</span>"," ","","exp-sent","pediu","","",""
"","1781","html-keyboard-response","521","1854765","0.0-3.0-1.433","<span style=""font-size:30px; font-family: monospace"">autorização</span>"," ","","exp-sent","autorização","","",""
"","1060","html-keyboard-response","522","1856077","0.0-3.0-1.434","<span style=""font-size:30px; font-family: monospace"">para</span>"," ","","exp-sent","para","","",""
"","949","html-keyboard-response","523","1857277","0.0-3.0-1.435","<span style=""font-size:30px; font-family: monospace"">a</span>"," ","","exp-sent","a","","",""
"","1525","html-keyboard-response","524","1859053","0.0-3.0-1.436","<span style=""font-size:30px; font-family: monospace"">colega.</span>"," ","","exp-sent","colega.","","",""
"","null","html-keyboard-response","525","1860305","0.0-3.0-0.437-0.437","<span style= ""font-size:30px; font-family: monospace"">+</span>","null","fixation","","","","",""
"","976","html-keyboard-response","526","1861533","0.0-3.0-1.437","<span style=""font-size:30px; font-family: monospace"">Eu</span>"," ","","exp-sent","Eu","","",""
"","981","html-keyboard-response","527","1862765","0.0-3.0-1.438","<span style=""font-size:30px; font-family: monospace"">sempre</span>"," ","","exp-sent","sempre","","",""
"","1845","html-keyboard-response","528","1864861","0.0-3.0-1.439","<span style=""font-size:30px; font-family: monospace"">fujo</span>"," ","","exp-sent","fujo","","",""
"","821","html-keyboard-response","529","1865933","0.0-3.0-1.440","<span style=""font-size:30px; font-family: monospace"">de</span>"," ","","exp-sent","de","","",""
"","1717","html-keyboard-response","530","1867901","0.0-3.0-1.441","<span style=""font-size:30px; font-family: monospace"">conflito</span>"," ","","exp-sent","conflito","","",""
"","933","html-keyboard-response","531","1869085","0.0-3.0-1.442","<span style=""font-size:30px; font-family: monospace"">com</span>"," ","","exp-sent","com","","",""
"","917","html-keyboard-response","532","1870253","0.0-3.0-1.443","<span style=""font-size:30px; font-family: monospace"">as</span>"," ","","exp-sent","as","","",""
"","1845","html-keyboard-response","533","1872349","0.0-3.0-1.444","<span style=""font-size:30px; font-family: monospace"">pessoas.</span>"," ","","exp-sent","pessoas.","","",""
"","null","html-keyboard-response","534","1873601","0.0-3.0-0.445-0.445","<span style= ""font-size:30px; font-family: monospace"">+</span>","null","fixation","","","","",""
"","960","html-keyboard-response","535","1874813","0.0-3.0-1.445","<span style=""font-size:30px; font-family: monospace"">O</span>"," ","","exp-sent","O","","",""
"","1317","html-keyboard-response","536","1876381","0.0-3.0-1.446","<span style=""font-size:30px; font-family: monospace"">bolo</span>"," ","","exp-sent","bolo","","",""
"","1413","html-keyboard-response","537","1878045","0.0-3.0-1.447","<span style=""font-size:30px; font-family: monospace"">era</span>"," ","","exp-sent","era","","",""
"","965","html-keyboard-response","538","1879261","0.0-3.0-1.448","<span style=""font-size:30px; font-family: monospace"">de</span>"," ","","exp-sent","de","","",""
"","1525","html-keyboard-response","539","1881037","0.0-3.0-1.449","<span style=""font-size:30px; font-family: monospace"">abacaxi</span>"," ","","exp-sent","abacaxi","","",""
"","1061","html-keyboard-response","540","1882349","0.0-3.0-1.450","<span style=""font-size:30px; font-family: monospace"">e</span>"," ","","exp-sent","e","","",""
"","1046","html-keyboard-response","541","1883645","0.0-3.0-1.451","<span style=""font-size:30px; font-family: monospace"">creme</span>"," ","","exp-sent","creme","","",""
"","997","html-keyboard-response","542","1884892","0.0-3.0-1.452","<span style=""font-size:30px; font-family: monospace"">de</span>"," ","","exp-sent","de","","",""
"","2598","html-keyboard-response","543","1887741","0.0-3.0-1.453","<span style=""font-size:30px; font-family: monospace"">coco.</span>"," ","","exp-sent","coco.","","",""
"","null","html-keyboard-response","544","1888993","0.0-3.0-0.454-0.454","<span style= ""font-size:30px; font-family: monospace"">+</span>","null","fixation","","","","",""
"","770","html-keyboard-response","545","1890013","0.0-3.0-1.454","<span style=""font-size:30px; font-family: monospace"">As</span>"," ","","exp-sent","As","","",""
"","997","html-keyboard-response","546","1891261","0.0-3.0-1.455","<span style=""font-size:30px; font-family: monospace"">crianças</span>"," ","","exp-sent","crianças","","",""
"","1525","html-keyboard-response","547","1893037","0.0-3.0-1.456","<span style=""font-size:30px; font-family: monospace"">brincaram</span>"," ","","exp-sent","brincaram","","",""
"","805","html-keyboard-response","548","1894093","0.0-3.0-1.457","<span style=""font-size:30px; font-family: monospace"">com</span>"," ","","exp-sent","com","","",""
"","1717","html-keyboard-response","549","1896061","0.0-3.0-1.458","<span style=""font-size:30px; font-family: monospace"">bolhas</span>"," ","","exp-sent","bolhas","","",""
"","804","html-keyboard-response","550","1897117","0.0-3.0-1.459","<span style=""font-size:30px; font-family: monospace"">no</span>"," ","","exp-sent","no","","",""
"","1013","html-keyboard-response","551","1898381","0.0-3.0-1.460","<span style=""font-size:30px; font-family: monospace"">banho.</span>"," ","","comp","banho.","","",""
"","11572","html-keyboard-response","552","1910205","0.0-3.0-2.460-0.460","<span style=""font-size:30px; font-family: monospace"">As crianças brincaram com bolhas?</span>","n","","comp","","As crianças brincaram com bolhas?","sim","false"
"","null","html-keyboard-response","553","1911708","0.0-3.0-0.461-0.461","<span style= ""font-size:30px; font-family: monospace"">+</span>","null","fixation","","","","",""
"","3127","html-keyboard-response","554","1915085","0.0-3.0-1.461","<span style=""font-size:30px; font-family: monospace"">O</span>"," ","","exp-sent","O","","",""
"","2693","html-keyboard-response","555","1918029","0.0-3.0-1.462","<span style=""font-size:30px; font-family: monospace"">travesseiro</span>"," ","","exp-sent","travesseiro","","",""
"","1461","html-keyboard-response","556","1919741","0.0-3.0-1.463","<span style=""font-size:30px; font-family: monospace"">era</span>"," ","","exp-sent","era","","",""
"","1429","html-keyboard-response","557","1921421","0.0-3.0-1.464","<span style=""font-size:30px; font-family: monospace"">muito</span>"," ","","exp-sent","muito","","",""
"","3365","html-keyboard-response","558","1925037","0.0-3.0-1.465","<span style=""font-size:30px; font-family: monospace"">macio</span>"," ","","exp-sent","macio","","",""
"","1141","html-keyboard-response","559","1926429","0.0-3.0-1.466","<span style=""font-size:30px; font-family: monospace"">e</span>"," ","","exp-sent","e","","",""
"","2533","html-keyboard-response","560","1929213","0.0-3.0-1.467","<span style=""font-size:30px; font-family: monospace"">confortável.</span>"," ","","exp-sent","confortável.","","",""
"","null","html-keyboard-response","561","1930464","0.0-3.0-0.468-0.468","<span style= ""font-size:30px; font-family: monospace"">+</span>","null","fixation","","","","",""
"","881","html-keyboard-response","562","1931597","0.0-3.0-1.468","<span style=""font-size:30px; font-family: monospace"">Hoje</span>"," ","","exp-sent","Hoje","","",""
"","901","html-keyboard-response","563","1932749","0.0-3.0-1.469","<span style=""font-size:30px; font-family: monospace"">a</span>"," ","","exp-sent","a","","",""
"","2245","html-keyboard-response","564","1935245","0.0-3.0-1.470","<span style=""font-size:30px; font-family: monospace"">atendente</span>"," ","","exp-sent","atendente","","",""
"","1269","html-keyboard-response","565","1936765","0.0-3.0-1.471","<span style=""font-size:30px; font-family: monospace"">estava</span>"," ","","exp-sent","estava","","",""
"","2725","html-keyboard-response","566","1939741","0.0-3.0-1.472","<span style=""font-size:30px; font-family: monospace"">furiosa</span>"," ","","exp-sent","furiosa","","",""
"","949","html-keyboard-response","567","1940941","0.0-3.0-1.473","<span style=""font-size:30px; font-family: monospace"">com</span>"," ","","exp-sent","com","","",""
"","997","html-keyboard-response","568","1942189","0.0-3.0-1.474","<span style=""font-size:30px; font-family: monospace"">o</span>"," ","","exp-sent","o","","",""
"","1941","html-keyboard-response","569","1944381","0.0-3.0-1.475","<span style=""font-size:30px; font-family: monospace"">cliente.</span>"," ","","exp-sent","cliente.","","",""
"","null","html-keyboard-response","570","1945633","0.0-3.0-0.476-0.476","<span style= ""font-size:30px; font-family: monospace"">+</span>","null","fixation","","","","",""
"","593","html-keyboard-response","571","1946477","0.0-3.0-1.476","<span style=""font-size:30px; font-family: monospace"">O</span>"," ","","exp-sent","O","","",""
"","1813","html-keyboard-response","572","1948541","0.0-3.0-1.477","<span style=""font-size:30px; font-family: monospace"">vizinho</span>"," ","","exp-sent","vizinho","","",""
"","901","html-keyboard-response","573","1949692","0.0-3.0-1.478","<span style=""font-size:30px; font-family: monospace"">é</span>"," ","","exp-sent","é","","",""
"","757","html-keyboard-response","574","1950700","0.0-3.0-1.479","<span style=""font-size:30px; font-family: monospace"">um</span>"," ","","exp-sent","um","","",""
"","4101","html-keyboard-response","575","1955052","0.0-3.0-1.480","<span style=""font-size:30px; font-family: monospace"">arquiteto</span>"," ","","exp-sent","arquiteto","","",""
"","1365","html-keyboard-response","576","1956668","0.0-3.0-1.481","<span style=""font-size:30px; font-family: monospace"">muito</span>"," ","","exp-sent","muito","","",""
"","3396","html-keyboard-response","577","1960315","0.0-3.0-1.482","<span style=""font-size:30px; font-family: monospace"">excêntrico.</span>"," ","","exp-sent","excêntrico.","","",""
"","null","html-keyboard-response","578","1961567","0.0-3.0-0.483-0.483","<span style= ""font-size:30px; font-family: monospace"">+</span>","null","fixation","","","","",""
"","689","html-keyboard-response","579","1962508","0.0-3.0-1.483","<span style=""font-size:30px; font-family: monospace"">A</span>"," ","","exp-sent","A","","",""
