[
	{
		"view_history": [
			{
				"page_index": 0,
				"viewing_time": 4390
			}
		],
		"rt": 4390,
		"trial_type": "instructions",
		"trial_index": 0,
		"time_elapsed": 4391,
		"internal_node_id": "0.0-0.0"
	},
	{
		"rt": 10741,
		"response": {
			"tcle": "Concordo voluntariamente em participar da pesquisa conforme texto acima."
		},
		"question_order": [
			0
		],
		"trial_type": "survey-multi-choice",
		"trial_index": 1,
		"time_elapsed": 15352,
		"internal_node_id": "0.0-1.0"
	},
	{
		"rt": 21520,
		"response": {
			"email": "UG7BS"
		},
		"trial_type": "survey-text",
		"trial_index": 2,
		"time_elapsed": 37952,
		"internal_node_id": "0.0-2.0"
	}
]