"view_history","rt","trial_type","trial_index","time_elapsed","internal_node_id","stimulus","response","class","status","answer","correct","trial","letters"
"[{""page_index"":0,""viewing_time"":2892}]","2892","instructions","0","2893","0.0-0.0","","","","","","","",""
"","null","html-keyboard-response","1","3515","0.0-1.0-0.0","+","null","","","","","",""
"","50496","html-keyboard-response","2","54011","0.0-1.0-1.0","órgão","s","null","noncog","word","S","prac","null"
"","null","html-keyboard-response","3","54512","0.0-1.0-0.1","+","null","","","","","",""
"","15466","html-keyboard-response","4","69979","0.0-1.0-1.1","daja","n","null","noncog","pseudo","N","prac","null"
"","null","html-keyboard-response","5","70480","0.0-1.0-0.2","+","null","","","","","",""
"","2570","html-keyboard-response","6","73051","0.0-1.0-1.2","oliva","s","null","cog","word","S","prac","null"
"","null","html-keyboard-response","7","73552","0.0-1.0-0.3","+","null","","","","","",""
"","5242","html-keyboard-response","8","78795","0.0-1.0-1.3","chassi","s","null","cog","word","S","prac","null"
"","null","html-keyboard-response","9","79296","0.0-1.0-0.4","+","null","","","","","",""
"","2330","html-keyboard-response","10","81627","0.0-1.0-1.4","plibar","n","null","noncog","pseudo","N","prac","null"
"","null","html-keyboard-response","11","82128","0.0-1.0-0.5","+","null","","","","","",""
"","6890","html-keyboard-response","12","89019","0.0-1.0-1.5","calmaria","s","null","noncog","word","S","prac","null"
"","null","html-keyboard-response","13","89519","0.0-1.0-0.6","+","null","","","","","",""
"","3467","html-keyboard-response","14","92987","0.0-1.0-1.6","crante","s","null","noncog","pseudo","N","prac","null"
"[{""page_index"":0,""viewing_time"":27576}]","27576","instructions","15","120563","0.0-2.0","","","","","","","",""
"","null","html-keyboard-response","16","121164","0.0-3.0-0.0","+","null","","","","","",""
"","5342","html-keyboard-response","17","126507","0.0-3.0-1.0","sintonizar","s","v","noncog","word","S","exp","10"
"","null","html-keyboard-response","18","127008","0.0-3.0-0.1","+","null","","","","","",""
"","3066","html-keyboard-response","19","130075","0.0-3.0-1.1","berquesa","s","null","noncog","pseudo","N","exp","null"
"","null","html-keyboard-response","20","130576","0.0-3.0-0.2","+","null","","","","","",""
"","7083","html-keyboard-response","21","137659","0.0-3.0-1.2","disbrituir","n","null","noncog","pseudo","N","exp","null"
"","null","html-keyboard-response","22","138160","0.0-3.0-0.3","+","null","","","","","",""
"","4203","html-keyboard-response","23","142363","0.0-3.0-1.3","cenada","n","null","noncog","pseudo","N","exp","null"
"","null","html-keyboard-response","24","142864","0.0-3.0-0.4","+","null","","","","","",""
"","2554","html-keyboard-response","25","145419","0.0-3.0-1.4","atitro","s","null","noncog","pseudo","N","exp","null"
"","null","html-keyboard-response","26","145920","0.0-3.0-0.5","+","null","","","","","",""
"","1451","html-keyboard-response","27","147371","0.0-3.0-1.5","morar","s","v","noncog","word","S","exp","5"
"","null","html-keyboard-response","28","147873","0.0-3.0-0.6","+","null","","","","","",""
"","2970","html-keyboard-response","29","150843","0.0-3.0-1.6","pimada","n","null","noncog","pseudo","N","exp","null"
"","null","html-keyboard-response","30","151345","0.0-3.0-0.7","+","null","","","","","",""
"","1386","html-keyboard-response","31","152731","0.0-3.0-1.7","bancada","s","n","noncog","word","S","exp","7"
"","null","html-keyboard-response","32","153231","0.0-3.0-0.8","+","null","","","","","",""
"","2667","html-keyboard-response","33","155899","0.0-3.0-1.8","instruído","s","a","noncog","word","S","exp","9"
"","null","html-keyboard-response","34","156399","0.0-3.0-0.9","+","null","","","","","",""
"","1851","html-keyboard-response","35","158251","0.0-3.0-1.9","aparme","n","null","noncog","pseudo","N","exp","null"
"","null","html-keyboard-response","36","158752","0.0-3.0-0.10","+","null","","","","","",""
"","1994","html-keyboard-response","37","160747","0.0-3.0-1.10","motros","s","null","noncog","pseudo","N","exp","null"
"","null","html-keyboard-response","38","161247","0.0-3.0-0.11","+","null","","","","","",""
"","3019","html-keyboard-response","39","164267","0.0-3.0-1.11","agravar","s","v","cog","word","S","exp","7"
"","null","html-keyboard-response","40","164768","0.0-3.0-0.12","+","null","","","","","",""
"","3050","html-keyboard-response","41","167819","0.0-3.0-1.12","ocinto","s","null","noncog","pseudo","N","exp","null"
"","null","html-keyboard-response","42","168321","0.0-3.0-0.13","+","null","","","","","",""
"","2986","html-keyboard-response","43","171307","0.0-3.0-1.13","mabras","n","null","noncog","pseudo","N","exp","null"
"","null","html-keyboard-response","44","171808","0.0-3.0-0.14","+","null","","","","","",""
"","2682","html-keyboard-response","45","174490","0.0-3.0-1.14","ejerro","n","null","noncog","pseudo","N","exp","null"
"","null","html-keyboard-response","46","174992","0.0-3.0-0.15","+","null","","","","","",""
"","1306","html-keyboard-response","47","176298","0.0-3.0-1.15","independente","s","a","noncog","word","S","exp","12"
"","null","html-keyboard-response","48","176799","0.0-3.0-0.16","+","null","","","","","",""
"","3227","html-keyboard-response","49","180026","0.0-3.0-1.16","lapestra","s","null","noncog","pseudo","N","exp","null"
"","null","html-keyboard-response","50","180527","0.0-3.0-0.17","+","null","","","","","",""
"","5850","html-keyboard-response","51","186378","0.0-3.0-1.17","ensuas","s","null","noncog","pseudo","N","exp","null"
"","null","html-keyboard-response","52","186880","0.0-3.0-0.18","+","null","","","","","",""
"","2186","html-keyboard-response","53","189066","0.0-3.0-1.18","pulmão","s","n","noncog","word","S","exp","6"
"","null","html-keyboard-response","54","189567","0.0-3.0-0.19","+","null","","","","","",""
"","1290","html-keyboard-response","55","190858","0.0-3.0-1.19","especial","s","a","cog","word","S","exp","8"
"","null","html-keyboard-response","56","191359","0.0-3.0-0.20","+","null","","","","","",""
"","1690","html-keyboard-response","57","193050","0.0-3.0-1.20","filosofia","s","n","cog","word","S","exp","9"
"","null","html-keyboard-response","58","193551","0.0-3.0-0.21","+","null","","","","","",""
"","5211","html-keyboard-response","59","198762","0.0-3.0-1.21","dobradiça","s","n","noncog","word","S","exp","9"
"","null","html-keyboard-response","60","199263","0.0-3.0-0.22","+","null","","","","","",""
"","2683","html-keyboard-response","61","201946","0.0-3.0-1.22","rédesa","n","null","noncog","pseudo","N","exp","null"
"","null","html-keyboard-response","62","202447","0.0-3.0-0.23","+","null","","","","","",""
"","2730","html-keyboard-response","63","205178","0.0-3.0-1.23","arranjar","s","v","cog","word","S","exp","8"
"","null","html-keyboard-response","64","205679","0.0-3.0-0.24","+","null","","","","","",""
"","2731","html-keyboard-response","65","208410","0.0-3.0-1.24","cirado","n","null","noncog","pseudo","N","exp","null"
"","null","html-keyboard-response","66","208912","0.0-3.0-0.25","+","null","","","","","",""
"","3018","html-keyboard-response","67","211930","0.0-3.0-1.25","uchães","n","null","noncog","pseudo","N","exp","null"
"","null","html-keyboard-response","68","212431","0.0-3.0-0.26","+","null","","","","","",""
"","3194","html-keyboard-response","69","215626","0.0-3.0-1.26","esprotiar","s","null","noncog","pseudo","N","exp","null"
"","null","html-keyboard-response","70","216127","0.0-3.0-0.27","+","null","","","","","",""
"","1130","html-keyboard-response","71","217258","0.0-3.0-1.27","anjo","s","n","cog","word","S","exp","4"
"","null","html-keyboard-response","72","217760","0.0-3.0-0.28","+","null","","","","","",""
"","5210","html-keyboard-response","73","222970","0.0-3.0-1.28","grótis","s","null","noncog","pseudo","N","exp","null"
"","null","html-keyboard-response","74","223472","0.0-3.0-0.29","+","null","","","","","",""
"","4714","html-keyboard-response","75","228186","0.0-3.0-1.29","pega-pega","s","n","noncog","word","S","exp","8"
"","null","html-keyboard-response","76","228687","0.0-3.0-0.30","+","null","","","","","",""
"","2282","html-keyboard-response","77","230970","0.0-3.0-1.30","nacional","s","a","cog","word","S","exp","8"
"","null","html-keyboard-response","78","231471","0.0-3.0-0.31","+","null","","","","","",""
"","3883","html-keyboard-response","79","235353","0.0-3.0-1.31","encelhor","n","null","noncog","pseudo","N","exp","null"
"","null","html-keyboard-response","80","235854","0.0-3.0-0.32","+","null","","","","","",""
"","2426","html-keyboard-response","81","238281","0.0-3.0-1.32","crutas","s","null","noncog","pseudo","N","exp","null"
"","null","html-keyboard-response","82","238781","0.0-3.0-0.33","+","null","","","","","",""
"","2299","html-keyboard-response","83","241081","0.0-3.0-1.33","montanha","s","n","cog","word","S","exp","8"
"","null","html-keyboard-response","84","241581","0.0-3.0-0.34","+","null","","","","","",""
"","2332","html-keyboard-response","85","243913","0.0-3.0-1.34","cápsula","s","n","noncog","word","S","exp","7"
"","null","html-keyboard-response","86","244415","0.0-3.0-0.35","+","null","","","","","",""
"","5082","html-keyboard-response","87","249497","0.0-3.0-1.35","gertas","s","null","noncog","pseudo","N","exp","null"
"","null","html-keyboard-response","88","249999","0.0-3.0-0.36","+","null","","","","","",""
"","2730","html-keyboard-response","89","252729","0.0-3.0-1.36","lagras","s","null","noncog","pseudo","N","exp","null"
"","null","html-keyboard-response","90","253231","0.0-3.0-0.37","+","null","","","","","",""
"","5786","html-keyboard-response","91","259017","0.0-3.0-1.37","ronronar","n","v","cog","word","S","exp","8"
"","null","html-keyboard-response","92","259518","0.0-3.0-0.38","+","null","","","","","",""
"","3754","html-keyboard-response","93","263273","0.0-3.0-1.38","pneucania","s","null","noncog","pseudo","N","exp","null"
"","null","html-keyboard-response","94","263774","0.0-3.0-0.39","+","null","","","","","",""
"","2602","html-keyboard-response","95","266377","0.0-3.0-1.39","risbos","s","null","noncog","pseudo","N","exp","null"
"","null","html-keyboard-response","96","266879","0.0-3.0-0.40","+","null","","","","","",""
"","1802","html-keyboard-response","97","268681","0.0-3.0-1.40","nervoso","s","a","noncog","word","S","exp","7"
"","null","html-keyboard-response","98","269183","0.0-3.0-0.41","+","null","","","","","",""
"","6634","html-keyboard-response","99","275817","0.0-3.0-1.41","usfiga","n","null","noncog","pseudo","N","exp","null"
"","null","html-keyboard-response","100","276319","0.0-3.0-0.42","+","null","","","","","",""
"","6314","html-keyboard-response","101","282633","0.0-3.0-1.42","candifência","n","null","noncog","pseudo","N","exp","null"
"","null","html-keyboard-response","102","283135","0.0-3.0-0.43","+","null","","","","","",""
"","1130","html-keyboard-response","103","284265","0.0-3.0-1.43","dia","s","n","noncog","word","S","exp","3"
"","null","html-keyboard-response","104","284767","0.0-3.0-0.44","+","null","","","","","",""
"","1130","html-keyboard-response","105","285897","0.0-3.0-1.44","agressivo","s","a","cog","word","S","exp","9"
"","null","html-keyboard-response","106","286398","0.0-3.0-0.45","+","null","","","","","",""
"","4667","html-keyboard-response","107","291065","0.0-3.0-1.45","dencosto","s","null","noncog","pseudo","N","exp","null"
"","null","html-keyboard-response","108","291566","0.0-3.0-0.46","+","null","","","","","",""
"","2234","html-keyboard-response","109","293801","0.0-3.0-1.46","ilhure","n","null","noncog","pseudo","N","exp","null"
"","null","html-keyboard-response","110","294302","0.0-3.0-0.47","+","null","","","","","",""
"","2331","html-keyboard-response","111","296633","0.0-3.0-1.47","aitrou","n","null","noncog","pseudo","N","exp","null"
"","null","html-keyboard-response","112","297135","0.0-3.0-0.48","+","null","","","","","",""
"","2202","html-keyboard-response","113","299337","0.0-3.0-1.48","enxarto","n","null","noncog","pseudo","N","exp","null"
"","null","html-keyboard-response","114","299838","0.0-3.0-0.49","+","null","","","","","",""
"","1082","html-keyboard-response","115","300921","0.0-3.0-1.49","socorro","s","n","noncog","word","S","exp","7"
"","null","html-keyboard-response","116","301422","0.0-3.0-0.50","+","null","","","","","",""
"","2106","html-keyboard-response","117","303528","0.0-3.0-1.50","esperar","s","v","cog","word","S","exp","7"
"","null","html-keyboard-response","118","304029","0.0-3.0-0.51","+","null","","","","","",""
"","2587","html-keyboard-response","119","306616","0.0-3.0-1.51","perdão","s","n","noncog","word","S","exp","6"
"","null","html-keyboard-response","120","307118","0.0-3.0-0.52","+","null","","","","","",""
"","1178","html-keyboard-response","121","308297","0.0-3.0-1.52","convidado","s","n","noncog","word","S","exp","9"
"","null","html-keyboard-response","122","308798","0.0-3.0-0.53","+","null","","","","","",""
"","1963","html-keyboard-response","123","310761","0.0-3.0-1.53","tartos","s","null","noncog","pseudo","N","exp","null"
"","null","html-keyboard-response","124","311262","0.0-3.0-0.54","+","null","","","","","",""
"","938","html-keyboard-response","125","312201","0.0-3.0-1.54","tênis","s","n","cog","word","S","exp","5"
"","null","html-keyboard-response","126","312701","0.0-3.0-0.55","+","null","","","","","",""
"","1355","html-keyboard-response","127","314056","0.0-3.0-1.55","melão","s","n","cog","word","S","exp","5"
"","null","html-keyboard-response","128","314557","0.0-3.0-0.56","+","null","","","","","",""
"","1579","html-keyboard-response","129","316137","0.0-3.0-1.56","cerca","s","n","noncog","word","S","exp","5"
"","null","html-keyboard-response","130","316638","0.0-3.0-0.57","+","null","","","","","",""
"","1674","html-keyboard-response","131","318313","0.0-3.0-1.57","refletir","s","v","cog","word","S","exp","8"
"","null","html-keyboard-response","132","318814","0.0-3.0-0.58","+","null","","","","","",""
"","2458","html-keyboard-response","133","321273","0.0-3.0-1.58","aperor","s","null","noncog","pseudo","N","exp","null"
"","null","html-keyboard-response","134","321774","0.0-3.0-0.59","+","null","","","","","",""
"","1818","html-keyboard-response","135","323593","0.0-3.0-1.59","uçar","s","null","noncog","pseudo","N","exp","null"
"","null","html-keyboard-response","136","324096","0.0-3.0-0.60","+","null","","","","","",""
"","1433","html-keyboard-response","137","325529","0.0-3.0-1.60","papai","s","n","cog","word","S","exp","5"
"","null","html-keyboard-response","138","326030","0.0-3.0-0.61","+","null","","","","","",""
"","3258","html-keyboard-response","139","329289","0.0-3.0-1.61","jastor","s","null","noncog","pseudo","N","exp","null"
"","null","html-keyboard-response","140","329789","0.0-3.0-0.62","+","null","","","","","",""
"","1435","html-keyboard-response","141","331225","0.0-3.0-1.62","bambu","s","n","cog","word","S","exp","5"
"","null","html-keyboard-response","142","331726","0.0-3.0-0.63","+","null","","","","","",""
"","5354","html-keyboard-response","143","337081","0.0-3.0-1.63","tatear","n","v","cog","word","S","exp","6"
"","null","html-keyboard-response","144","337581","0.0-3.0-0.64","+","null","","","","","",""
"","2411","html-keyboard-response","145","339993","0.0-3.0-1.64","franda","s","null","noncog","pseudo","N","exp","null"
"","null","html-keyboard-response","146","340493","0.0-3.0-0.65","+","null","","","","","",""
"","1595","html-keyboard-response","147","342089","0.0-3.0-1.65","multiplicar","s","v","cog","word","S","exp","11"
"","null","html-keyboard-response","148","342589","0.0-3.0-0.66","+","null","","","","","",""
"","1355","html-keyboard-response","149","343945","0.0-3.0-1.66","espaço","s","n","cog","word","S","exp","6"
"","null","html-keyboard-response","150","344446","0.0-3.0-0.67","+","null","","","","","",""
"","3178","html-keyboard-response","151","347625","0.0-3.0-1.67","revear","s","null","noncog","pseudo","N","exp","null"
"","null","html-keyboard-response","152","348125","0.0-3.0-0.68","+","null","","","","","",""
"","2587","html-keyboard-response","153","350713","0.0-3.0-1.68","escumo","s","null","noncog","pseudo","N","exp","null"
"","null","html-keyboard-response","154","351214","0.0-3.0-0.69","+","null","","","","","",""
"","2170","html-keyboard-response","155","353385","0.0-3.0-1.69","fofo","s","a","noncog","word","S","exp","4"
"","null","html-keyboard-response","156","353886","0.0-3.0-0.70","+","null","","","","","",""
"","2283","html-keyboard-response","157","356169","0.0-3.0-1.70","chorão","s","a","noncog","word","S","exp","6"
"","null","html-keyboard-response","158","356670","0.0-3.0-0.71","+","null","","","","","",""
"","1307","html-keyboard-response","159","357977","0.0-3.0-1.71","liso","s","n","noncog","word","S","exp","4"
"","null","html-keyboard-response","160","358478","0.0-3.0-0.72","+","null","","","","","",""
"","1562","html-keyboard-response","161","360041","0.0-3.0-1.72","reduzir","s","v","cog","word","S","exp","7"
"","null","html-keyboard-response","162","360542","0.0-3.0-0.73","+","null","","","","","",""
"","1131","html-keyboard-response","163","361673","0.0-3.0-1.73","telefone","s","n","cog","word","S","exp","8"
"","null","html-keyboard-response","164","362174","0.0-3.0-0.74","+","null","","","","","",""
"","2203","html-keyboard-response","165","364377","0.0-3.0-1.74","brincar","s","v","noncog","word","S","exp","7"
"","null","html-keyboard-response","166","364878","0.0-3.0-0.75","+","null","","","","","",""
"","4555","html-keyboard-response","167","369433","0.0-3.0-1.75","usnado","n","null","noncog","pseudo","N","exp","null"
"","null","html-keyboard-response","168","369934","0.0-3.0-0.76","+","null","","","","","",""
"","4475","html-keyboard-response","169","374409","0.0-3.0-1.76","hedoru","n","null","noncog","pseudo","N","exp","null"
"","null","html-keyboard-response","170","374910","0.0-3.0-0.77","+","null","","","","","",""
"","1163","html-keyboard-response","171","376073","0.0-3.0-1.77","cinema","s","n","cog","word","S","exp","6"
"","null","html-keyboard-response","172","376574","0.0-3.0-0.78","+","null","","","","","",""
"","1275","html-keyboard-response","173","377849","0.0-3.0-1.78","avenas","s","null","noncog","pseudo","N","exp","null"
"","null","html-keyboard-response","174","378351","0.0-3.0-0.79","+","null","","","","","",""
"","1338","html-keyboard-response","175","379689","0.0-3.0-1.79","tinta","s","n","cog","word","S","exp","5"
"","null","html-keyboard-response","176","380190","0.0-3.0-0.80","+","null","","","","","",""
"","2059","html-keyboard-response","177","382249","0.0-3.0-1.80","sábio","s","n","noncog","word","S","exp","5"
"","null","html-keyboard-response","178","382750","0.0-3.0-0.81","+","null","","","","","",""
"","4251","html-keyboard-response","179","387001","0.0-3.0-1.81","detative","s","null","noncog","pseudo","N","exp","null"
"","null","html-keyboard-response","180","387503","0.0-3.0-0.82","+","null","","","","","",""
"","1818","html-keyboard-response","181","389321","0.0-3.0-1.82","burtos","s","null","noncog","pseudo","N","exp","null"
"","null","html-keyboard-response","182","389822","0.0-3.0-0.83","+","null","","","","","",""
"","1691","html-keyboard-response","183","391513","0.0-3.0-1.83","cravo","s","n","noncog","word","S","exp","5"
"","null","html-keyboard-response","184","392015","0.0-3.0-0.84","+","null","","","","","",""
"","2330","html-keyboard-response","185","394345","0.0-3.0-1.84","parceter","s","null","noncog","pseudo","N","exp","null"
"","null","html-keyboard-response","186","394846","0.0-3.0-0.85","+","null","","","","","",""
"","2139","html-keyboard-response","187","396985","0.0-3.0-1.85","atrasar","s","v","noncog","word","S","exp","7"
"","null","html-keyboard-response","188","397486","0.0-3.0-0.86","+","null","","","","","",""
"","1162","html-keyboard-response","189","398649","0.0-3.0-1.86","trair","s","v","cog","word","S","exp","5"
"","null","html-keyboard-response","190","399150","0.0-3.0-0.87","+","null","","","","","",""
"","1498","html-keyboard-response","191","400649","0.0-3.0-1.87","alfabeto","s","n","cog","word","S","exp","8"
"","null","html-keyboard-response","192","401149","0.0-3.0-0.88","+","null","","","","","",""
"","2443","html-keyboard-response","193","403593","0.0-3.0-1.88","bracos","s","null","noncog","pseudo","N","exp","null"
"","null","html-keyboard-response","194","404095","0.0-3.0-0.89","+","null","","","","","",""
"","2410","html-keyboard-response","195","406505","0.0-3.0-1.89","traduzir","s","v","cog","word","S","exp","8"
"","null","html-keyboard-response","196","407006","0.0-3.0-0.90","+","null","","","","","",""
"","3818","html-keyboard-response","197","410825","0.0-3.0-1.90","âgnulo","s","null","noncog","pseudo","N","exp","null"
"","null","html-keyboard-response","198","411326","0.0-3.0-0.91","+","null","","","","","",""
"","2107","html-keyboard-response","199","413433","0.0-3.0-1.91","aemaça","n","null","noncog","pseudo","N","exp","null"
"","null","html-keyboard-response","200","413934","0.0-3.0-0.92","+","null","","","","","",""
"","2939","html-keyboard-response","201","416872","0.0-3.0-1.92","podilo","n","null","noncog","pseudo","N","exp","null"
"","null","html-keyboard-response","202","417374","0.0-3.0-0.93","+","null","","","","","",""
"","1082","html-keyboard-response","203","418456","0.0-3.0-1.93","memória","s","n","cog","word","S","exp","7"
"","null","html-keyboard-response","204","418957","0.0-3.0-0.94","+","null","","","","","",""
"","1115","html-keyboard-response","205","420072","0.0-3.0-1.94","civil","s","a","cog","word","S","exp","5"
"","null","html-keyboard-response","206","420573","0.0-3.0-0.95","+","null","","","","","",""
"","5163","html-keyboard-response","207","425736","0.0-3.0-1.95","telafonir","n","null","noncog","pseudo","N","exp","null"
"","null","html-keyboard-response","208","426237","0.0-3.0-0.96","+","null","","","","","",""
"","3579","html-keyboard-response","209","429816","0.0-3.0-1.96","hipócrita","s","a","noncog","word","S","exp","9"
"","null","html-keyboard-response","210","430317","0.0-3.0-0.97","+","null","","","","","",""
"","2475","html-keyboard-response","211","432792","0.0-3.0-1.97","afonher","s","null","noncog","pseudo","N","exp","null"
"","null","html-keyboard-response","212","433293","0.0-3.0-0.98","+","null","","","","","",""
"","1194","html-keyboard-response","213","434488","0.0-3.0-1.98","viver","s","v","cog","word","S","exp","5"
"","null","html-keyboard-response","214","434989","0.0-3.0-0.99","+","null","","","","","",""
"","9323","html-keyboard-response","215","444312","0.0-3.0-1.99","bibarconato","n","null","noncog","pseudo","N","exp","null"
"","null","html-keyboard-response","216","444813","0.0-3.0-0.100","+","null","","","","","",""
"","1530","html-keyboard-response","217","446343","0.0-3.0-1.100","delirar","s","v","noncog","word","S","exp","7"
"","null","html-keyboard-response","218","446852","0.0-3.0-0.101","+","null","","","","","",""
"","1219","html-keyboard-response","219","448072","0.0-3.0-1.101","fogão","s","n","noncog","word","S","exp","5"
"","null","html-keyboard-response","220","448581","0.0-3.0-0.102","+","null","","","","","",""
"","2483","html-keyboard-response","221","451064","0.0-3.0-1.102","salpicado","s","a","noncog","word","S","exp","9"
"","null","html-keyboard-response","222","451565","0.0-3.0-0.103","+","null","","","","","",""
"","3386","html-keyboard-response","223","454952","0.0-3.0-1.103","garastia","s","null","noncog","pseudo","N","exp","null"
"","null","html-keyboard-response","224","455453","0.0-3.0-0.104","+","null","","","","","",""
"","3018","html-keyboard-response","225","458472","0.0-3.0-1.104","fusbão","s","null","noncog","pseudo","N","exp","null"
"","null","html-keyboard-response","226","458979","0.0-3.0-0.105","+","null","","","","","",""
"","980","html-keyboard-response","227","459959","0.0-3.0-1.105","grave","s","a","cog","word","S","exp","5"
"","null","html-keyboard-response","228","460460","0.0-3.0-0.106","+","null","","","","","",""
"","1467","html-keyboard-response","229","461928","0.0-3.0-1.106","fino","s","a","cog","word","S","exp","4"
"","null","html-keyboard-response","230","462430","0.0-3.0-0.107","+","null","","","","","",""
"","2042","html-keyboard-response","231","464472","0.0-3.0-1.107","lagoa","s","n","cog","word","S","exp","5"
"","null","html-keyboard-response","232","464983","0.0-3.0-0.108","+","null","","","","","",""
"","2353","html-keyboard-response","233","467336","0.0-3.0-1.108","bachir","s","null","noncog","pseudo","N","exp","null"
"","null","html-keyboard-response","234","467837","0.0-3.0-0.109","+","null","","","","","",""
"","5003","html-keyboard-response","235","472840","0.0-3.0-1.109","delomir","s","null","noncog","pseudo","N","exp","null"
"","null","html-keyboard-response","236","473341","0.0-3.0-0.110","+","null","","","","","",""
"","955","html-keyboard-response","237","474296","0.0-3.0-1.110","cristal","s","n","cog","word","S","exp","7"
"","null","html-keyboard-response","238","474806","0.0-3.0-0.111","+","null","","","","","",""
"","1745","html-keyboard-response","239","476552","0.0-3.0-1.111","irratinte","s","null","noncog","pseudo","N","exp","null"
"","null","html-keyboard-response","240","477054","0.0-3.0-0.112","+","null","","","","","",""
"","2650","html-keyboard-response","241","479704","0.0-3.0-1.112","perbas","n","null","noncog","pseudo","N","exp","null"
"","null","html-keyboard-response","242","480205","0.0-3.0-0.113","+","null","","","","","",""
"","1722","html-keyboard-response","243","481928","0.0-3.0-1.113","morno","s","a","noncog","word","S","exp","5"
"","null","html-keyboard-response","244","482429","0.0-3.0-0.114","+","null","","","","","",""
"","1563","html-keyboard-response","245","483992","0.0-3.0-1.114","gilha","s","null","noncog","pseudo","N","exp","null"
"","null","html-keyboard-response","246","484493","0.0-3.0-0.115","+","null","","","","","",""
"","3162","html-keyboard-response","247","487656","0.0-3.0-1.115","undivídio","s","null","noncog","pseudo","N","exp","null"
"","null","html-keyboard-response","248","488158","0.0-3.0-0.116","+","null","","","","","",""
"","2218","html-keyboard-response","249","490376","0.0-3.0-1.116","farcas","s","null","noncog","pseudo","N","exp","null"
"","null","html-keyboard-response","250","490877","0.0-3.0-0.117","+","null","","","","","",""
"","2298","html-keyboard-response","251","493176","0.0-3.0-1.117","carona","s","n","noncog","word","S","exp","6"
"","null","html-keyboard-response","252","493677","0.0-3.0-0.118","+","null","","","","","",""
"","1515","html-keyboard-response","253","495192","0.0-3.0-1.118","motre","s","null","noncog","pseudo","N","exp","null"
"","null","html-keyboard-response","254","495693","0.0-3.0-0.119","+","null","","","","","",""
"","1899","html-keyboard-response","255","497592","0.0-3.0-1.119","ótimo","s","a","noncog","word","S","exp","5"
"","null","html-keyboard-response","256","498093","0.0-3.0-0.120","+","null","","","","","",""
"","2667","html-keyboard-response","257","500760","0.0-3.0-1.120","raspar","s","v","noncog","word","S","exp","6"
"","null","html-keyboard-response","258","501261","0.0-3.0-0.121","+","null","","","","","",""
"","1562","html-keyboard-response","259","502824","0.0-3.0-1.121","barco","s","n","cog","word","S","exp","5"
"","null","html-keyboard-response","260","503325","0.0-3.0-0.122","+","null","","","","","",""
"","3867","html-keyboard-response","261","507192","0.0-3.0-1.122","loaco","n","null","noncog","pseudo","N","exp","null"
"","null","html-keyboard-response","262","507694","0.0-3.0-0.123","+","null","","","","","",""
"","1946","html-keyboard-response","263","509640","0.0-3.0-1.123","plinta","s","null","noncog","pseudo","N","exp","null"
"","null","html-keyboard-response","264","510142","0.0-3.0-0.124","+","null","","","","","",""
"","1818","html-keyboard-response","265","511960","0.0-3.0-1.124","atapdar","n","null","noncog","pseudo","N","exp","null"
"","null","html-keyboard-response","266","512461","0.0-3.0-0.125","+","null","","","","","",""
"","3403","html-keyboard-response","267","515864","0.0-3.0-1.125","alpica","n","null","noncog","pseudo","N","exp","null"
"","null","html-keyboard-response","268","516365","0.0-3.0-0.126","+","null","","","","","",""
"","1259","html-keyboard-response","269","517625","0.0-3.0-1.126","costra","s","null","noncog","pseudo","N","exp","null"
"","null","html-keyboard-response","270","518126","0.0-3.0-0.127","+","null","","","","","",""
"","2873","html-keyboard-response","271","521000","0.0-3.0-1.127","pantufa","s","n","cog","word","S","exp","7"
"","null","html-keyboard-response","272","521502","0.0-3.0-0.128","+","null","","","","","",""
"","2234","html-keyboard-response","273","523736","0.0-3.0-1.128","esfoce","s","null","noncog","pseudo","N","exp","null"
"","null","html-keyboard-response","274","524236","0.0-3.0-0.129","+","null","","","","","",""
"","1755","html-keyboard-response","275","525992","0.0-3.0-1.129","apontar","s","v","noncog","word","S","exp","7"
"","null","html-keyboard-response","276","526493","0.0-3.0-0.130","+","null","","","","","",""
"","1594","html-keyboard-response","277","528088","0.0-3.0-1.130","francês","s","a","cog","word","S","exp","7"
"","null","html-keyboard-response","278","528589","0.0-3.0-0.131","+","null","","","","","",""
"","1466","html-keyboard-response","279","530056","0.0-3.0-1.131","verde","s","a","noncog","word","S","exp","5"
"","null","html-keyboard-response","280","530557","0.0-3.0-0.132","+","null","","","","","",""
"","1371","html-keyboard-response","281","531928","0.0-3.0-1.132","grátis","s","a","cog","word","S","exp","6"
"","null","html-keyboard-response","282","532429","0.0-3.0-0.133","+","null","","","","","",""
"","906","html-keyboard-response","283","533336","0.0-3.0-1.133","país","s","n","noncog","word","S","exp","4"
"","null","html-keyboard-response","284","533837","0.0-3.0-0.134","+","null","","","","","",""
"","1627","html-keyboard-response","285","535464","0.0-3.0-1.134","dacada","s","null","noncog","pseudo","N","exp","null"
"","null","html-keyboard-response","286","535965","0.0-3.0-0.135","+","null","","","","","",""
"","2202","html-keyboard-response","287","538167","0.0-3.0-1.135","comércio","s","n","noncog","word","S","exp","8"
"","null","html-keyboard-response","288","538668","0.0-3.0-0.136","+","null","","","","","",""
"","2106","html-keyboard-response","289","540775","0.0-3.0-1.136","prantal","s","null","noncog","pseudo","N","exp","null"
"","null","html-keyboard-response","290","541277","0.0-3.0-0.137","+","null","","","","","",""
"","1417","html-keyboard-response","291","542695","0.0-3.0-1.137","hébies","s","null","noncog","pseudo","N","exp","null"
"","null","html-keyboard-response","292","543196","0.0-3.0-0.138","+","null","","","","","",""
"","1707","html-keyboard-response","293","544903","0.0-3.0-1.138","protas","s","null","noncog","pseudo","N","exp","null"
"","null","html-keyboard-response","294","545404","0.0-3.0-0.139","+","null","","","","","",""
"","1882","html-keyboard-response","295","547287","0.0-3.0-1.139","beima","s","null","noncog","pseudo","N","exp","null"
"","null","html-keyboard-response","296","547788","0.0-3.0-0.140","+","null","","","","","",""
"","1690","html-keyboard-response","297","549479","0.0-3.0-1.140","extravagante","s","a","cog","word","S","exp","12"
"","null","html-keyboard-response","298","549980","0.0-3.0-0.141","+","null","","","","","",""
"","2234","html-keyboard-response","299","552215","0.0-3.0-1.141","animado","s","a","noncog","word","S","exp","7"
"","null","html-keyboard-response","300","552716","0.0-3.0-0.142","+","null","","","","","",""
"","2362","html-keyboard-response","301","555079","0.0-3.0-1.142","sustentar","s","v","noncog","word","S","exp","9"
"","null","html-keyboard-response","302","555579","0.0-3.0-0.143","+","null","","","","","",""
"","1419","html-keyboard-response","303","556999","0.0-3.0-1.143","abieso","s","null","noncog","pseudo","N","exp","null"
"","null","html-keyboard-response","304","557499","0.0-3.0-0.144","+","null","","","","","",""
"","1099","html-keyboard-response","305","558599","0.0-3.0-1.144","mudança","s","n","noncog","word","S","exp","7"
"","null","html-keyboard-response","306","559099","0.0-3.0-0.145","+","null","","","","","",""
"","1915","html-keyboard-response","307","561015","0.0-3.0-1.145","árovre","s","null","noncog","pseudo","N","exp","null"
"","null","html-keyboard-response","308","561515","0.0-3.0-0.146","+","null","","","","","",""
"","1579","html-keyboard-response","309","563095","0.0-3.0-1.146","oricia","s","null","noncog","pseudo","N","exp","null"
"","null","html-keyboard-response","310","563596","0.0-3.0-0.147","+","null","","","","","",""
"","2170","html-keyboard-response","311","565767","0.0-3.0-1.147","resmungar","s","v","noncog","word","S","exp","9"
"","null","html-keyboard-response","312","566268","0.0-3.0-0.148","+","null","","","","","",""
"","955","html-keyboard-response","313","567223","0.0-3.0-1.148","chato","s","n","noncog","word","S","exp","5"
"","null","html-keyboard-response","314","567724","0.0-3.0-0.149","+","null","","","","","",""
"","986","html-keyboard-response","315","568711","0.0-3.0-1.149","prever","s","v","cog","word","S","exp","6"
"","null","html-keyboard-response","316","569211","0.0-3.0-0.150","+","null","","","","","",""
"","971","html-keyboard-response","317","570182","0.0-3.0-1.150","distraído","s","a","cog","word","S","exp","9"
"","null","html-keyboard-response","318","570684","0.0-3.0-0.151","+","null","","","","","",""
"","827","html-keyboard-response","319","571511","0.0-3.0-1.151","tela","s","n","noncog","word","S","exp","4"
"","null","html-keyboard-response","320","572012","0.0-3.0-0.152","+","null","","","","","",""
"","891","html-keyboard-response","321","572903","0.0-3.0-1.152","aivões","s","null","noncog","pseudo","N","exp","null"
"","null","html-keyboard-response","322","573404","0.0-3.0-0.153","+","null","","","","","",""
"","2058","html-keyboard-response","323","575463","0.0-3.0-1.153","quenzina","s","null","noncog","pseudo","N","exp","null"
"","null","html-keyboard-response","324","575964","0.0-3.0-0.154","+","null","","","","","",""
"","3483","html-keyboard-response","325","579447","0.0-3.0-1.154","bagunceira","s","a","noncog","word","S","exp","10"
"","null","html-keyboard-response","326","579948","0.0-3.0-0.155","+","null","","","","","",""
"","1914","html-keyboard-response","327","581863","0.0-3.0-1.155","sanque","s","null","noncog","pseudo","N","exp","null"
"","null","html-keyboard-response","328","582364","0.0-3.0-0.156","+","null","","","","","",""
"","1754","html-keyboard-response","329","584119","0.0-3.0-1.156","liberal","s","a","cog","word","S","exp","7"
"","null","html-keyboard-response","330","584620","0.0-3.0-0.157","+","null","","","","","",""
"","1194","html-keyboard-response","331","585815","0.0-3.0-1.157","promessa","s","n","noncog","word","S","exp","8"
"","null","html-keyboard-response","332","586316","0.0-3.0-0.158","+","null","","","","","",""
"","2890","html-keyboard-response","333","589207","0.0-3.0-1.158","deselegante","s","a","noncog","word","S","exp","11"
"","null","html-keyboard-response","334","589708","0.0-3.0-0.159","+","null","","","","","",""
"","1883","html-keyboard-response","335","591591","0.0-3.0-1.159","trenos","s","null","noncog","pseudo","N","exp","null"
"","null","html-keyboard-response","336","592091","0.0-3.0-0.160","+","null","","","","","",""
"","1067","html-keyboard-response","337","593159","0.0-3.0-1.160","ofreta","s","null","noncog","pseudo","N","exp","null"
"","null","html-keyboard-response","338","593660","0.0-3.0-0.161","+","null","","","","","",""
"","2362","html-keyboard-response","339","596023","0.0-3.0-1.161","pangos","s","null","noncog","pseudo","N","exp","null"
"","null","html-keyboard-response","340","596524","0.0-3.0-0.162","+","null","","","","","",""
"","1930","html-keyboard-response","341","598454","0.0-3.0-1.162","afual","s","null","noncog","pseudo","N","exp","null"
"","null","html-keyboard-response","342","598956","0.0-3.0-0.163","+","null","","","","","",""
"","3530","html-keyboard-response","343","602486","0.0-3.0-1.163","boreta","n","null","noncog","pseudo","N","exp","null"
"","null","html-keyboard-response","344","602988","0.0-3.0-0.164","+","null","","","","","",""
"","1146","html-keyboard-response","345","604134","0.0-3.0-1.164","temperar","s","v","noncog","word","S","exp","8"
"","null","html-keyboard-response","346","604636","0.0-3.0-0.165","+","null","","","","","",""
"","1946","html-keyboard-response","347","606582","0.0-3.0-1.165","orupas","s","null","noncog","pseudo","N","exp","null"
"","null","html-keyboard-response","348","607083","0.0-3.0-0.166","+","null","","","","","",""
"","1451","html-keyboard-response","349","608534","0.0-3.0-1.166","mua","s","null","noncog","pseudo","N","exp","null"
"","null","html-keyboard-response","350","609035","0.0-3.0-0.167","+","null","","","","","",""
"","2283","html-keyboard-response","351","611318","0.0-3.0-1.167","dilheira","s","null","noncog","pseudo","N","exp","null"
"","null","html-keyboard-response","352","611820","0.0-3.0-0.168","+","null","","","","","",""
"","2858","html-keyboard-response","353","614678","0.0-3.0-1.168","enxerido","n","a","noncog","word","S","exp","8"
"","null","html-keyboard-response","354","615179","0.0-3.0-0.169","+","null","","","","","",""
"","1051","html-keyboard-response","355","616230","0.0-3.0-1.169","carro","s","n","noncog","word","S","exp","5"
"","null","html-keyboard-response","356","616732","0.0-3.0-0.170","+","null","","","","","",""
"","1674","html-keyboard-response","357","618406","0.0-3.0-1.170","cascata","s","n","noncog","word","S","exp","7"
"","null","html-keyboard-response","358","618908","0.0-3.0-0.171","+","null","","","","","",""
"","2314","html-keyboard-response","359","621222","0.0-3.0-1.171","vitrive","s","null","noncog","pseudo","N","exp","null"
"","null","html-keyboard-response","360","621723","0.0-3.0-0.172","+","null","","","","","",""
"","2395","html-keyboard-response","361","624118","0.0-3.0-1.172","crolatário","s","null","noncog","pseudo","N","exp","null"
"","null","html-keyboard-response","362","624619","0.0-3.0-0.173","+","null","","","","","",""
"","1115","html-keyboard-response","363","625734","0.0-3.0-1.173","fratos","s","null","noncog","pseudo","N","exp","null"
"","null","html-keyboard-response","364","626235","0.0-3.0-0.174","+","null","","","","","",""
"","1402","html-keyboard-response","365","627638","0.0-3.0-1.174","macras","s","null","noncog","pseudo","N","exp","null"
"","null","html-keyboard-response","366","628139","0.0-3.0-0.175","+","null","","","","","",""
"","4059","html-keyboard-response","367","632198","0.0-3.0-1.175","planalto","s","n","cog","word","S","exp","8"
"","null","html-keyboard-response","368","632700","0.0-3.0-0.176","+","null","","","","","",""
"","1018","html-keyboard-response","369","633718","0.0-3.0-1.176","tronca","s","null","noncog","pseudo","N","exp","null"
"","null","html-keyboard-response","370","634219","0.0-3.0-0.177","+","null","","","","","",""
"","1371","html-keyboard-response","371","635590","0.0-3.0-1.177","areia","n","n","noncog","word","S","exp","5"
"","null","html-keyboard-response","372","636091","0.0-3.0-0.178","+","null","","","","","",""
"","2187","html-keyboard-response","373","638278","0.0-3.0-1.178","aletiê","n","null","noncog","pseudo","N","exp","null"
"","null","html-keyboard-response","374","638779","0.0-3.0-0.179","+","null","","","","","",""
"","3723","html-keyboard-response","375","642502","0.0-3.0-1.179","euorpa","n","null","noncog","pseudo","N","exp","null"
"","null","html-keyboard-response","376","643003","0.0-3.0-0.180","+","null","","","","","",""
"","2346","html-keyboard-response","377","645350","0.0-3.0-1.180","mania","s","n","cog","word","S","exp","5"
"","null","html-keyboard-response","378","645852","0.0-3.0-0.181","+","null","","","","","",""
"","1962","html-keyboard-response","379","647814","0.0-3.0-1.181","espionar","s","v","cog","word","S","exp","8"
"","null","html-keyboard-response","380","648315","0.0-3.0-0.182","+","null","","","","","",""
"","1083","html-keyboard-response","381","649398","0.0-3.0-1.182","nome","s","n","cog","word","S","exp","4"
"","null","html-keyboard-response","382","649899","0.0-3.0-0.183","+","null","","","","","",""
"","4603","html-keyboard-response","383","654502","0.0-3.0-1.183","enedro","n","null","noncog","pseudo","N","exp","null"
"","null","html-keyboard-response","384","655004","0.0-3.0-0.184","+","null","","","","","",""
"","842","html-keyboard-response","385","655846","0.0-3.0-1.184","tio","s","n","noncog","word","S","exp","3"
"","null","html-keyboard-response","386","656347","0.0-3.0-0.185","+","null","","","","","",""
"","3067","html-keyboard-response","387","659414","0.0-3.0-1.185","manais","n","null","noncog","pseudo","N","exp","null"
"","null","html-keyboard-response","388","659915","0.0-3.0-0.186","+","null","","","","","",""
"","1035","html-keyboard-response","389","660950","0.0-3.0-1.186","nevela","s","null","noncog","pseudo","N","exp","null"
"","null","html-keyboard-response","390","661451","0.0-3.0-0.187","+","null","","","","","",""
"","2043","html-keyboard-response","391","663494","0.0-3.0-1.187","lorfaz","s","null","noncog","pseudo","N","exp","null"
"","null","html-keyboard-response","392","663995","0.0-3.0-0.188","+","null","","","","","",""
"","1963","html-keyboard-response","393","665958","0.0-3.0-1.188","nivelado","s","a","cog","word","S","exp","8"
"","null","html-keyboard-response","394","666458","0.0-3.0-0.189","+","null","","","","","",""
"","1355","html-keyboard-response","395","667814","0.0-3.0-1.189","prenas","s","null","noncog","pseudo","N","exp","null"
"","null","html-keyboard-response","396","668314","0.0-3.0-0.190","+","null","","","","","",""
"","988","html-keyboard-response","397","669303","0.0-3.0-1.190","trabalhar","s","v","noncog","word","S","exp","9"
"","null","html-keyboard-response","398","669803","0.0-3.0-0.191","+","null","","","","","",""
"","970","html-keyboard-response","399","670774","0.0-3.0-1.191","oper","s","null","noncog","pseudo","N","exp","null"
"","null","html-keyboard-response","400","671275","0.0-3.0-0.192","+","null","","","","","",""
"","2378","html-keyboard-response","401","673654","0.0-3.0-1.192","ideisa","s","null","noncog","pseudo","N","exp","null"
"","null","html-keyboard-response","402","674155","0.0-3.0-0.193","+","null","","","","","",""
"","2010","html-keyboard-response","403","676166","0.0-3.0-1.193","medalha","s","n","cog","word","S","exp","7"
"","null","html-keyboard-response","404","676667","0.0-3.0-0.194","+","null","","","","","",""
"","3370","html-keyboard-response","405","680038","0.0-3.0-1.194","vervas","s","null","noncog","pseudo","N","exp","null"
"","null","html-keyboard-response","406","680539","0.0-3.0-0.195","+","null","","","","","",""
"","1771","html-keyboard-response","407","682310","0.0-3.0-1.195","promeção","s","null","noncog","pseudo","N","exp","null"
"","null","html-keyboard-response","408","682810","0.0-3.0-0.196","+","null","","","","","",""
"","1035","html-keyboard-response","409","683846","0.0-3.0-1.196","mal","s","a","cog","word","S","exp","3"
"","null","html-keyboard-response","410","684347","0.0-3.0-0.197","+","null","","","","","",""
"","1066","html-keyboard-response","411","685414","0.0-3.0-1.197","verdade","s","n","cog","word","S","exp","7"
"","null","html-keyboard-response","412","685914","0.0-3.0-0.198","+","null","","","","","",""
"","1835","html-keyboard-response","413","687750","0.0-3.0-1.198","conjerto","s","null","noncog","pseudo","N","exp","null"
"","null","html-keyboard-response","414","688250","0.0-3.0-0.199","+","null","","","","","",""
"","1787","html-keyboard-response","415","690038","0.0-3.0-1.199","verceja","s","null","noncog","pseudo","N","exp","null"
"","null","html-keyboard-response","416","690538","0.0-3.0-0.200","+","null","","","","","",""
"","1019","html-keyboard-response","417","691558","0.0-3.0-1.200","bandido","s","n","cog","word","S","exp","7"
"","null","html-keyboard-response","418","692059","0.0-3.0-0.201","+","null","","","","","",""
"","1243","html-keyboard-response","419","693302","0.0-3.0-1.201","braras","s","null","noncog","pseudo","N","exp","null"
"","null","html-keyboard-response","420","693814","0.0-3.0-0.202","+","null","","","","","",""
"","2447","html-keyboard-response","421","696262","0.0-3.0-1.202","espinho","s","n","noncog","word","S","exp","7"
"","null","html-keyboard-response","422","696763","0.0-3.0-0.203","+","null","","","","","",""
"","1611","html-keyboard-response","423","698374","0.0-3.0-1.203","imitar","s","v","cog","word","S","exp","6"
"","null","html-keyboard-response","424","698875","0.0-3.0-0.204","+","null","","","","","",""
"","1898","html-keyboard-response","425","700774","0.0-3.0-1.204","gruja","n","null","noncog","pseudo","N","exp","null"
"","null","html-keyboard-response","426","701275","0.0-3.0-0.205","+","null","","","","","",""
"","2698","html-keyboard-response","427","703974","0.0-3.0-1.205","senareta","s","null","noncog","pseudo","N","exp","null"
"","null","html-keyboard-response","428","704475","0.0-3.0-0.206","+","null","","","","","",""
"","1579","html-keyboard-response","429","706054","0.0-3.0-1.206","adoçar","s","v","noncog","word","S","exp","6"
"","null","html-keyboard-response","430","706555","0.0-3.0-0.207","+","null","","","","","",""
"","1306","html-keyboard-response","431","707862","0.0-3.0-1.207","manfa","s","null","noncog","pseudo","N","exp","null"
"","null","html-keyboard-response","432","708363","0.0-3.0-0.208","+","null","","","","","",""
"","3083","html-keyboard-response","433","711446","0.0-3.0-1.208","preferir","s","v","cog","word","S","exp","8"
"","null","html-keyboard-response","434","711947","0.0-3.0-0.209","+","null","","","","","",""
"","1482","html-keyboard-response","435","713429","0.0-3.0-1.209","revista","s","n","cog","word","S","exp","7"
"","null","html-keyboard-response","436","713930","0.0-3.0-0.210","+","null","","","","","",""
"","1419","html-keyboard-response","437","715350","0.0-3.0-1.210","açúcar","s","n","noncog","word","S","exp","6"
"","null","html-keyboard-response","438","715851","0.0-3.0-0.211","+","null","","","","","",""
"","2410","html-keyboard-response","439","718262","0.0-3.0-1.211","ênclio","n","null","noncog","pseudo","N","exp","null"
"","null","html-keyboard-response","440","718763","0.0-3.0-0.212","+","null","","","","","",""
"","1066","html-keyboard-response","441","719829","0.0-3.0-1.212","tímido","s","a","cog","word","S","exp","6"
"","null","html-keyboard-response","442","720331","0.0-3.0-0.213","+","null","","","","","",""
"","2521","html-keyboard-response","443","722853","0.0-3.0-1.213","gordo","n","a","noncog","word","S","exp","5"
"","null","html-keyboard-response","444","723355","0.0-3.0-0.214","+","null","","","","","",""
"","2778","html-keyboard-response","445","726133","0.0-3.0-1.214","dipata","n","null","noncog","pseudo","N","exp","null"
"","null","html-keyboard-response","446","726634","0.0-3.0-0.215","+","null","","","","","",""
"","1451","html-keyboard-response","447","728085","0.0-3.0-1.215","glória","s","n","cog","word","S","exp","6"
"","null","html-keyboard-response","448","728586","0.0-3.0-0.216","+","null","","","","","",""
"","2123","html-keyboard-response","449","730709","0.0-3.0-1.216","incomodar","s","v","noncog","word","S","exp","9"
"","null","html-keyboard-response","450","731211","0.0-3.0-0.217","+","null","","","","","",""
"","2234","html-keyboard-response","451","733445","0.0-3.0-1.217","morija","s","null","noncog","pseudo","N","exp","null"
"","null","html-keyboard-response","452","733946","0.0-3.0-0.218","+","null","","","","","",""
"","1259","html-keyboard-response","453","735205","0.0-3.0-1.218","pritas","s","null","noncog","pseudo","N","exp","null"
"","null","html-keyboard-response","454","735706","0.0-3.0-0.219","+","null","","","","","",""
"","3227","html-keyboard-response","455","738933","0.0-3.0-1.219","pedaço","s","n","noncog","word","S","exp","6"
"","null","html-keyboard-response","456","739435","0.0-3.0-0.220","+","null","","","","","",""
"","2634","html-keyboard-response","457","742069","0.0-3.0-1.220","propaganda","s","n","cog","word","S","exp","10"
"","null","html-keyboard-response","458","742570","0.0-3.0-0.221","+","null","","","","","",""
"","1723","html-keyboard-response","459","744293","0.0-3.0-1.221","destino","s","n","cog","word","S","exp","7"
"","null","html-keyboard-response","460","744794","0.0-3.0-0.222","+","null","","","","","",""
"","4075","html-keyboard-response","461","748869","0.0-3.0-1.222","terdia","n","null","noncog","pseudo","N","exp","null"
"","null","html-keyboard-response","462","749371","0.0-3.0-0.223","+","null","","","","","",""
"","3274","html-keyboard-response","463","752646","0.0-3.0-1.223","pitada","s","n","noncog","word","S","exp","6"
"","null","html-keyboard-response","464","753147","0.0-3.0-0.224","+","null","","","","","",""
"","1145","html-keyboard-response","465","754293","0.0-3.0-1.224","azul","s","n","noncog","word","S","exp","4"
"","null","html-keyboard-response","466","754795","0.0-3.0-0.225","+","null","","","","","",""
"","1258","html-keyboard-response","467","756053","0.0-3.0-1.225","selir","s","null","noncog","pseudo","N","exp","null"
"","null","html-keyboard-response","468","756555","0.0-3.0-0.226","+","null","","","","","",""
"","810","html-keyboard-response","469","757365","0.0-3.0-1.226","jantar","s","v","noncog","word","S","exp","6"
"","null","html-keyboard-response","470","757867","0.0-3.0-0.227","+","null","","","","","",""
"","1386","html-keyboard-response","471","759253","0.0-3.0-1.227","drama","s","n","cog","word","S","exp","5"
"","null","html-keyboard-response","472","759755","0.0-3.0-0.228","+","null","","","","","",""
"","3978","html-keyboard-response","473","763733","0.0-3.0-1.228","rovaz","s","null","noncog","pseudo","N","exp","null"
"","null","html-keyboard-response","474","764234","0.0-3.0-0.229","+","null","","","","","",""
"","1291","html-keyboard-response","475","765525","0.0-3.0-1.229","carregar","s","v","noncog","word","S","exp","8"
"","null","html-keyboard-response","476","766026","0.0-3.0-0.230","+","null","","","","","",""
"","1019","html-keyboard-response","477","767045","0.0-3.0-1.230","matinal","s","a","cog","word","S","exp","7"
"","null","html-keyboard-response","478","767561","0.0-3.0-0.231","+","null","","","","","",""
"","1132","html-keyboard-response","479","768693","0.0-3.0-1.231","taberia","s","null","noncog","pseudo","N","exp","null"
"","null","html-keyboard-response","480","769195","0.0-3.0-0.232","+","null","","","","","",""
"","1722","html-keyboard-response","481","770917","0.0-3.0-1.232","faínas","s","null","noncog","pseudo","N","exp","null"
"","null","html-keyboard-response","482","771418","0.0-3.0-0.233","+","null","","","","","",""
"","1099","html-keyboard-response","483","772517","0.0-3.0-1.233","frotes","s","null","noncog","pseudo","N","exp","null"
"","null","html-keyboard-response","484","773018","0.0-3.0-0.234","+","null","","","","","",""
"","5690","html-keyboard-response","485","778709","0.0-3.0-1.234","suipestar","n","null","noncog","pseudo","N","exp","null"
"","null","html-keyboard-response","486","779211","0.0-3.0-0.235","+","null","","","","","",""
"","1786","html-keyboard-response","487","780997","0.0-3.0-1.235","fasdas","s","null","noncog","pseudo","N","exp","null"
"","null","html-keyboard-response","488","781498","0.0-3.0-0.236","+","null","","","","","",""
"","1179","html-keyboard-response","489","782677","0.0-3.0-1.236","filme","s","n","cog","word","S","exp","5"
"","null","html-keyboard-response","490","783179","0.0-3.0-0.237","+","null","","","","","",""
"","1178","html-keyboard-response","491","784357","0.0-3.0-1.237","livro","s","n","cog","word","S","exp","5"
"","null","html-keyboard-response","492","784858","0.0-3.0-0.238","+","null","","","","","",""
"","1147","html-keyboard-response","493","786005","0.0-3.0-1.238","oecano","n","null","noncog","pseudo","N","exp","null"
"","null","html-keyboard-response","494","786506","0.0-3.0-0.239","+","null","","","","","",""
"","2987","html-keyboard-response","495","789493","0.0-3.0-1.239","casuas","s","null","noncog","pseudo","N","exp","null"
