"view_history","rt","trial_type","trial_index","time_elapsed","internal_node_id","stimulus","response","trial_part","word","question","answer","trial","accuracy"
"[{""page_index"":0,""viewing_time"":2441},{""page_index"":1,""viewing_time"":1864}]","4306","instructions","0","4306","0.0-0.0","","","","","","","",""
"","null","html-keyboard-response","1","5425","0.0-1.0-0.0-0.0","<span style= ""font-size:30px; font-family: monospace"">+</span>","null","fixation","","","","",""
"","6411","audio-keyboard-response","2","12114","0.0-1.0-1.0","../audio/prac-question-1-1.mp3"," ","","O","","","",""
"","7440","audio-keyboard-response","3","19825","0.0-1.0-1.1","../audio/prac-question-1-2.mp3"," ","","dia","","","",""
"","1800","audio-keyboard-response","4","21905","0.0-1.0-1.2","../audio/prac-question-1-3.mp3"," ","","estará","","","",""
"","2261","audio-keyboard-response","5","24449","0.0-1.0-1.3","../audio/prac-question-1-4.mp3"," ","","cheio","","","",""
"","1299","audio-keyboard-response","6","26017","0.0-1.0-1.4","../audio/prac-question-1-5.mp3"," ","","de","","","",""
"","1819","audio-keyboard-response","7","28113","0.0-1.0-1.5","../audio/prac-question-1-6.mp3"," ","","nuvens","","","",""
"","1299","audio-keyboard-response","8","29697","0.0-1.0-1.6","../audio/prac-question-1-7.mp3"," ","","hoje.","","","",""
"","null","html-keyboard-response","9","30975","0.0-1.0-0.7-0.7","<span style= ""font-size:30px; font-family: monospace"">+</span>","null","fixation","","","","",""
"","1701","audio-keyboard-response","10","32961","0.0-1.0-1.7","../audio/prac-question-2-1.mp3"," ","","A","","","",""
"","1560","audio-keyboard-response","11","34801","0.0-1.0-1.8","../audio/prac-question-2-2.mp3"," ","","caneca","","","",""
"","1651","audio-keyboard-response","12","36721","0.0-1.0-1.9","../audio/prac-question-2-3.mp3"," ","","colorida","","","",""
"","2341","audio-keyboard-response","13","39329","0.0-1.0-1.10","../audio/prac-question-2-4.mp3"," ","","caiu","","","",""
"","1528","audio-keyboard-response","14","41137","0.0-1.0-1.11","../audio/prac-question-2-5.mp3"," ","","da","","","",""
"","2051","audio-keyboard-response","15","43473","0.0-1.0-1.12","../audio/prac-question-2-6.mp3"," ","","mesa","","","",""
"","1931","audio-keyboard-response","16","45681","0.0-1.0-1.13","../audio/prac-question-2-7.mp3"," ","","de","","","",""
"","3251","audio-keyboard-response","17","49201","0.0-1.0-1.14","../audio/prac-question-2-8.mp3"," ","","jantar.","","","",""
"","15232","html-keyboard-response","18","64685","0.0-1.0-2.14-0.14","<span style=""font-size:25px; font-family: monospace"">A caneca era colorida?</span>","s","","","A caneca era colorida?","null","prac-sent","false"
"[{""page_index"":0,""viewing_time"":24007}]","24007","instructions","19","89197","0.0-2.0","","","","","","","",""
"","null","html-keyboard-response","20","90299","0.0-3.0-0.0-0.0","<span style= ""font-size:30px; font-family: monospace"">+</span>","null","fixation","","","","",""
"","2381","audio-keyboard-response","21","92988","0.0-3.0-1.0","../audio/28-1-fem.mp3"," ","","O","","","",""
"","1669","audio-keyboard-response","22","94940","0.0-3.0-1.1","../audio/28-2-fem.mp3"," ","","time","","","",""
"","1381","audio-keyboard-response","23","96588","0.0-3.0-1.2","../audio/28-3-fem.mp3"," ","","quer","","","",""
"","1360","audio-keyboard-response","24","98236","0.0-3.0-1.3","../audio/28-4-fem.mp3"," ","","a","","","",""
"","1789","audio-keyboard-response","25","100300","0.0-3.0-1.4","../audio/28-5-fem.mp3"," ","","vitória","","","",""
"","1120","audio-keyboard-response","26","101708","0.0-3.0-1.5","../audio/28-6-fem.mp3"," ","","no","","","",""
"","1640","audio-keyboard-response","27","103628","0.0-3.0-1.6","../audio/28-7-fem.mp3"," ","","jogo","","","",""
"","1411","audio-keyboard-response","28","105324","0.0-3.0-1.7","../audio/28-8-fem.mp3"," ","","de","","","",""
"","2549","audio-keyboard-response","29","108156","0.0-3.0-1.8","../audio/28-9-fem.mp3"," ","","vôlei.","","","",""
"","null","html-keyboard-response","30","109435","0.0-3.0-0.9-0.9","<span style= ""font-size:30px; font-family: monospace"">+</span>","null","fixation","","","","",""
"","1640","audio-keyboard-response","31","111340","0.0-3.0-1.9","../audio/27-1-masc.mp3"," ","","O","","","",""
"","1472","audio-keyboard-response","32","113084","0.0-3.0-1.10","../audio/27-2-masc.mp3"," ","","dinheiro","","","",""
"","1491","audio-keyboard-response","33","114844","0.0-3.0-1.11","../audio/27-3-masc.mp3"," ","","chegou","","","",""
"","1120","audio-keyboard-response","34","116236","0.0-3.0-1.12","../audio/27-4-masc.mp3"," ","","à","","","",""
"","1389","audio-keyboard-response","35","117900","0.0-3.0-1.13","../audio/27-5-masc.mp3"," ","","elite","","","",""
"","1280","audio-keyboard-response","36","119452","0.0-3.0-1.14","../audio/27-6-masc.mp3"," ","","deste","","","",""
"","2011","audio-keyboard-response","37","121740","0.0-3.0-1.15","../audio/27-7-masc.mp3"," ","","país.","","","",""
"","null","html-keyboard-response","38","123003","0.0-3.0-0.16-0.16","<span style= ""font-size:30px; font-family: monospace"">+</span>","null","fixation","","","","",""
"","1240","audio-keyboard-response","39","124508","0.0-3.0-1.16","../audio/26-1-masc.mp3"," ","","Amanhã","","","",""
"","1149","audio-keyboard-response","40","125935","0.0-3.0-1.17","../audio/26-2-masc.mp3"," ","","temos","","","",""
"","1200","audio-keyboard-response","41","127408","0.0-3.0-1.18","../audio/26-3-masc.mp3"," ","","festa","","","",""
"","1069","audio-keyboard-response","42","128752","0.0-3.0-1.19","../audio/26-4-masc.mp3"," ","","na","","","",""
"","1360","audio-keyboard-response","43","130384","0.0-3.0-1.20","../audio/26-5-masc.mp3"," ","","piscina","","","",""
"","1040","audio-keyboard-response","44","131696","0.0-3.0-1.21","../audio/26-6-masc.mp3"," ","","o","","","",""
"","1192","audio-keyboard-response","45","133168","0.0-3.0-1.22","../audio/26-7-masc.mp3"," ","","dia","","","",""
"","2360","audio-keyboard-response","46","135792","0.0-3.0-1.23","../audio/26-8-masc.mp3"," ","","todo.","","","",""
"","null","html-keyboard-response","47","137071","0.0-3.0-0.24-0.24","<span style= ""font-size:30px; font-family: monospace"">+</span>","null","fixation","","","","",""
"","1389","audio-keyboard-response","48","138736","0.0-3.0-1.24","../audio/29-1-masc.mp3"," ","","Hoje","","","",""
"","1752","audio-keyboard-response","49","140768","0.0-3.0-1.25","../audio/29-2-masc.mp3"," ","","vamos","","","",""
"","1669","audio-keyboard-response","50","142704","0.0-3.0-1.26","../audio/29-3-masc.mp3"," ","","fazer","","","",""
"","1291","audio-keyboard-response","51","144272","0.0-3.0-1.27","../audio/29-4-masc.mp3"," ","","uma","","","",""
"","1859","audio-keyboard-response","52","146416","0.0-3.0-1.28","../audio/29-5-masc.mp3"," ","","atividade","","","",""
"","1379","audio-keyboard-response","53","148064","0.0-3.0-1.29","../audio/29-6-masc.mp3"," ","","sobre","","","",""
"","1429","audio-keyboard-response","54","149776","0.0-3.0-1.30","../audio/29-7-masc.mp3"," ","","fauna","","","",""
"","2069","audio-keyboard-response","55","152304","0.0-3.0-1.31","../audio/29-8-masc.mp3"," ","","marinha.","","","",""
"","null","html-keyboard-response","56","153573","0.0-3.0-0.32-0.32","<span style= ""font-size:30px; font-family: monospace"">+</span>","null","fixation","","","","",""
"","1288","audio-keyboard-response","57","155136","0.0-3.0-1.32","../audio/30-1-masc.mp3"," ","","O","","","",""
"","1669","audio-keyboard-response","58","157072","0.0-3.0-1.33","../audio/30-2-masc.mp3"," ","","funcionário","","","",""
"","1571","audio-keyboard-response","59","158928","0.0-3.0-1.34","../audio/30-3-masc.mp3"," ","","entregou","","","",""
"","1139","audio-keyboard-response","60","160336","0.0-3.0-1.35","../audio/30-4-masc.mp3"," ","","o","","","",""
"","1909","audio-keyboard-response","61","162512","0.0-3.0-1.36","../audio/30-5-masc.mp3"," ","","restante","","","",""
"","1040","audio-keyboard-response","62","163824","0.0-3.0-1.37","../audio/30-6-masc.mp3"," ","","do","","","",""
"","1360","audio-keyboard-response","63","165456","0.0-3.0-1.38","../audio/30-7-masc.mp3"," ","","dinheiro.","","","",""
"","15416","html-keyboard-response","64","181136","0.0-3.0-2.38-0.38","<span style=""font-size:25px; font-family: monospace"">O funcionário entregou o contrato?</span>","n","","","O funcionário entregou o contrato?","null","exp-sent","false"
"","null","html-keyboard-response","65","182640","0.0-3.0-0.39-0.39","<span style= ""font-size:30px; font-family: monospace"">+</span>","null","fixation","","","","",""
"","3949","audio-keyboard-response","66","186879","0.0-3.0-1.39","../audio/06-1-fem.mp3"," ","","Ouvimos","","","",""
"","1381","audio-keyboard-response","67","188527","0.0-3.0-1.40","../audio/06-2-fem.mp3"," ","","a","","","",""
"","1360","audio-keyboard-response","68","190159","0.0-3.0-1.41","../audio/06-3-fem.mp3"," ","","fala","","","",""
"","920","audio-keyboard-response","69","191359","0.0-3.0-1.42","../audio/06-4-fem.mp3"," ","","do","","","",""
"","2469","audio-keyboard-response","70","194111","0.0-3.0-1.43","../audio/06-5-fem.mp3"," ","","profeta","","","",""
"","981","audio-keyboard-response","71","195359","0.0-3.0-1.44","../audio/06-6-fem.mp3"," ","","no","","","",""
"","2051","audio-keyboard-response","72","197679","0.0-3.0-1.45","../audio/06-7-fem.mp3"," ","","púlpito","","","",""
"","1032","audio-keyboard-response","73","199007","0.0-3.0-1.46","../audio/06-8-fem.mp3"," ","","da","","","",""
"","2469","audio-keyboard-response","74","201759","0.0-3.0-1.47","../audio/06-9-fem.mp3"," ","","igreja.","","","",""
"","null","html-keyboard-response","75","203022","0.0-3.0-0.48-0.48","<span style= ""font-size:30px; font-family: monospace"">+</span>","null","fixation","","","","",""
"","811","audio-keyboard-response","76","204111","0.0-3.0-1.48","../audio/09-1-fem.mp3"," ","","O","","","",""
"","1651","audio-keyboard-response","77","206047","0.0-3.0-1.49","../audio/09-2-fem.mp3"," ","","rapaz","","","",""
"","1429","audio-keyboard-response","78","207759","0.0-3.0-1.50","../audio/09-3-fem.mp3"," ","","limpou","","","",""
"","1091","audio-keyboard-response","79","209119","0.0-3.0-1.51","../audio/09-4-fem.mp3"," ","","o","","","",""
"","1309","audio-keyboard-response","80","210703","0.0-3.0-1.52","../audio/09-5-fem.mp3"," ","","terreno","","","",""
"","1181","audio-keyboard-response","81","212159","0.0-3.0-1.53","../audio/09-6-fem.mp3"," ","","com","","","",""
"","1080","audio-keyboard-response","82","213519","0.0-3.0-1.54","../audio/09-7-fem.mp3"," ","","uma","","","",""
"","1229","audio-keyboard-response","83","215039","0.0-3.0-1.55","../audio/09-8-fem.mp3"," ","","pá.","","","",""
"","null","html-keyboard-response","84","216319","0.0-3.0-0.56-0.56","<span style= ""font-size:30px; font-family: monospace"">+</span>","null","fixation","","","","",""
"","840","audio-keyboard-response","85","217423","0.0-3.0-1.56","../audio/08-1-fem.mp3"," ","","A","","","",""
"","1360","audio-keyboard-response","86","219055","0.0-3.0-1.57","../audio/08-2-fem.mp3"," ","","receita","","","",""
"","1371","audio-keyboard-response","87","220703","0.0-3.0-1.58","../audio/08-3-fem.mp3"," ","","pede","","","",""
"","1331","audio-keyboard-response","88","222319","0.0-3.0-1.59","../audio/08-4-fem.mp3"," ","","um","","","",""
"","1440","audio-keyboard-response","89","224047","0.0-3.0-1.60","../audio/08-5-fem.mp3"," ","","litro","","","",""
"","1120","audio-keyboard-response","90","225439","0.0-3.0-1.61","../audio/08-6-fem.mp3"," ","","de","","","",""
"","1320","audio-keyboard-response","91","227039","0.0-3.0-1.62","../audio/08-7-fem.mp3"," ","","leite","","","",""
"","1320","audio-keyboard-response","92","228623","0.0-3.0-1.63","../audio/08-8-fem.mp3"," ","","integral.","","","",""
"","null","html-keyboard-response","93","229899","0.0-3.0-0.64-0.64","<span style= ""font-size:30px; font-family: monospace"">+</span>","null","fixation","","","","",""
"","1091","audio-keyboard-response","94","231263","0.0-3.0-1.64","../audio/07-1-masc.mp3"," ","","Meu","","","",""
"","981","audio-keyboard-response","95","232511","0.0-3.0-1.65","../audio/07-2-masc.mp3"," ","","filho","","","",""
"","979","audio-keyboard-response","96","233775","0.0-3.0-1.66","../audio/07-3-masc.mp3"," ","","é","","","",""
"","1029","audio-keyboard-response","97","235071","0.0-3.0-1.67","../audio/07-4-masc.mp3"," ","","muito","","","",""
"","1531","audio-keyboard-response","98","236879","0.0-3.0-1.68","../audio/07-5-masc.mp3"," ","","responsável","","","",""
"","1051","audio-keyboard-response","99","238191","0.0-3.0-1.69","../audio/07-6-masc.mp3"," ","","nos","","","",""
"","1539","audio-keyboard-response","100","240015","0.0-3.0-1.70","../audio/07-7-masc.mp3"," ","","estudos.","","","",""
"","null","html-keyboard-response","101","241289","0.0-3.0-0.71-0.71","<span style= ""font-size:30px; font-family: monospace"">+</span>","null","fixation","","","","",""
"","768","audio-keyboard-response","102","242334","0.0-3.0-1.71","../audio/10-1-fem.mp3"," ","","O","","","",""
"","1299","audio-keyboard-response","103","243903","0.0-3.0-1.72","../audio/10-2-fem.mp3"," ","","pássaro","","","",""
"","1440","audio-keyboard-response","104","245614","0.0-3.0-1.73","../audio/10-3-fem.mp3"," ","","azul","","","",""
"","1400","audio-keyboard-response","105","247289","0.0-3.0-1.74","../audio/10-4-fem.mp3"," ","","estava","","","",""
"","1200","audio-keyboard-response","106","248761","0.0-3.0-1.75","../audio/10-5-fem.mp3"," ","","vivo","","","",""
"","1400","audio-keyboard-response","107","250441","0.0-3.0-1.76","../audio/10-6-fem.mp3"," ","","e","","","",""
"","1208","audio-keyboard-response","108","251929","0.0-3.0-1.77","../audio/10-7-fem.mp3"," ","","em","","","",""
"","1771","audio-keyboard-response","109","253977","0.0-3.0-1.78","../audio/10-8-fem.mp3"," ","","segurança.","","","",""
"","65878","html-keyboard-response","110","320126","0.0-3.0-2.78-0.78","<span style=""font-size:25px; font-family: monospace"">O pássaro vermelho estava em segurança?</span>","s","","","O pássaro vermelho estava em segurança?","null","exp-sent","false"
"","null","html-keyboard-response","111","321628","0.0-3.0-0.79-0.79","<span style= ""font-size:30px; font-family: monospace"">+</span>","null","fixation","","","","",""
"","3179","audio-keyboard-response","112","325134","0.0-3.0-1.79","../audio/23-1-fem.mp3"," ","","Português","","","",""
"","1160","audio-keyboard-response","113","326558","0.0-3.0-1.80","../audio/23-2-fem.mp3"," ","","é","","","",""
"","931","audio-keyboard-response","114","327806","0.0-3.0-1.81","../audio/23-3-fem.mp3"," ","","um","","","",""
"","2008","audio-keyboard-response","115","330094","0.0-3.0-1.82","../audio/23-4-fem.mp3"," ","","assunto","","","",""
"","1808","audio-keyboard-response","116","332174","0.0-3.0-1.83","../audio/23-5-fem.mp3"," ","","elementar","","","",""
"","1000","audio-keyboard-response","117","333454","0.0-3.0-1.84","../audio/23-6-fem.mp3"," ","","para","","","",""
"","979","audio-keyboard-response","118","334702","0.0-3.0-1.85","../audio/23-7-fem.mp3"," ","","os","","","",""
"","1931","audio-keyboard-response","119","336910","0.0-3.0-1.86","../audio/23-8-fem.mp3"," ","","alunos.","","","",""
"","null","html-keyboard-response","120","338195","0.0-3.0-0.87-0.87","<span style= ""font-size:30px; font-family: monospace"">+</span>","null","fixation","","","","",""
"","1019","audio-keyboard-response","121","339502","0.0-3.0-1.87","../audio/22-1-masc.mp3"," ","","Eu","","","",""
"","1200","audio-keyboard-response","122","340974","0.0-3.0-1.88","../audio/22-2-masc.mp3"," ","","detesto","","","",""
"","1360","audio-keyboard-response","123","342606","0.0-3.0-1.89","../audio/22-3-masc.mp3"," ","","fumaça","","","",""
"","1008","audio-keyboard-response","124","343886","0.0-3.0-1.90","../audio/22-4-masc.mp3"," ","","de","","","",""
"","1920","audio-keyboard-response","125","346094","0.0-3.0-1.91","../audio/22-5-masc.mp3"," ","","cachimbo","","","",""
"","792","audio-keyboard-response","126","347166","0.0-3.0-1.92","../audio/22-6-masc.mp3"," ","","e","","","",""
"","888","audio-keyboard-response","127","348334","0.0-3.0-1.93","../audio/22-7-masc.mp3"," ","","de","","","",""
"","1429","audio-keyboard-response","128","350030","0.0-3.0-1.94","../audio/22-8-masc.mp3"," ","","cigarro.","","","",""
"","null","html-keyboard-response","129","351305","0.0-3.0-0.95-0.95","<span style= ""font-size:30px; font-family: monospace"">+</span>","null","fixation","","","","",""
"","1029","audio-keyboard-response","130","352622","0.0-3.0-1.95","../audio/21-1-masc.mp3"," ","","Precisamos","","","",""
"","949","audio-keyboard-response","131","353854","0.0-3.0-1.96","../audio/21-2-masc.mp3"," ","","de","","","",""
"","1501","audio-keyboard-response","132","355630","0.0-3.0-1.97","../audio/21-3-masc.mp3"," ","","paciência","","","",""
"","1501","audio-keyboard-response","133","357406","0.0-3.0-1.98","../audio/21-4-masc.mp3"," ","","e","","","",""
"","1469","audio-keyboard-response","134","359150","0.0-3.0-1.99","../audio/21-5-masc.mp3"," ","","bondade","","","",""
"","960","audio-keyboard-response","135","360382","0.0-3.0-1.100","../audio/21-6-masc.mp3"," ","","para","","","",""
"","851","audio-keyboard-response","136","361502","0.0-3.0-1.101","../audio/21-7-masc.mp3"," ","","um","","","",""
"","1141","audio-keyboard-response","137","362910","0.0-3.0-1.102","../audio/21-8-masc.mp3"," ","","mundo","","","",""
"","1880","audio-keyboard-response","138","365070","0.0-3.0-1.103","../audio/21-9-masc.mp3"," ","","melhor.","","","",""
"","null","html-keyboard-response","139","366325","0.0-3.0-0.104-0.104","<span style= ""font-size:30px; font-family: monospace"">+</span>","null","fixation","","","","",""
"","688","audio-keyboard-response","140","367294","0.0-3.0-1.104","../audio/24-1-fem.mp3"," ","","As","","","",""
"","1059","audio-keyboard-response","141","368622","0.0-3.0-1.105","../audio/24-2-fem.mp3"," ","","crianças","","","",""
"","949","audio-keyboard-response","142","369854","0.0-3.0-1.106","../audio/24-3-fem.mp3"," ","","vão","","","",""
"","1152","audio-keyboard-response","143","371278","0.0-3.0-1.107","../audio/24-4-fem.mp3"," ","","ao","","","",""
"","1491","audio-keyboard-response","144","373038","0.0-3.0-1.108","../audio/24-5-fem.mp3"," ","","cinema","","","",""
"","1139","audio-keyboard-response","145","374455","0.0-3.0-1.109","../audio/24-6-fem.mp3"," ","","mais","","","",""
"","1240","audio-keyboard-response","146","375974","0.0-3.0-1.110","../audio/24-7-fem.mp3"," ","","tarde.","","","",""
"","null","html-keyboard-response","147","377247","0.0-3.0-0.111-0.111","<span style= ""font-size:30px; font-family: monospace"">+</span>","null","fixation","","","","",""
"","1029","audio-keyboard-response","148","378566","0.0-3.0-1.111","../audio/25-1-fem.mp3"," ","","Ela","","","",""
"","891","audio-keyboard-response","149","379734","0.0-3.0-1.112","../audio/25-2-fem.mp3"," ","","faz","","","",""
"","1131","audio-keyboard-response","150","381143","0.0-3.0-1.113","../audio/25-3-fem.mp3"," ","","tanto","","","",""
"","1109","audio-keyboard-response","151","382535","0.0-3.0-1.114","../audio/25-4-fem.mp3"," ","","cabelo","","","",""
"","1080","audio-keyboard-response","152","383895","0.0-3.0-1.115","../audio/25-5-fem.mp3"," ","","liso","","","",""
"","1011","audio-keyboard-response","153","385175","0.0-3.0-1.116","../audio/25-6-fem.mp3"," ","","quanto","","","",""
"","1651","audio-keyboard-response","154","387095","0.0-3.0-1.117","../audio/25-7-fem.mp3"," ","","cacheado.","","","",""
"","17523","html-keyboard-response","155","404871","0.0-3.0-2.117-0.117","<span style=""font-size:25px; font-family: monospace"">Ela só faz cabelo cacheado?</span>","n","","","Ela só faz cabelo cacheado?","null","exp-sent","false"
"","null","html-keyboard-response","156","406408","0.0-3.0-0.118-0.118","<span style= ""font-size:30px; font-family: monospace"">+</span>","null","fixation","","","","",""
"","1651","audio-keyboard-response","157","408343","0.0-3.0-1.118","../audio/76-1-masc.mp3"," ","","O","","","",""
"","8131","audio-keyboard-response","158","416743","0.0-3.0-1.119","../audio/76-2-masc.mp3"," ","","bisavô","","","",""
"","1440","audio-keyboard-response","159","418455","0.0-3.0-1.120","../audio/76-3-masc.mp3"," ","","comprou","","","",""
"","981","audio-keyboard-response","160","419703","0.0-3.0-1.121","../audio/76-4-masc.mp3"," ","","um","","","",""
"","1688","audio-keyboard-response","161","421687","0.0-3.0-1.122","../audio/76-5-masc.mp3"," ","","ralador","","","",""
"","819","audio-keyboard-response","162","422775","0.0-3.0-1.123","../audio/76-6-masc.mp3"," ","","de","","","",""
"","1621","audio-keyboard-response","163","424679","0.0-3.0-1.124","../audio/76-7-masc.mp3"," ","","queijo.","","","",""
"","null","html-keyboard-response","164","425968","0.0-3.0-0.125-0.125","<span style= ""font-size:30px; font-family: monospace"">+</span>","null","fixation","","","","",""
"","1000","audio-keyboard-response","165","427255","0.0-3.0-1.125","../audio/78-1-fem.mp3"," ","","Eles","","","",""
"","1051","audio-keyboard-response","166","428583","0.0-3.0-1.126","../audio/78-2-fem.mp3"," ","","trazem","","","",""
"","821","audio-keyboard-response","167","429671","0.0-3.0-1.127","../audio/78-3-fem.mp3"," ","","um","","","",""
"","1120","audio-keyboard-response","168","431063","0.0-3.0-1.128","../audio/78-4-fem.mp3"," ","","fato","","","",""
"","1509","audio-keyboard-response","169","432854","0.0-3.0-1.129","../audio/78-5-fem.mp3"," ","","urgente","","","",""
"","1032","audio-keyboard-response","170","434151","0.0-3.0-1.130","../audio/78-6-fem.mp3"," ","","todos","","","",""
"","1080","audio-keyboard-response","171","435514","0.0-3.0-1.131","../audio/78-7-fem.mp3"," ","","os","","","",""
"","1400","audio-keyboard-response","172","437194","0.0-3.0-1.132","../audio/78-8-fem.mp3"," ","","dias.","","","",""
"","null","html-keyboard-response","173","438481","0.0-3.0-0.133-0.133","<span style= ""font-size:30px; font-family: monospace"">+</span>","null","fixation","","","","",""
"","760","audio-keyboard-response","174","439530","0.0-3.0-1.133","../audio/79-1-fem.mp3"," ","","A","","","",""
"","1421","audio-keyboard-response","175","441226","0.0-3.0-1.134","../audio/79-2-fem.mp3"," ","","médica","","","",""
"","1429","audio-keyboard-response","176","442938","0.0-3.0-1.135","../audio/79-3-fem.mp3"," ","","verificou","","","",""
"","971","audio-keyboard-response","177","444186","0.0-3.0-1.136","../audio/79-4-fem.mp3"," ","","a","","","",""
"","1539","audio-keyboard-response","178","446010","0.0-3.0-1.137","../audio/79-5-fem.mp3"," ","","gengiva","","","",""
"","912","audio-keyboard-response","179","447194","0.0-3.0-1.138","../audio/79-6-fem.mp3"," ","","por","","","",""
"","1549","audio-keyboard-response","180","449018","0.0-3.0-1.139","../audio/79-7-fem.mp3"," ","","último.","","","",""
"","null","html-keyboard-response","181","450291","0.0-3.0-0.140-0.140","<span style= ""font-size:30px; font-family: monospace"">+</span>","null","fixation","","","","",""
"","760","audio-keyboard-response","182","451322","0.0-3.0-1.140","../audio/77-1-fem.mp3"," ","","A","","","",""
"","1400","audio-keyboard-response","183","453002","0.0-3.0-1.141","../audio/77-2-fem.mp3"," ","","criança","","","",""
"","1208","audio-keyboard-response","184","454490","0.0-3.0-1.142","../audio/77-3-fem.mp3"," ","","ficou","","","",""
"","1080","audio-keyboard-response","185","455834","0.0-3.0-1.143","../audio/77-4-fem.mp3"," ","","muito","","","",""
"","1029","audio-keyboard-response","186","457178","0.0-3.0-1.144","../audio/77-5-fem.mp3"," ","","feliz","","","",""
"","1141","audio-keyboard-response","187","458586","0.0-3.0-1.145","../audio/77-6-fem.mp3"," ","","com","","","",""
"","920","audio-keyboard-response","188","459786","0.0-3.0-1.146","../audio/77-7-fem.mp3"," ","","o","","","",""
"","1549","audio-keyboard-response","189","461626","0.0-3.0-1.147","../audio/77-8-fem.mp3"," ","","brinquedo.","","","",""
"","null","html-keyboard-response","190","462901","0.0-3.0-0.148-0.148","<span style= ""font-size:30px; font-family: monospace"">+</span>","null","fixation","","","","",""
"","851","audio-keyboard-response","191","464026","0.0-3.0-1.148","../audio/80-1-masc.mp3"," ","","Meu","","","",""
"","1040","audio-keyboard-response","192","465338","0.0-3.0-1.149","../audio/80-2-masc.mp3"," ","","primo","","","",""
"","1120","audio-keyboard-response","193","466730","0.0-3.0-1.150","../audio/80-3-masc.mp3"," ","","conheceu","","","",""
"","848","audio-keyboard-response","194","467850","0.0-3.0-1.151","../audio/80-4-masc.mp3"," ","","um","","","",""
"","1139","audio-keyboard-response","195","469258","0.0-3.0-1.152","../audio/80-5-masc.mp3"," ","","jovem","","","",""
"","1149","audio-keyboard-response","196","470682","0.0-3.0-1.153","../audio/80-6-masc.mp3"," ","","amável","","","",""
"","800","audio-keyboard-response","197","471770","0.0-3.0-1.154","../audio/80-7-masc.mp3"," ","","e","","","",""
"","1280","audio-keyboard-response","198","473322","0.0-3.0-1.155","../audio/80-8-masc.mp3"," ","","confiante.","","","",""
"","9008","html-keyboard-response","199","482586","0.0-3.0-2.155-0.155","<span style=""font-size:25px; font-family: monospace"">O primo conheceu um jovem irritante?</span>","n","","","O primo conheceu um jovem irritante?","null","exp-sent","false"
"","null","html-keyboard-response","200","484121","0.0-3.0-0.156-0.156","<span style= ""font-size:30px; font-family: monospace"">+</span>","null","fixation","","","","",""
"","2392","audio-keyboard-response","201","486794","0.0-3.0-1.156","../audio/68-1-fem.mp3"," ","","Meu","","","",""
"","1379","audio-keyboard-response","202","488442","0.0-3.0-1.157","../audio/68-2-fem.mp3"," ","","irmão","","","",""
"","1120","audio-keyboard-response","203","489834","0.0-3.0-1.158","../audio/68-3-fem.mp3"," ","","teve","","","",""
"","1400","audio-keyboard-response","204","491514","0.0-3.0-1.159","../audio/68-4-fem.mp3"," ","","um","","","",""
"","1651","audio-keyboard-response","205","493434","0.0-3.0-1.160","../audio/68-5-fem.mp3"," ","","noivado","","","",""
"","1560","audio-keyboard-response","206","495274","0.0-3.0-1.161","../audio/68-6-fem.mp3"," ","","longo","","","",""
"","1040","audio-keyboard-response","207","496588","0.0-3.0-1.162","../audio/68-7-fem.mp3"," ","","e","","","",""
"","2171","audio-keyboard-response","208","499036","0.0-3.0-1.163","../audio/68-8-fem.mp3"," ","","maravilhoso.","","","",""
"","null","html-keyboard-response","209","500303","0.0-3.0-0.164-0.164","<span style= ""font-size:30px; font-family: monospace"">+</span>","null","fixation","","","","",""
"","891","audio-keyboard-response","210","501484","0.0-3.0-1.164","../audio/69-1-masc.mp3"," ","","A","","","",""
"","1120","audio-keyboard-response","211","502876","0.0-3.0-1.165","../audio/69-2-masc.mp3"," ","","loja","","","",""
"","1059","audio-keyboard-response","212","504205","0.0-3.0-1.166","../audio/69-3-masc.mp3"," ","","recebeu","","","",""
"","952","audio-keyboard-response","213","505436","0.0-3.0-1.167","../audio/69-4-masc.mp3"," ","","uma","","","",""
"","1408","audio-keyboard-response","214","507132","0.0-3.0-1.168","../audio/69-5-masc.mp3"," ","","poltrona","","","",""
"","1200","audio-keyboard-response","215","508604","0.0-3.0-1.169","../audio/69-6-masc.mp3"," ","","de","","","",""
"","1328","audio-keyboard-response","216","510204","0.0-3.0-1.170","../audio/69-7-masc.mp3"," ","","couro","","","",""
"","1480","audio-keyboard-response","217","511964","0.0-3.0-1.171","../audio/69-8-masc.mp3"," ","","preto.","","","",""
"","null","html-keyboard-response","218","513233","0.0-3.0-0.172-0.172","<span style= ""font-size:30px; font-family: monospace"">+</span>","null","fixation","","","","",""
"","939","audio-keyboard-response","219","514460","0.0-3.0-1.172","../audio/66-1-fem.mp3"," ","","Não","","","",""
"","1112","audio-keyboard-response","220","515836","0.0-3.0-1.173","../audio/66-2-fem.mp3"," ","","gosto","","","",""
"","869","audio-keyboard-response","221","516988","0.0-3.0-1.174","../audio/66-3-fem.mp3"," ","","de","","","",""
"","1309","audio-keyboard-response","222","518572","0.0-3.0-1.175","../audio/66-4-fem.mp3"," ","","gente","","","",""
"","1451","audio-keyboard-response","223","520300","0.0-3.0-1.176","../audio/66-5-fem.mp3"," ","","egoísta","","","",""
"","960","audio-keyboard-response","224","521532","0.0-3.0-1.177","../audio/66-6-fem.mp3"," ","","nem","","","",""
"","1112","audio-keyboard-response","225","522924","0.0-3.0-1.178","../audio/66-7-fem.mp3"," ","","chata.","","","",""
"","null","html-keyboard-response","226","524193","0.0-3.0-0.179-0.179","<span style= ""font-size:30px; font-family: monospace"">+</span>","null","fixation","","","","",""
"","939","audio-keyboard-response","227","525420","0.0-3.0-1.179","../audio/67-1-masc.mp3"," ","","Minha","","","",""
"","971","audio-keyboard-response","228","526668","0.0-3.0-1.180","../audio/67-2-masc.mp3"," ","","tia","","","",""
"","931","audio-keyboard-response","229","527868","0.0-3.0-1.181","../audio/67-3-masc.mp3"," ","","comprou","","","",""
"","840","audio-keyboard-response","230","528988","0.0-3.0-1.182","../audio/67-4-masc.mp3"," ","","um","","","",""
"","1109","audio-keyboard-response","231","530380","0.0-3.0-1.183","../audio/67-5-masc.mp3"," ","","cordão","","","",""
"","920","audio-keyboard-response","232","531565","0.0-3.0-1.184","../audio/67-6-masc.mp3"," ","","para","","","",""
"","811","audio-keyboard-response","233","532636","0.0-3.0-1.185","../audio/67-7-masc.mp3"," ","","o","","","",""
"","2629","audio-keyboard-response","234","535548","0.0-3.0-1.186","../audio/67-8-masc.mp3"," ","","varal.","","","",""
"","null","html-keyboard-response","235","536819","0.0-3.0-0.187-0.187","<span style= ""font-size:30px; font-family: monospace"">+</span>","null","fixation","","","","",""
"","771","audio-keyboard-response","236","537868","0.0-3.0-1.187","../audio/70-1-fem.mp3"," ","","O","","","",""
"","979","audio-keyboard-response","237","539132","0.0-3.0-1.188","../audio/70-2-fem.mp3"," ","","meu","","","",""
"","1032","audio-keyboard-response","238","540444","0.0-3.0-1.189","../audio/70-3-fem.mp3"," ","","filho","","","",""
"","939","audio-keyboard-response","239","541660","0.0-3.0-1.190","../audio/70-4-fem.mp3"," ","","tem","","","",""
"","1189","audio-keyboard-response","240","543132","0.0-3.0-1.191","../audio/70-5-fem.mp3"," ","","medo","","","",""
"","840","audio-keyboard-response","241","544252","0.0-3.0-1.192","../audio/70-6-fem.mp3"," ","","de","","","",""
"","1392","audio-keyboard-response","242","545916","0.0-3.0-1.193","../audio/70-7-fem.mp3"," ","","enguia","","","",""
"","848","audio-keyboard-response","243","547052","0.0-3.0-1.194","../audio/70-8-fem.mp3"," ","","e","","","",""
"","3371","audio-keyboard-response","244","550700","0.0-3.0-1.195","../audio/70-9-fem.mp3"," ","","beija-flor.","","","",""
"","31651","html-keyboard-response","245","582604","0.0-3.0-2.195-0.195","<span style=""font-size:25px; font-family: monospace"">O filho tem medo de tigre?</span>","n","","","O filho tem medo de tigre?","null","exp-sent","false"
"","null","html-keyboard-response","246","584106","0.0-3.0-0.196-0.196","<span style= ""font-size:30px; font-family: monospace"">+</span>","null","fixation","","","","",""
"","48651","audio-keyboard-response","247","633068","0.0-3.0-1.196","../audio/74-1-fem.mp3"," ","","Este","","","",""
"","2069","audio-keyboard-response","248","635452","0.0-3.0-1.197","../audio/74-2-fem.mp3"," ","","emprego","","","",""
"","1181","audio-keyboard-response","249","636908","0.0-3.0-1.198","../audio/74-3-fem.mp3"," ","","é","","","",""
"","1280","audio-keyboard-response","250","638459","0.0-3.0-1.199","../audio/74-4-fem.mp3"," ","","muito","","","",""
"","1531","audio-keyboard-response","251","640268","0.0-3.0-1.200","../audio/74-5-fem.mp3"," ","","cansativo","","","",""
"","1200","audio-keyboard-response","252","641739","0.0-3.0-1.201","../audio/74-6-fem.mp3"," ","","a","","","",""
"","1349","audio-keyboard-response","253","643366","0.0-3.0-1.202","../audio/74-7-fem.mp3"," ","","longo","","","",""
"","1491","audio-keyboard-response","254","645126","0.0-3.0-1.203","../audio/74-8-fem.mp3"," ","","prazo.","","","",""
"","null","html-keyboard-response","255","646392","0.0-3.0-0.204-0.204","<span style= ""font-size:30px; font-family: monospace"">+</span>","null","fixation","","","","",""
"","829","audio-keyboard-response","256","647494","0.0-3.0-1.204","../audio/72-1-fem.mp3"," ","","A","","","",""
"","1680","audio-keyboard-response","257","649446","0.0-3.0-1.205","../audio/72-2-fem.mp3"," ","","vencedora","","","",""
"","1171","audio-keyboard-response","258","650903","0.0-3.0-1.206","../audio/72-3-fem.mp3"," ","","recebeu","","","",""
"","891","audio-keyboard-response","259","652070","0.0-3.0-1.207","../audio/72-4-fem.mp3"," ","","um","","","",""
"","1080","audio-keyboard-response","260","653414","0.0-3.0-1.208","../audio/72-5-fem.mp3"," ","","prêmio","","","",""
"","1459","audio-keyboard-response","261","655158","0.0-3.0-1.209","../audio/72-6-fem.mp3"," ","","em","","","",""
"","2440","audio-keyboard-response","262","657878","0.0-3.0-1.210","../audio/72-7-fem.mp3"," ","","dinheiro.","","","",""
"","null","html-keyboard-response","263","659148","0.0-3.0-0.211-0.211","<span style= ""font-size:30px; font-family: monospace"">+</span>","null","fixation","","","","",""
"","1061","audio-keyboard-response","264","660502","0.0-3.0-1.211","../audio/73-1-masc.mp3"," ","","O","","","",""
"","1200","audio-keyboard-response","265","661974","0.0-3.0-1.212","../audio/73-2-masc.mp3"," ","","cliente","","","",""
"","1040","audio-keyboard-response","266","663286","0.0-3.0-1.213","../audio/73-3-masc.mp3"," ","","era","","","",""
"","1909","audio-keyboard-response","267","665478","0.0-3.0-1.214","../audio/73-4-masc.mp3"," ","","um","","","",""
"","1429","audio-keyboard-response","268","667174","0.0-3.0-1.215","../audio/73-5-masc.mp3"," ","","homem","","","",""
"","1251","audio-keyboard-response","269","668710","0.0-3.0-1.216","../audio/73-6-masc.mp3"," ","","muito","","","",""
"","1619","audio-keyboard-response","270","670598","0.0-3.0-1.217","../audio/73-7-masc.mp3"," ","","educado.","","","",""
"","null","html-keyboard-response","271","671873","0.0-3.0-0.218-0.218","<span style= ""font-size:30px; font-family: monospace"">+</span>","null","fixation","","","","",""
"","952","audio-keyboard-response","272","673110","0.0-3.0-1.218","../audio/71-1-fem.mp3"," ","","Minhas","","","",""
"","1221","audio-keyboard-response","273","674630","0.0-3.0-1.219","../audio/71-2-fem.mp3"," ","","comidas","","","",""
"","1411","audio-keyboard-response","274","676311","0.0-3.0-1.220","../audio/71-3-fem.mp3"," ","","favoritas","","","",""
"","1099","audio-keyboard-response","275","677686","0.0-3.0-1.221","../audio/71-4-fem.mp3"," ","","são","","","",""
"","1381","audio-keyboard-response","276","679350","0.0-3.0-1.222","../audio/71-5-fem.mp3"," ","","morango","","","",""
"","960","audio-keyboard-response","277","680583","0.0-3.0-1.223","../audio/71-6-fem.mp3"," ","","e","","","",""
"","1280","audio-keyboard-response","278","682134","0.0-3.0-1.224","../audio/71-7-fem.mp3"," ","","uva.","","","",""
"","null","html-keyboard-response","279","683412","0.0-3.0-0.225-0.225","<span style= ""font-size:30px; font-family: monospace"">+</span>","null","fixation","","","","",""
"","1091","audio-keyboard-response","280","684774","0.0-3.0-1.225","../audio/75-1-fem.mp3"," ","","Só","","","",""
"","1291","audio-keyboard-response","281","686343","0.0-3.0-1.226","../audio/75-2-fem.mp3"," ","","existe","","","",""
"","909","audio-keyboard-response","282","687526","0.0-3.0-1.227","../audio/75-3-fem.mp3"," ","","uma","","","",""
"","1040","audio-keyboard-response","283","688838","0.0-3.0-1.228","../audio/75-4-fem.mp3"," ","","pessoa","","","",""
"","1560","audio-keyboard-response","284","690678","0.0-3.0-1.229","../audio/75-5-fem.mp3"," ","","canhota","","","",""
"","1109","audio-keyboard-response","285","692054","0.0-3.0-1.230","../audio/75-6-fem.mp3"," ","","nesta","","","",""
"","2240","audio-keyboard-response","286","694566","0.0-3.0-1.231","../audio/75-7-fem.mp3"," ","","cidade.","","","",""
"","9392","html-keyboard-response","287","704217","0.0-3.0-2.231-0.231","<span style=""font-size:25px; font-family: monospace"">Só existe uma pessoa canhota na cidade?</span>","s","","","Só existe uma pessoa canhota na cidade?","null","exp-sent","false"
"","null","html-keyboard-response","288","705736","0.0-3.0-0.232-0.232","<span style= ""font-size:30px; font-family: monospace"">+</span>","null","fixation","","","","",""
"","1931","audio-keyboard-response","289","707944","0.0-3.0-1.232","../audio/14-1-fem.mp3"," ","","O","","","",""
"","1381","audio-keyboard-response","290","709625","0.0-3.0-1.233","../audio/14-2-fem.mp3"," ","","cachorro","","","",""
"","840","audio-keyboard-response","291","710745","0.0-3.0-1.234","../audio/14-3-fem.mp3"," ","","é","","","",""
"","1069","audio-keyboard-response","292","712089","0.0-3.0-1.235","../audio/14-4-fem.mp3"," ","","muito","","","",""
"","1141","audio-keyboard-response","293","713513","0.0-3.0-1.236","../audio/14-5-fem.mp3"," ","","fiel","","","",""
"","859","audio-keyboard-response","294","714649","0.0-3.0-1.237","../audio/14-6-fem.mp3"," ","","a","","","",""
"","1331","audio-keyboard-response","295","716265","0.0-3.0-1.238","../audio/14-7-fem.mp3"," ","","seus","","","",""
"","1200","audio-keyboard-response","296","717737","0.0-3.0-1.239","../audio/14-8-fem.mp3"," ","","donos.","","","",""
"","null","html-keyboard-response","297","719004","0.0-3.0-0.240-0.240","<span style= ""font-size:30px; font-family: monospace"">+</span>","null","fixation","","","","",""
"","741","audio-keyboard-response","298","720025","0.0-3.0-1.240","../audio/12-1-fem.mp3"," ","","O","","","",""
"","1000","audio-keyboard-response","299","721305","0.0-3.0-1.241","../audio/12-2-fem.mp3"," ","","dia","","","",""
"","1309","audio-keyboard-response","300","722904","0.0-3.0-1.242","../audio/12-3-fem.mp3"," ","","estava","","","",""
"","1149","audio-keyboard-response","301","724345","0.0-3.0-1.243","../audio/12-4-fem.mp3"," ","","quente,","","","",""
"","1229","audio-keyboard-response","302","725849","0.0-3.0-1.244","../audio/12-5-fem.mp3"," ","","tranquilo","","","",""
"","1149","audio-keyboard-response","303","727257","0.0-3.0-1.245","../audio/12-6-fem.mp3"," ","","e","","","",""
"","2371","audio-keyboard-response","304","729913","0.0-3.0-1.246","../audio/12-7-fem.mp3"," ","","ensolarado.","","","",""
"","null","html-keyboard-response","305","731174","0.0-3.0-0.247-0.247","<span style= ""font-size:30px; font-family: monospace"">+</span>","null","fixation","","","","",""
"","1200","audio-keyboard-response","306","732649","0.0-3.0-1.247","../audio/11-1-masc.mp3"," ","","Elas","","","",""
"","1211","audio-keyboard-response","307","734137","0.0-3.0-1.248","../audio/11-2-masc.mp3"," ","","gostam","","","",""
"","1040","audio-keyboard-response","308","735465","0.0-3.0-1.249","../audio/11-3-masc.mp3"," ","","muito","","","",""
"","920","audio-keyboard-response","309","736665","0.0-3.0-1.250","../audio/11-4-masc.mp3"," ","","de","","","",""
"","2491","audio-keyboard-response","310","739433","0.0-3.0-1.251","../audio/11-5-masc.mp3"," ","","aritmética","","","",""
"","829","audio-keyboard-response","311","740536","0.0-3.0-1.252","../audio/11-6-masc.mp3"," ","","e","","","",""
"","1051","audio-keyboard-response","312","741865","0.0-3.0-1.253","../audio/11-7-masc.mp3"," ","","de","","","",""
"","2208","audio-keyboard-response","313","744361","0.0-3.0-1.254","../audio/11-8-masc.mp3"," ","","leitura.","","","",""
"","null","html-keyboard-response","314","745634","0.0-3.0-0.255-0.255","<span style= ""font-size:30px; font-family: monospace"">+</span>","null","fixation","","","","",""
"","941","audio-keyboard-response","315","746856","0.0-3.0-1.255","../audio/13-1-masc.mp3"," ","","Para","","","",""
"","1011","audio-keyboard-response","316","748137","0.0-3.0-1.256","../audio/13-2-masc.mp3"," ","","mim","","","",""
"","1040","audio-keyboard-response","317","749465","0.0-3.0-1.257","../audio/13-3-masc.mp3"," ","","é","","","",""
"","1189","audio-keyboard-response","318","750937","0.0-3.0-1.258","../audio/13-4-masc.mp3"," ","","muito","","","",""
"","1411","audio-keyboard-response","319","752633","0.0-3.0-1.259","../audio/13-5-masc.mp3"," ","","difícil","","","",""
"","1240","audio-keyboard-response","320","754136","0.0-3.0-1.260","../audio/13-6-masc.mp3"," ","","acordar","","","",""
"","1851","audio-keyboard-response","321","756265","0.0-3.0-1.261","../audio/13-7-masc.mp3"," ","","cedo.","","","",""
"","null","html-keyboard-response","322","757532","0.0-3.0-0.262-0.262","<span style= ""font-size:30px; font-family: monospace"">+</span>","null","fixation","","","","",""
"","901","audio-keyboard-response","323","758697","0.0-3.0-1.262","../audio/15-1-fem.mp3"," ","","Meu","","","",""
"","1251","audio-keyboard-response","324","760217","0.0-3.0-1.263","../audio/15-2-fem.mp3"," ","","primo","","","",""
"","960","audio-keyboard-response","325","761465","0.0-3.0-1.264","../audio/15-3-fem.mp3"," ","","é","","","",""
"","811","audio-keyboard-response","326","762553","0.0-3.0-1.265","../audio/15-4-fem.mp3"," ","","um","","","",""
"","1080","audio-keyboard-response","327","763912","0.0-3.0-1.266","../audio/15-5-fem.mp3"," ","","grande","","","",""
"","1400","audio-keyboard-response","328","765575","0.0-3.0-1.267","../audio/15-6-fem.mp3"," ","","vendedor","","","",""
"","931","audio-keyboard-response","329","766791","0.0-3.0-1.268","../audio/15-7-fem.mp3"," ","","de","","","",""
"","1360","audio-keyboard-response","330","768423","0.0-3.0-1.269","../audio/15-8-fem.mp3"," ","","carros.","","","",""
"","28460","html-keyboard-response","331","797144","0.0-3.0-2.269-0.269","<span style=""font-size:25px; font-family: monospace"">O primo é um vendedor de carros?</span>","s","","","O primo é um vendedor de carros?","null","exp-sent","false"
"","null","html-keyboard-response","332","798654","0.0-3.0-0.270-0.270","<span style= ""font-size:30px; font-family: monospace"">+</span>","null","fixation","","","","",""
"","2061","audio-keyboard-response","333","800967","0.0-3.0-1.270","../audio/01-1-masc.mp3"," ","","O","","","",""
"","2221","audio-keyboard-response","334","803479","0.0-3.0-1.271","../audio/01-2-masc.mp3"," ","","menino","","","",""
"","1901","audio-keyboard-response","335","805687","0.0-3.0-1.272","../audio/01-3-masc.mp3"," ","","derrubou","","","",""
"","1179","audio-keyboard-response","336","807144","0.0-3.0-1.273","../audio/01-4-masc.mp3"," ","","a","","","",""
"","1600","audio-keyboard-response","337","809031","0.0-3.0-1.274","../audio/01-5-masc.mp3"," ","","guitarra","","","",""
"","931","audio-keyboard-response","338","810231","0.0-3.0-1.275","../audio/01-6-masc.mp3"," ","","no","","","",""
"","1080","audio-keyboard-response","339","811575","0.0-3.0-1.276","../audio/01-7-masc.mp3"," ","","chão.","","","",""
"","null","html-keyboard-response","340","812863","0.0-3.0-0.277-0.277","<span style= ""font-size:30px; font-family: monospace"">+</span>","null","fixation","","","","",""
"","1400","audio-keyboard-response","341","814535","0.0-3.0-1.277","../audio/04-1-masc.mp3"," ","","Duzentos","","","",""
"","1019","audio-keyboard-response","342","815831","0.0-3.0-1.278","../audio/04-2-masc.mp3"," ","","carros","","","",""
"","1101","audio-keyboard-response","343","817207","0.0-3.0-1.279","../audio/04-3-masc.mp3"," ","","passaram","","","",""
"","979","audio-keyboard-response","344","818455","0.0-3.0-1.280","../audio/04-4-masc.mp3"," ","","pela","","","",""
"","1019","audio-keyboard-response","345","819735","0.0-3.0-1.281","../audio/04-5-masc.mp3"," ","","ponte","","","",""
"","1011","audio-keyboard-response","346","821031","0.0-3.0-1.282","../audio/04-6-masc.mp3"," ","","hoje","","","",""
"","829","audio-keyboard-response","347","822135","0.0-3.0-1.283","../audio/04-7-masc.mp3"," ","","de","","","",""
"","1568","audio-keyboard-response","348","823975","0.0-3.0-1.284","../audio/04-8-masc.mp3"," ","","tarde.","","","",""
"","null","html-keyboard-response","349","825262","0.0-3.0-0.285-0.285","<span style= ""font-size:30px; font-family: monospace"">+</span>","null","fixation","","","","",""
"","792","audio-keyboard-response","350","826325","0.0-3.0-1.285","../audio/03-1-masc.mp3"," ","","O","","","",""
"","1149","audio-keyboard-response","351","827749","0.0-3.0-1.286","../audio/03-2-masc.mp3"," ","","coelho","","","",""
"","861","audio-keyboard-response","352","828884","0.0-3.0-1.287","../audio/03-3-masc.mp3"," ","","foi","","","",""
"","979","audio-keyboard-response","353","830132","0.0-3.0-1.288","../audio/03-4-masc.mp3"," ","","bastante","","","",""
"","1352","audio-keyboard-response","354","831764","0.0-3.0-1.289","../audio/03-5-masc.mp3"," ","","dócil","","","",""
"","829","audio-keyboard-response","355","832868","0.0-3.0-1.290","../audio/03-6-masc.mp3"," ","","com","","","",""
"","909","audio-keyboard-response","356","834068","0.0-3.0-1.291","../audio/03-7-masc.mp3"," ","","as","","","",""
"","1709","audio-keyboard-response","357","836052","0.0-3.0-1.292","../audio/03-8-masc.mp3"," ","","crianças.","","","",""
"","null","html-keyboard-response","358","837310","0.0-3.0-0.293-0.293","<span style= ""font-size:30px; font-family: monospace"">+</span>","null","fixation","","","","",""
"","760","audio-keyboard-response","359","838340","0.0-3.0-1.293","../audio/02-2-fem.mp3"," ","","Havia","","","",""
"","1029","audio-keyboard-response","360","839620","0.0-3.0-1.294","../audio/02-2-fem.mp3"," ","","um","","","",""
"","960","audio-keyboard-response","361","840852","0.0-3.0-1.295","../audio/02-3-fem.mp3"," ","","cheiro","","","",""
"","771","audio-keyboard-response","362","841908","0.0-3.0-1.296","../audio/02-4-fem.mp3"," ","","de","","","",""
"","1371","audio-keyboard-response","363","843540","0.0-3.0-1.297","../audio/02-5-fem.mp3"," ","","gasolina","","","",""
"","832","audio-keyboard-response","364","844644","0.0-3.0-1.298","../audio/02-6-fem.mp3"," ","","na","","","",""
"","1240","audio-keyboard-response","365","846165","0.0-3.0-1.299","../audio/02-7-fem.mp3"," ","","garagem.","","","",""
"","null","html-keyboard-response","366","847439","0.0-3.0-0.300-0.300","<span style= ""font-size:30px; font-family: monospace"">+</span>","null","fixation","","","","",""
"","819","audio-keyboard-response","367","848533","0.0-3.0-1.300","../audio/05-1-masc.mp3"," ","","A","","","",""
"","1120","audio-keyboard-response","368","849941","0.0-3.0-1.301","../audio/05-2-masc.mp3"," ","","vendedora","","","",""
"","992","audio-keyboard-response","369","851204","0.0-3.0-1.302","../audio/05-3-masc.mp3"," ","","ajudou","","","",""
"","760","audio-keyboard-response","370","852245","0.0-3.0-1.303","../audio/05-4-masc.mp3"," ","","um","","","",""
"","1000","audio-keyboard-response","371","853524","0.0-3.0-1.304","../audio/05-5-masc.mp3"," ","","turista","","","",""
"","880","audio-keyboard-response","372","854676","0.0-3.0-1.305","../audio/05-6-masc.mp3"," ","","na","","","",""
"","1029","audio-keyboard-response","373","855989","0.0-3.0-1.306","../audio/05-7-masc.mp3"," ","","loja.","","","",""
"","6485","html-keyboard-response","374","862725","0.0-3.0-2.306-0.306","<span style=""font-size:25px; font-family: monospace"">A vendedora ajudou um turista?</span>","s","","","A vendedora ajudou um turista?","null","exp-sent","false"
"","null","html-keyboard-response","375","864249","0.0-3.0-0.307-0.307","<span style= ""font-size:30px; font-family: monospace"">+</span>","null","fixation","","","","",""
"","1461","audio-keyboard-response","376","866004","0.0-3.0-1.307","../audio/48-1-fem.mp3"," ","","Ela","","","",""
"","2211","audio-keyboard-response","377","868484","0.0-3.0-1.308","../audio/48-2-fem.mp3"," ","","come","","","",""
"","1501","audio-keyboard-response","378","870277","0.0-3.0-1.309","../audio/48-3-fem.mp3"," ","","feijão","","","",""
"","920","audio-keyboard-response","379","871508","0.0-3.0-1.310","../audio/48-4-fem.mp3"," ","","com","","","",""
"","1491","audio-keyboard-response","380","873269","0.0-3.0-1.311","../audio/48-5-fem.mp3"," ","","arroz","","","",""
"","1451","audio-keyboard-response","381","874980","0.0-3.0-1.312","../audio/48-6-fem.mp3"," ","","todos","","","",""
"","920","audio-keyboard-response","382","876180","0.0-3.0-1.313","../audio/48-7-fem.mp3"," ","","os","","","",""
"","7491","audio-keyboard-response","383","883957","0.0-3.0-1.314","../audio/48-8-fem.mp3"," ","","dias.","","","",""
"","null","html-keyboard-response","384","885229","0.0-3.0-0.315-0.315","<span style= ""font-size:30px; font-family: monospace"">+</span>","null","fixation","","","","",""
"","939","audio-keyboard-response","385","886454","0.0-3.0-1.315","../audio/49-1-fem.mp3"," ","","Eu","","","",""
"","920","audio-keyboard-response","386","887654","0.0-3.0-1.316","../audio/49-2-fem.mp3"," ","","quero","","","",""
"","811","audio-keyboard-response","387","888742","0.0-3.0-1.317","../audio/49-3-fem.mp3"," ","","um","","","",""
"","1251","audio-keyboard-response","388","890262","0.0-3.0-1.318","../audio/49-4-fem.mp3"," ","","lanche","","","",""
"","800","audio-keyboard-response","389","891350","0.0-3.0-1.319","../audio/49-5-fem.mp3"," ","","duplo","","","",""
"","909","audio-keyboard-response","390","892533","0.0-3.0-1.320","../audio/49-6-fem.mp3"," ","","e","","","",""
"","848","audio-keyboard-response","391","893653","0.0-3.0-1.321","../audio/49-7-fem.mp3"," ","","um","","","",""
"","1099","audio-keyboard-response","392","895029","0.0-3.0-1.322","../audio/49-8-fem.mp3"," ","","suco.","","","",""
"","null","html-keyboard-response","393","896300","0.0-3.0-0.323-0.323","<span style= ""font-size:30px; font-family: monospace"">+</span>","null","fixation","","","","",""
"","760","audio-keyboard-response","394","897333","0.0-3.0-1.323","../audio/47-1-fem.mp3"," ","","O","","","",""
"","1112","audio-keyboard-response","395","898726","0.0-3.0-1.324","../audio/47-2-fem.mp3"," ","","tio","","","",""
"","1371","audio-keyboard-response","396","900358","0.0-3.0-1.325","../audio/47-3-fem.mp3"," ","","recusou","","","",""
"","1589","audio-keyboard-response","397","902213","0.0-3.0-1.326","../audio/47-4-fem.mp3"," ","","a","","","",""
"","2488","audio-keyboard-response","398","904981","0.0-3.0-1.327","../audio/47-5-fem.mp3"," ","","sobremesa","","","",""
"","861","audio-keyboard-response","399","906117","0.0-3.0-1.328","../audio/47-6-fem.mp3"," ","","no","","","",""
"","2200","audio-keyboard-response","400","908598","0.0-3.0-1.329","../audio/47-7-fem.mp3"," ","","almoço.","","","",""
"","null","html-keyboard-response","401","909861","0.0-3.0-0.330-0.330","<span style= ""font-size:30px; font-family: monospace"">+</span>","null","fixation","","","","",""
"","3520","audio-keyboard-response","402","913653","0.0-3.0-1.330","../audio/46-1-masc.mp3"," ","","Meu","","","",""
"","1461","audio-keyboard-response","403","915398","0.0-3.0-1.331","../audio/46-2-masc.mp3"," ","","primo","","","",""
"","2421","audio-keyboard-response","404","918118","0.0-3.0-1.332","../audio/46-3-masc.mp3"," ","","estava","","","",""
"","1179","audio-keyboard-response","405","919574","0.0-3.0-1.333","../audio/46-4-masc.mp3"," ","","muito","","","",""
"","2392","audio-keyboard-response","406","922246","0.0-3.0-1.334","../audio/46-5-masc.mp3"," ","","deprimido","","","",""
"","829","audio-keyboard-response","407","923350","0.0-3.0-1.335","../audio/46-6-masc.mp3"," ","","no","","","",""
"","16768","audio-keyboard-response","408","940422","0.0-3.0-1.336","../audio/46-7-masc.mp3"," ","","inverno.","","","",""
"","null","html-keyboard-response","409","941700","0.0-3.0-0.337-0.337","<span style= ""font-size:30px; font-family: monospace"">+</span>","null","fixation","","","","",""
"","789","audio-keyboard-response","410","942773","0.0-3.0-1.337","../audio/50-1-masc.mp3"," ","","O","","","",""
"","1091","audio-keyboard-response","411","944149","0.0-3.0-1.338","../audio/50-2-masc.mp3"," ","","pássaro","","","",""
"","1069","audio-keyboard-response","412","945493","0.0-3.0-1.339","../audio/50-3-masc.mp3"," ","","fugiu","","","",""
"","779","audio-keyboard-response","413","946543","0.0-3.0-1.340","../audio/50-4-masc.mp3"," ","","da","","","",""
"","1160","audio-keyboard-response","414","947983","0.0-3.0-1.341","../audio/50-5-masc.mp3"," ","","gaiola","","","",""
"","800","audio-keyboard-response","415","949056","0.0-3.0-1.342","../audio/50-6-masc.mp3"," ","","pela","","","",""
"","1232","audio-keyboard-response","416","950560","0.0-3.0-1.343","../audio/50-7-masc.mp3"," ","","portinhola.","","","",""
"","30688","html-keyboard-response","417","981504","0.0-3.0-2.343-0.343","<span style=""font-size:25px; font-family: monospace"">O pássaro fugiu da gaiola?</span>","n","","","O pássaro fugiu da gaiola?","null","exp-sent","false"
"","null","html-keyboard-response","418","983006","0.0-3.0-0.344-0.344","<span style= ""font-size:30px; font-family: monospace"">+</span>","null","fixation","","","","",""
"","1560","audio-keyboard-response","419","984815","0.0-3.0-1.344","../audio/58-1-masc.mp3"," ","","Havia","","","",""
"","1480","audio-keyboard-response","420","986575","0.0-3.0-1.345","../audio/58-2-masc.mp3"," ","","apenas","","","",""
"","1000","audio-keyboard-response","421","987855","0.0-3.0-1.346","../audio/58-3-masc.mp3"," ","","um","","","",""
"","1200","audio-keyboard-response","422","989343","0.0-3.0-1.347","../audio/58-4-masc.mp3"," ","","último","","","",""
"","1269","audio-keyboard-response","423","990879","0.0-3.0-1.348","../audio/58-5-masc.mp3"," ","","herdeiro","","","",""
"","832","audio-keyboard-response","424","992016","0.0-3.0-1.349","../audio/58-6-masc.mp3"," ","","do","","","",""
"","1248","audio-keyboard-response","425","993551","0.0-3.0-1.350","../audio/58-7-masc.mp3"," ","","dinheiro.","","","",""
"","null","html-keyboard-response","426","994824","0.0-3.0-0.351-0.351","<span style= ""font-size:30px; font-family: monospace"">+</span>","null","fixation","","","","",""
"","760","audio-keyboard-response","427","995871","0.0-3.0-1.351","../audio/57-1-masc.mp3"," ","","O","","","",""
"","1181","audio-keyboard-response","428","997327","0.0-3.0-1.352","../audio/57-2-masc.mp3"," ","","capitão","","","",""
"","899","audio-keyboard-response","429","998511","0.0-3.0-1.353","../audio/57-3-masc.mp3"," ","","deu","","","",""
"","891","audio-keyboard-response","430","999679","0.0-3.0-1.354","../audio/57-4-masc.mp3"," ","","uma","","","",""
"","1349","audio-keyboard-response","431","1001311","0.0-3.0-1.355","../audio/57-5-masc.mp3"," ","","instrução","","","",""
"","1040","audio-keyboard-response","432","1002624","0.0-3.0-1.356","../audio/57-6-masc.mp3"," ","","para","","","",""
"","952","audio-keyboard-response","433","1003855","0.0-3.0-1.357","../audio/57-7-masc.mp3"," ","","as","","","",""
"","1491","audio-keyboard-response","434","1005615","0.0-3.0-1.358","../audio/57-8-masc.mp3"," ","","pessoas.","","","",""
"","null","html-keyboard-response","435","1006912","0.0-3.0-0.359-0.359","<span style= ""font-size:30px; font-family: monospace"">+</span>","null","fixation","","","","",""
"","669","audio-keyboard-response","436","1007880","0.0-3.0-1.359","../audio/59-1-masc.mp3"," ","","O","","","",""
"","1080","audio-keyboard-response","437","1009240","0.0-3.0-1.360","../audio/59-2-masc.mp3"," ","","carteiro","","","",""
"","952","audio-keyboard-response","438","1010472","0.0-3.0-1.361","../audio/59-3-masc.mp3"," ","","fez","","","",""
"","880","audio-keyboard-response","439","1011624","0.0-3.0-1.362","../audio/59-4-masc.mp3"," ","","uma","","","",""
"","3520","audio-keyboard-response","440","1015416","0.0-3.0-1.363","../audio/59-5-masc.mp3"," ","","tentativa","","","",""
"","989","audio-keyboard-response","441","1016680","0.0-3.0-1.364","../audio/59-6-masc.mp3"," ","","de","","","",""
"","1600","audio-keyboard-response","442","1018552","0.0-3.0-1.365","../audio/59-7-masc.mp3"," ","","entrega.","","","",""
"","null","html-keyboard-response","443","1019812","0.0-3.0-0.366-0.366","<span style= ""font-size:30px; font-family: monospace"">+</span>","null","fixation","","","","",""
"","701","audio-keyboard-response","444","1020792","0.0-3.0-1.366","../audio/56-1-masc.mp3"," ","","A","","","",""
"","1048","audio-keyboard-response","445","1022120","0.0-3.0-1.367","../audio/56-2-masc.mp3"," ","","moça","","","",""
"","880","audio-keyboard-response","446","1023272","0.0-3.0-1.368","../audio/56-3-masc.mp3"," ","","foi","","","",""
"","819","audio-keyboard-response","447","1024360","0.0-3.0-1.369","../audio/56-4-masc.mp3"," ","","à","","","",""
"","1101","audio-keyboard-response","448","1025736","0.0-3.0-1.370","../audio/56-5-masc.mp3"," ","","agência","","","",""
"","1219","audio-keyboard-response","449","1027240","0.0-3.0-1.371","../audio/56-6-masc.mp3"," ","","bancária","","","",""
"","1059","audio-keyboard-response","450","1028568","0.0-3.0-1.372","../audio/56-7-masc.mp3"," ","","ontem","","","",""
"","821","audio-keyboard-response","451","1029656","0.0-3.0-1.373","../audio/56-8-masc.mp3"," ","","de","","","",""
"","1611","audio-keyboard-response","452","1031544","0.0-3.0-1.374","../audio/56-9-masc.mp3"," ","","tarde.","","","",""
"","null","html-keyboard-response","453","1032822","0.0-3.0-0.375-0.375","<span style= ""font-size:30px; font-family: monospace"">+</span>","null","fixation","","","","",""
"","1080","audio-keyboard-response","454","1034184","0.0-3.0-1.375","../audio/60-1-masc.mp3"," ","","Ondas","","","",""
"","899","audio-keyboard-response","455","1035368","0.0-3.0-1.376","../audio/60-2-masc.mp3"," ","","têm","","","",""
"","861","audio-keyboard-response","456","1036504","0.0-3.0-1.377","../audio/60-3-masc.mp3"," ","","um","","","",""
"","1200","audio-keyboard-response","457","1037991","0.0-3.0-1.378","../audio/60-4-masc.mp3"," ","","impacto","","","",""
"","1291","audio-keyboard-response","458","1039543","0.0-3.0-1.379","../audio/60-5-masc.mp3"," ","","destrutivo","","","",""
"","859","audio-keyboard-response","459","1040680","0.0-3.0-1.380","../audio/60-6-masc.mp3"," ","","no","","","",""
"","1472","audio-keyboard-response","460","1042424","0.0-3.0-1.381","../audio/60-7-masc.mp3"," ","","litoral.","","","",""
"","6740","html-keyboard-response","461","1049432","0.0-3.0-2.381-0.381","<span style=""font-size:25px; font-family: monospace"">Ondas têm um impacto destrutivo?</span>","s","","","Ondas têm um impacto destrutivo?","null","exp-sent","false"
"","null","html-keyboard-response","462","1050973","0.0-3.0-0.382-0.382","<span style= ""font-size:30px; font-family: monospace"">+</span>","null","fixation","","","","",""
"","1829","audio-keyboard-response","463","1053080","0.0-3.0-1.382","../audio/42-1-fem.mp3"," ","","Eu","","","",""
"","1109","audio-keyboard-response","464","1054456","0.0-3.0-1.383","../audio/42-2-fem.mp3"," ","","fui","","","",""
"","949","audio-keyboard-response","465","1055688","0.0-3.0-1.384","../audio/42-3-fem.mp3"," ","","a","","","",""
"","1000","audio-keyboard-response","466","1056968","0.0-3.0-1.385","../audio/42-4-fem.mp3"," ","","uma","","","",""
"","1221","audio-keyboard-response","467","1058472","0.0-3.0-1.386","../audio/42-5-fem.mp3"," ","","loja","","","",""
"","800","audio-keyboard-response","468","1059544","0.0-3.0-1.387","../audio/42-6-fem.mp3"," ","","de","","","",""
"","1280","audio-keyboard-response","469","1061096","0.0-3.0-1.388","../audio/42-7-fem.mp3"," ","","móveis","","","",""
"","4171","audio-keyboard-response","470","1065544","0.0-3.0-1.389","../audio/42-8-fem.mp3"," ","","no","","","",""
"","2280","audio-keyboard-response","471","1068102","0.0-3.0-1.390","../audio/42-9-fem.mp3"," ","","bairro.","","","",""
"","null","html-keyboard-response","472","1069365","0.0-3.0-0.391-0.391","<span style= ""font-size:30px; font-family: monospace"">+</span>","null","fixation","","","","",""
"","861","audio-keyboard-response","473","1070502","0.0-3.0-1.391","../audio/43-1-masc.mp3"," ","","Eu","","","",""
"","1040","audio-keyboard-response","474","1071830","0.0-3.0-1.392","../audio/43-2-masc.mp3"," ","","achei","","","",""
"","829","audio-keyboard-response","475","1072934","0.0-3.0-1.393","../audio/43-3-masc.mp3"," ","","um","","","",""
"","1389","audio-keyboard-response","476","1074598","0.0-3.0-1.394","../audio/43-4-masc.mp3"," ","","colchão","","","",""
"","2941","audio-keyboard-response","477","1077814","0.0-3.0-1.395","../audio/43-5-masc.mp3"," ","","velho","","","",""
"","861","audio-keyboard-response","478","1078950","0.0-3.0-1.396","../audio/43-6-masc.mp3"," ","","e","","","",""
"","1040","audio-keyboard-response","479","1080262","0.0-3.0-1.397","../audio/43-7-masc.mp3"," ","","imundo","","","",""
"","899","audio-keyboard-response","480","1081446","0.0-3.0-1.398","../audio/43-8-masc.mp3"," ","","na","","","",""
"","1091","audio-keyboard-response","481","1082806","0.0-3.0-1.399","../audio/43-9-masc.mp3"," ","","casa.","","","",""
"","null","html-keyboard-response","482","1084080","0.0-3.0-0.400-0.400","<span style= ""font-size:30px; font-family: monospace"">+</span>","null","fixation","","","","",""
"","731","audio-keyboard-response","483","1085094","0.0-3.0-1.400","../audio/41-1-fem.mp3"," ","","A","","","",""
"","1280","audio-keyboard-response","484","1086646","0.0-3.0-1.401","../audio/41-2-fem.mp3"," ","","novela","","","",""
"","1211","audio-keyboard-response","485","1088134","0.0-3.0-1.402","../audio/41-3-fem.mp3"," ","","falava","","","",""
"","781","audio-keyboard-response","486","1089190","0.0-3.0-1.403","../audio/41-4-fem.mp3"," ","","de","","","",""
"","1240","audio-keyboard-response","487","1090710","0.0-3.0-1.404","../audio/41-5-fem.mp3"," ","","paixão","","","",""
"","808","audio-keyboard-response","488","1091798","0.0-3.0-1.405","../audio/41-6-fem.mp3"," ","","e","","","",""
"","1200","audio-keyboard-response","489","1093270","0.0-3.0-1.406","../audio/41-7-fem.mp3"," ","","comédia.","","","",""
"","null","html-keyboard-response","490","1094535","0.0-3.0-0.407-0.407","<span style= ""font-size:30px; font-family: monospace"">+</span>","null","fixation","","","","",""
"","949","audio-keyboard-response","491","1095766","0.0-3.0-1.407","../audio/44-1-masc.mp3"," ","","Meus","","","",""
"","952","audio-keyboard-response","492","1096981","0.0-3.0-1.408","../audio/44-2-masc.mp3"," ","","irmãos","","","",""
"","1051","audio-keyboard-response","493","1098310","0.0-3.0-1.409","../audio/44-3-masc.mp3"," ","","brigam","","","",""
"","1051","audio-keyboard-response","494","1099622","0.0-3.0-1.410","../audio/44-4-masc.mp3"," ","","por","","","",""
"","1059","audio-keyboard-response","495","1100966","0.0-3.0-1.411","../audio/44-5-masc.mp3"," ","","bobagem","","","",""
"","981","audio-keyboard-response","496","1102230","0.0-3.0-1.412","../audio/44-6-masc.mp3"," ","","todos","","","",""
"","872","audio-keyboard-response","497","1103382","0.0-3.0-1.413","../audio/44-7-masc.mp3"," ","","os","","","",""
"","1259","audio-keyboard-response","498","1104918","0.0-3.0-1.414","../audio/44-8-masc.mp3"," ","","dias.","","","",""
"","null","html-keyboard-response","499","1106180","0.0-3.0-0.415-0.415","<span style= ""font-size:30px; font-family: monospace"">+</span>","null","fixation","","","","",""
"","779","audio-keyboard-response","500","1107237","0.0-3.0-1.415","../audio/45-1-fem.mp3"," ","","O","","","",""
"","1032","audio-keyboard-response","501","1108550","0.0-3.0-1.416","../audio/45-2-fem.mp3"," ","","homem","","","",""
"","1019","audio-keyboard-response","502","1109846","0.0-3.0-1.417","../audio/45-3-fem.mp3"," ","","pagou","","","",""
"","821","audio-keyboard-response","503","1110950","0.0-3.0-1.418","../audio/45-4-fem.mp3"," ","","o","","","",""
"","1251","audio-keyboard-response","504","1112470","0.0-3.0-1.419","../audio/45-5-fem.mp3"," ","","aluguel","","","",""
"","821","audio-keyboard-response","505","1113574","0.0-3.0-1.420","../audio/45-6-fem.mp3"," ","","com","","","",""
"","1299","audio-keyboard-response","506","1115158","0.0-3.0-1.421","../audio/45-7-fem.mp3"," ","","atraso.","","","",""
"","11668","html-keyboard-response","507","1127078","0.0-3.0-2.421-0.421","<span style=""font-size:25px; font-family: monospace"">O homem pagou o aluguel em dia?</span>","n","","","O homem pagou o aluguel em dia?","null","exp-sent","false"
"","null","html-keyboard-response","508","1128591","0.0-3.0-0.422-0.422","<span style= ""font-size:30px; font-family: monospace"">+</span>","null","fixation","","","","",""
"","1299","audio-keyboard-response","509","1130167","0.0-3.0-1.422","../audio/53-1-masc.mp3"," ","","O","","","",""
"","1101","audio-keyboard-response","510","1131543","0.0-3.0-1.423","../audio/53-2-masc.mp3"," ","","médico","","","",""
"","1011","audio-keyboard-response","511","1132823","0.0-3.0-1.424","../audio/53-3-masc.mp3"," ","","foi","","","",""
"","1229","audio-keyboard-response","512","1134327","0.0-3.0-1.425","../audio/53-4-masc.mp3"," ","","bastante","","","",""
"","1181","audio-keyboard-response","513","1135783","0.0-3.0-1.426","../audio/53-5-masc.mp3"," ","","preciso","","","",""
"","1248","audio-keyboard-response","514","1137319","0.0-3.0-1.427","../audio/53-6-masc.mp3"," ","","durante","","","",""
"","891","audio-keyboard-response","515","1138487","0.0-3.0-1.428","../audio/53-7-masc.mp3"," ","","a","","","",""
"","1741","audio-keyboard-response","516","1140503","0.0-3.0-1.429","../audio/53-8-masc.mp3"," ","","cirurgia.","","","",""
"","null","html-keyboard-response","517","1141781","0.0-3.0-0.430-0.430","<span style= ""font-size:30px; font-family: monospace"">+</span>","null","fixation","","","","",""
"","1459","audio-keyboard-response","518","1143527","0.0-3.0-1.430","../audio/51-1-fem.mp3"," ","","Suco","","","",""
"","840","audio-keyboard-response","519","1144647","0.0-3.0-1.431","../audio/51-2-fem.mp3"," ","","de","","","",""
"","1232","audio-keyboard-response","520","1146151","0.0-3.0-1.432","../audio/51-3-fem.mp3"," ","","acerola","","","",""
"","891","audio-keyboard-response","521","1147303","0.0-3.0-1.433","../audio/51-4-fem.mp3"," ","","é","","","",""
"","1171","audio-keyboard-response","522","1148743","0.0-3.0-1.434","../audio/51-5-fem.mp3"," ","","azedo","","","",""
"","829","audio-keyboard-response","523","1149847","0.0-3.0-1.435","../audio/51-6-fem.mp3"," ","","e","","","",""
"","1109","audio-keyboard-response","524","1151239","0.0-3.0-1.436","../audio/51-7-fem.mp3"," ","","até","","","",""
"","1312","audio-keyboard-response","525","1152823","0.0-3.0-1.437","../audio/51-8-fem.mp3"," ","","barato.","","","",""
"","null","html-keyboard-response","526","1154081","0.0-3.0-0.438-0.438","<span style= ""font-size:30px; font-family: monospace"">+</span>","null","fixation","","","","",""
"","1192","audio-keyboard-response","527","1155543","0.0-3.0-1.438","../audio/54-1-fem.mp3"," ","","Estou","","","",""
"","891","audio-keyboard-response","528","1156711","0.0-3.0-1.439","../audio/54-2-fem.mp3"," ","","com","","","",""
"","1099","audio-keyboard-response","529","1158087","0.0-3.0-1.440","../audio/54-3-fem.mp3"," ","","medo","","","",""
"","981","audio-keyboard-response","530","1159351","0.0-3.0-1.441","../audio/54-4-fem.mp3"," ","","da","","","",""
"","1259","audio-keyboard-response","531","1160886","0.0-3.0-1.442","../audio/54-5-fem.mp3"," ","","atual","","","",""
"","1608","audio-keyboard-response","532","1162759","0.0-3.0-1.443","../audio/54-6-fem.mp3"," ","","organização","","","",""
"","960","audio-keyboard-response","533","1163975","0.0-3.0-1.444","../audio/54-7-fem.mp3"," ","","do","","","",""
"","1149","audio-keyboard-response","534","1165399","0.0-3.0-1.445","../audio/54-8-fem.mp3"," ","","país.","","","",""
"","null","html-keyboard-response","535","1166671","0.0-3.0-0.446-0.446","<span style= ""font-size:30px; font-family: monospace"">+</span>","null","fixation","","","","",""
"","1080","audio-keyboard-response","536","1168023","0.0-3.0-1.446","../audio/52-1-masc.mp3"," ","","Às","","","",""
"","1099","audio-keyboard-response","537","1169399","0.0-3.0-1.447","../audio/52-2-masc.mp3"," ","","vezes","","","",""
"","949","audio-keyboard-response","538","1170615","0.0-3.0-1.448","../audio/52-3-masc.mp3"," ","","eu","","","",""
"","931","audio-keyboard-response","539","1171830","0.0-3.0-1.449","../audio/52-4-masc.mp3"," ","","tenho","","","",""
"","1179","audio-keyboard-response","540","1173287","0.0-3.0-1.450","../audio/52-5-masc.mp3"," ","","azia","","","",""
"","1021","audio-keyboard-response","541","1174582","0.0-3.0-1.451","../audio/52-6-masc.mp3"," ","","depois","","","",""
"","920","audio-keyboard-response","542","1175782","0.0-3.0-1.452","../audio/52-7-masc.mp3"," ","","da","","","",""
"","1520","audio-keyboard-response","543","1177591","0.0-3.0-1.453","../audio/52-8-masc.mp3"," ","","janta.","","","",""
"","null","html-keyboard-response","544","1178861","0.0-3.0-0.454-0.454","<span style= ""font-size:30px; font-family: monospace"">+</span>","null","fixation","","","","",""
"","771","audio-keyboard-response","545","1179911","0.0-3.0-1.454","../audio/55-1-masc.mp3"," ","","O","","","",""
"","1179","audio-keyboard-response","546","1181367","0.0-3.0-1.455","../audio/55-2-masc.mp3"," ","","insulto","","","",""
"","1301","audio-keyboard-response","547","1182951","0.0-3.0-1.456","../audio/55-3-masc.mp3"," ","","recente","","","",""
"","1179","audio-keyboard-response","548","1184407","0.0-3.0-1.457","../audio/55-4-masc.mp3"," ","","causou","","","",""
"","1680","audio-keyboard-response","549","1186359","0.0-3.0-1.458","../audio/55-5-masc.mp3"," ","","indignação","","","",""
"","1000","audio-keyboard-response","550","1187623","0.0-3.0-1.459","../audio/55-6-masc.mp3"," ","","em","","","",""
"","880","audio-keyboard-response","551","1188790","0.0-3.0-1.460","../audio/55-7-masc.mp3"," ","","todos.","","","",""
"","16332","html-keyboard-response","552","1205382","0.0-3.0-2.460-0.460","<span style=""font-size:25px; font-family: monospace"">O insulto causou calmaria?</span>","n","","","O insulto causou calmaria?","null","exp-sent","false"
"","null","html-keyboard-response","553","1206903","0.0-3.0-0.461-0.461","<span style= ""font-size:30px; font-family: monospace"">+</span>","null","fixation","","","","",""
"","2739","audio-keyboard-response","554","1209926","0.0-3.0-1.461","../audio/16-1-masc.mp3"," ","","Eu","","","",""
"","1781","audio-keyboard-response","555","1211974","0.0-3.0-1.462","../audio/16-2-masc.mp3"," ","","nunca","","","",""
"","1640","audio-keyboard-response","556","1213910","0.0-3.0-1.463","../audio/16-3-masc.mp3"," ","","conheci","","","",""
"","888","audio-keyboard-response","557","1215078","0.0-3.0-1.464","../audio/16-4-masc.mp3"," ","","um","","","",""
"","1139","audio-keyboard-response","558","1216486","0.0-3.0-1.465","../audio/16-5-masc.mp3"," ","","general","","","",""
"","821","audio-keyboard-response","559","1217574","0.0-3.0-1.466","../audio/16-6-masc.mp3"," ","","do","","","",""
"","1389","audio-keyboard-response","560","1219238","0.0-3.0-1.467","../audio/16-7-masc.mp3"," ","","exército.","","","",""
"","null","html-keyboard-response","561","1220511","0.0-3.0-0.468-0.468","<span style= ""font-size:30px; font-family: monospace"">+</span>","null","fixation","","","","",""
"","792","audio-keyboard-response","562","1221590","0.0-3.0-1.468","../audio/19-1-fem.mp3"," ","","O","","","",""
"","1128","audio-keyboard-response","563","1222998","0.0-3.0-1.469","../audio/19-2-fem.mp3"," ","","menino","","","",""
"","949","audio-keyboard-response","564","1224214","0.0-3.0-1.470","../audio/19-3-fem.mp3"," ","","ganhou","","","",""
"","960","audio-keyboard-response","565","1225446","0.0-3.0-1.471","../audio/19-4-fem.mp3"," ","","uma","","","",""
"","1032","audio-keyboard-response","566","1226742","0.0-3.0-1.472","../audio/19-5-fem.mp3"," ","","bala","","","",""
"","960","audio-keyboard-response","567","1227974","0.0-3.0-1.473","../audio/19-6-fem.mp3"," ","","depois","","","",""
"","880","audio-keyboard-response","568","1229126","0.0-3.0-1.474","../audio/19-7-fem.mp3"," ","","do","","","",""
"","1621","audio-keyboard-response","569","1231030","0.0-3.0-1.475","../audio/19-8-fem.mp3"," ","","almoço.","","","",""
"","null","html-keyboard-response","570","1232300","0.0-3.0-0.476-0.476","<span style= ""font-size:30px; font-family: monospace"">+</span>","null","fixation","","","","",""
"","771","audio-keyboard-response","571","1233350","0.0-3.0-1.476","../audio/18-1-masc.mp3"," ","","O","","","",""
"","1171","audio-keyboard-response","572","1234806","0.0-3.0-1.477","../audio/18-2-masc.mp3"," ","","enredo","","","",""
"","869","audio-keyboard-response","573","1235958","0.0-3.0-1.478","../audio/18-3-masc.mp3"," ","","traz","","","",""
"","869","audio-keyboard-response","574","1237094","0.0-3.0-1.479","../audio/18-4-masc.mp3"," ","","um","","","",""
"","1051","audio-keyboard-response","575","1238422","0.0-3.0-1.480","../audio/18-5-masc.mp3"," ","","dragão","","","",""
"","989","audio-keyboard-response","576","1239686","0.0-3.0-1.481","../audio/18-6-masc.mp3"," ","","forte","","","",""
"","880","audio-keyboard-response","577","1240838","0.0-3.0-1.482","../audio/18-7-masc.mp3"," ","","e","","","",""
"","1299","audio-keyboard-response","578","1242406","0.0-3.0-1.483","../audio/18-8-masc.mp3"," ","","solitário.","","","",""
"","null","html-keyboard-response","579","1243671","0.0-3.0-0.484-0.484","<span style= ""font-size:30px; font-family: monospace"">+</span>","null","fixation","","","","",""
"","880","audio-keyboard-response","580","1244822","0.0-3.0-1.484","../audio/17-1-fem.mp3"," ","","Falaram","","","",""
"","851","audio-keyboard-response","581","1245942","0.0-3.0-1.485","../audio/17-2-fem.mp3"," ","","da","","","",""
"","1000","audio-keyboard-response","582","1247206","0.0-3.0-1.486","../audio/17-3-fem.mp3"," ","","lei","","","",""
"","912","audio-keyboard-response","583","1248390","0.0-3.0-1.487","../audio/17-4-fem.mp3"," ","","no","","","",""
"","1288","audio-keyboard-response","584","1249950","0.0-3.0-1.488","../audio/17-5-fem.mp3"," ","","ministério","","","",""
"","1088","audio-keyboard-response","585","1251310","0.0-3.0-1.489","../audio/17-6-fem.mp3"," ","","diversas","","","",""
"","1139","audio-keyboard-response","586","1252718","0.0-3.0-1.490","../audio/17-7-fem.mp3"," ","","vezes.","","","",""
"","null","html-keyboard-response","587","1253992","0.0-3.0-0.491-0.491","<span style= ""font-size:30px; font-family: monospace"">+</span>","null","fixation","","","","",""
"","680","audio-keyboard-response","588","1254958","0.0-3.0-1.491","../audio/20-1-masc.mp3"," ","","O","","","",""
"","949","audio-keyboard-response","589","1256190","0.0-3.0-1.492","../audio/20-2-masc.mp3"," ","","colega","","","",""
"","1032","audio-keyboard-response","590","1257502","0.0-3.0-1.493","../audio/20-3-masc.mp3"," ","","parecia","","","",""
"","1061","audio-keyboard-response","591","1258846","0.0-3.0-1.494","../audio/20-4-masc.mp3"," ","","muito","","","",""
"","1181","audio-keyboard-response","592","1260302","0.0-3.0-1.495","../audio/20-5-masc.mp3"," ","","gripado","","","",""
"","888","audio-keyboard-response","593","1261470","0.0-3.0-1.496","../audio/20-6-masc.mp3"," ","","no","","","",""
"","880","audio-keyboard-response","594","1262622","0.0-3.0-1.497","../audio/20-7-masc.mp3"," ","","dia","","","",""
"","1379","audio-keyboard-response","595","1264270","0.0-3.0-1.498","../audio/20-8-masc.mp3"," ","","anterior.","","","",""
"","7353","html-keyboard-response","596","1271886","0.0-3.0-2.498-0.498","<span style=""font-size:25px; font-family: monospace"">O colega parecia muito gripado?</span>","s","","","O colega parecia muito gripado?","null","exp-sent","false"
"","null","html-keyboard-response","597","1273423","0.0-3.0-0.499-0.499","<span style= ""font-size:30px; font-family: monospace"">+</span>","null","fixation","","","","",""
"","26341","audio-keyboard-response","598","1300046","0.0-3.0-1.499","../audio/38-1-masc.mp3"," ","","A","","","",""
"","2381","audio-keyboard-response","599","1302702","0.0-3.0-1.500","../audio/38-2-masc.mp3"," ","","empresa","","","",""
"","3459","audio-keyboard-response","600","1306429","0.0-3.0-1.501","../audio/38-3-masc.mp3"," ","","criou","","","",""
"","1160","audio-keyboard-response","601","1307870","0.0-3.0-1.502","../audio/38-4-masc.mp3"," ","","a","","","",""
"","1189","audio-keyboard-response","602","1309326","0.0-3.0-1.503","../audio/38-5-masc.mp3"," ","","patente","","","",""
"","1451","audio-keyboard-response","603","1311060","0.0-3.0-1.504","../audio/38-6-masc.mp3"," ","","da","","","",""
"","2160","audio-keyboard-response","604","1313492","0.0-3.0-1.505","../audio/38-7-masc.mp3"," ","","frigideira.","","","",""
"","null","html-keyboard-response","605","1314764","0.0-3.0-0.506-0.506","<span style= ""font-size:30px; font-family: monospace"">+</span>","null","fixation","","","","",""
"","851","audio-keyboard-response","606","1315892","0.0-3.0-1.506","../audio/37-1-fem.mp3"," ","","Eu","","","",""
"","1320","audio-keyboard-response","607","1317492","0.0-3.0-1.507","../audio/37-2-fem.mp3"," ","","adoro","","","",""
"","1200","audio-keyboard-response","608","1318964","0.0-3.0-1.508","../audio/37-3-fem.mp3"," ","","suco","","","",""
"","760","audio-keyboard-response","609","1320004","0.0-3.0-1.509","../audio/37-4-fem.mp3"," ","","de","","","",""
"","1141","audio-keyboard-response","610","1321428","0.0-3.0-1.510","../audio/37-5-fem.mp3"," ","","manga","","","",""
"","840","audio-keyboard-response","611","1322532","0.0-3.0-1.511","../audio/37-6-fem.mp3"," ","","com","","","",""
"","1429","audio-keyboard-response","612","1324244","0.0-3.0-1.512","../audio/37-7-fem.mp3"," ","","hortelã.","","","",""
"","null","html-keyboard-response","613","1325518","0.0-3.0-0.513-0.513","<span style= ""font-size:30px; font-family: monospace"">+</span>","null","fixation","","","","",""
"","629","audio-keyboard-response","614","1326436","0.0-3.0-1.513","../audio/39-1-fem.mp3"," ","","O","","","",""
"","1192","audio-keyboard-response","615","1327908","0.0-3.0-1.514","../audio/39-2-fem.mp3"," ","","conselho","","","",""
"","992","audio-keyboard-response","616","1329188","0.0-3.0-1.515","../audio/39-3-fem.mp3"," ","","foi","","","",""
"","1080","audio-keyboard-response","617","1330532","0.0-3.0-1.516","../audio/39-4-fem.mp3"," ","","muito","","","",""
"","901","audio-keyboard-response","618","1331699","0.0-3.0-1.517","../audio/39-5-fem.mp3"," ","","útil","","","",""
"","1579","audio-keyboard-response","619","1333556","0.0-3.0-1.518","../audio/39-6-fem.mp3"," ","","para","","","",""
"","1200","audio-keyboard-response","620","1335028","0.0-3.0-1.519","../audio/39-7-fem.mp3"," ","","minha","","","",""
"","1120","audio-keyboard-response","621","1336436","0.0-3.0-1.520","../audio/39-8-fem.mp3"," ","","tia.","","","",""
"","null","html-keyboard-response","622","1337718","0.0-3.0-0.521-0.521","<span style= ""font-size:30px; font-family: monospace"">+</span>","null","fixation","","","","",""
"","840","audio-keyboard-response","623","1338836","0.0-3.0-1.521","../audio/36-1-masc.mp3"," ","","Meu","","","",""
"","971","audio-keyboard-response","624","1340084","0.0-3.0-1.522","../audio/36-2-masc.mp3"," ","","tio","","","",""
"","960","audio-keyboard-response","625","1341316","0.0-3.0-1.523","../audio/36-3-masc.mp3"," ","","comprou","","","",""
"","880","audio-keyboard-response","626","1342468","0.0-3.0-1.524","../audio/36-4-masc.mp3"," ","","um","","","",""
"","1011","audio-keyboard-response","627","1343748","0.0-3.0-1.525","../audio/36-5-masc.mp3"," ","","filtro","","","",""
"","1000","audio-keyboard-response","628","1345012","0.0-3.0-1.526","../audio/36-6-masc.mp3"," ","","de","","","",""
"","1229","audio-keyboard-response","629","1346516","0.0-3.0-1.527","../audio/36-7-masc.mp3"," ","","água","","","",""
"","949","audio-keyboard-response","630","1347731","0.0-3.0-1.528","../audio/36-8-masc.mp3"," ","","hoje","","","",""
"","1109","audio-keyboard-response","631","1349124","0.0-3.0-1.529","../audio/36-9-masc.mp3"," ","","cedo.","","","",""
"","null","html-keyboard-response","632","1350398","0.0-3.0-0.530-0.530","<span style= ""font-size:30px; font-family: monospace"">+</span>","null","fixation","","","","",""
"","1411","audio-keyboard-response","633","1352084","0.0-3.0-1.530","../audio/40-1-masc.mp3"," ","","O","","","",""
"","1429","audio-keyboard-response","634","1353796","0.0-3.0-1.531","../audio/40-2-masc.mp3"," ","","jogo","","","",""
"","1109","audio-keyboard-response","635","1355172","0.0-3.0-1.532","../audio/40-3-masc.mp3"," ","","falava","","","",""
"","880","audio-keyboard-response","636","1356324","0.0-3.0-1.533","../audio/40-4-masc.mp3"," ","","de","","","",""
"","1360","audio-keyboard-response","637","1357956","0.0-3.0-1.534","../audio/40-5-masc.mp3"," ","","fantasia","","","",""
"","1088","audio-keyboard-response","638","1359316","0.0-3.0-1.535","../audio/40-6-masc.mp3"," ","","e","","","",""
"","811","audio-keyboard-response","639","1360404","0.0-3.0-1.536","../audio/40-7-masc.mp3"," ","","de","","","",""
"","1680","audio-keyboard-response","640","1362356","0.0-3.0-1.537","../audio/40-8-masc.mp3"," ","","aventura.","","","",""
"","8851","html-keyboard-response","641","1371459","0.0-3.0-2.537-0.537","<span style=""font-size:25px; font-family: monospace"">O jogo tinha fantasia e aventura?</span>","s","","","O jogo tinha fantasia e aventura?","null","exp-sent","false"
"","null","html-keyboard-response","642","1372997","0.0-3.0-0.538-0.538","<span style= ""font-size:30px; font-family: monospace"">+</span>","null","fixation","","","","",""
"","1261","audio-keyboard-response","643","1374531","0.0-3.0-1.538","../audio/64-1-masc.mp3"," ","","O","","","",""
"","941","audio-keyboard-response","644","1375747","0.0-3.0-1.539","../audio/64-2-masc.mp3"," ","","dia","","","",""
"","1149","audio-keyboard-response","645","1377171","0.0-3.0-1.540","../audio/64-3-masc.mp3"," ","","começou","","","",""
"","1421","audio-keyboard-response","646","1378867","0.0-3.0-1.541","../audio/64-4-masc.mp3"," ","","com","","","",""
"","1779","audio-keyboard-response","647","1380915","0.0-3.0-1.542","../audio/64-5-masc.mp3"," ","","garoa","","","",""
"","1512","audio-keyboard-response","648","1382707","0.0-3.0-1.543","../audio/64-6-masc.mp3"," ","","gelada","","","",""
"","1000","audio-keyboard-response","649","1383987","0.0-3.0-1.544","../audio/64-7-masc.mp3"," ","","e","","","",""
"","1339","audio-keyboard-response","650","1385603","0.0-3.0-1.545","../audio/64-8-masc.mp3"," ","","leve.","","","",""
"","null","html-keyboard-response","651","1386878","0.0-3.0-0.546-0.546","<span style= ""font-size:30px; font-family: monospace"">+</span>","null","fixation","","","","",""
"","741","audio-keyboard-response","652","1387891","0.0-3.0-1.546","../audio/63-1-fem.mp3"," ","","A","","","",""
"","1011","audio-keyboard-response","653","1389171","0.0-3.0-1.547","../audio/63-2-fem.mp3"," ","","chuva","","","",""
"","1112","audio-keyboard-response","654","1390547","0.0-3.0-1.548","../audio/63-3-fem.mp3"," ","","entrou","","","",""
"","909","audio-keyboard-response","655","1391731","0.0-3.0-1.549","../audio/63-4-fem.mp3"," ","","pela","","","",""
"","1331","audio-keyboard-response","656","1393331","0.0-3.0-1.550","../audio/63-5-fem.mp3"," ","","abertura","","","",""
"","771","audio-keyboard-response","657","1394387","0.0-3.0-1.551","../audio/63-6-fem.mp3"," ","","na","","","",""
"","2568","audio-keyboard-response","658","1397235","0.0-3.0-1.552","../audio/63-7-fem.mp3"," ","","janela.","","","",""
"","null","html-keyboard-response","659","1398508","0.0-3.0-0.553-0.553","<span style= ""font-size:30px; font-family: monospace"">+</span>","null","fixation","","","","",""
"","1429","audio-keyboard-response","660","1400211","0.0-3.0-1.553","../audio/61-1-fem.mp3"," ","","Aquele","","","",""
"","1331","audio-keyboard-response","661","1401827","0.0-3.0-1.554","../audio/61-2-fem.mp3"," ","","senhor","","","",""
"","779","audio-keyboard-response","662","1402883","0.0-3.0-1.555","../audio/61-3-fem.mp3"," ","","é","","","",""
"","1109","audio-keyboard-response","663","1404275","0.0-3.0-1.556","../audio/61-4-fem.mp3"," ","","muito","","","",""
"","1328","audio-keyboard-response","664","1405875","0.0-3.0-1.557","../audio/61-5-fem.mp3"," ","","sovina","","","",""
"","811","audio-keyboard-response","665","1406963","0.0-3.0-1.558","../audio/61-6-fem.mp3"," ","","e","","","",""
"","3872","audio-keyboard-response","666","1411107","0.0-3.0-1.559","../audio/61-7-fem.mp3"," ","","inflexível.","","","",""
"","null","html-keyboard-response","667","1412367","0.0-3.0-0.560-0.560","<span style= ""font-size:30px; font-family: monospace"">+</span>","null","fixation","","","","",""
"","2021","audio-keyboard-response","668","1414659","0.0-3.0-1.560","../audio/62-1-fem.mp3"," ","","As","","","",""
"","3371","audio-keyboard-response","669","1418307","0.0-3.0-1.561","../audio/62-2-fem.mp3"," ","","artesãs","","","",""
"","1048","audio-keyboard-response","670","1419635","0.0-3.0-1.562","../audio/62-3-fem.mp3"," ","","gostam","","","",""
"","792","audio-keyboard-response","671","1420707","0.0-3.0-1.563","../audio/62-4-fem.mp3"," ","","de","","","",""
"","1691","audio-keyboard-response","672","1422659","0.0-3.0-1.564","../audio/62-5-fem.mp3"," ","","maquiagem","","","",""
"","880","audio-keyboard-response","673","1423811","0.0-3.0-1.565","../audio/62-6-fem.mp3"," ","","e","","","",""
"","909","audio-keyboard-response","674","1424995","0.0-3.0-1.566","../audio/62-7-fem.mp3"," ","","de","","","",""
"","1189","audio-keyboard-response","675","1426451","0.0-3.0-1.567","../audio/62-8-fem.mp3"," ","","crochê.","","","",""
"","null","html-keyboard-response","676","1427717","0.0-3.0-0.568-0.568","<span style= ""font-size:30px; font-family: monospace"">+</span>","null","fixation","","","","",""
"","781","audio-keyboard-response","677","1428771","0.0-3.0-1.568","../audio/65-1-fem.mp3"," ","","O","","","",""
"","1261","audio-keyboard-response","678","1430307","0.0-3.0-1.569","../audio/65-2-fem.mp3"," ","","fantasma","","","",""
"","989","audio-keyboard-response","679","1431572","0.0-3.0-1.570","../audio/65-3-fem.mp3"," ","","veio","","","",""
"","861","audio-keyboard-response","680","1432708","0.0-3.0-1.571","../audio/65-4-fem.mp3"," ","","da","","","",""
"","1632","audio-keyboard-response","681","1434628","0.0-3.0-1.572","../audio/65-5-fem.mp3"," ","","escuridão","","","",""
"","789","audio-keyboard-response","682","1435684","0.0-3.0-1.573","../audio/65-6-fem.mp3"," ","","do","","","",""
"","1331","audio-keyboard-response","683","1437284","0.0-3.0-1.574","../audio/65-7-fem.mp3"," ","","armário.","","","",""
"","5554","html-keyboard-response","684","1443092","0.0-3.0-2.574-0.574","<span style=""font-size:25px; font-family: monospace"">O fantasma veio da escuridão do armário?</span>","s","","","O fantasma veio da escuridão do armário?","null","exp-sent","false"
"","null","html-keyboard-response","685","1444618","0.0-3.0-0.575-0.575","<span style= ""font-size:30px; font-family: monospace"">+</span>","null","fixation","","","","",""
"","2931","audio-keyboard-response","686","1447828","0.0-3.0-1.575","../audio/31-1-masc.mp3"," ","","O","","","",""
"","2352","audio-keyboard-response","687","1450468","0.0-3.0-1.576","../audio/31-2-masc.mp3"," ","","padeiro","","","",""
"","1160","audio-keyboard-response","688","1451908","0.0-3.0-1.577","../audio/31-3-masc.mp3"," ","","usou","","","",""
"","1019","audio-keyboard-response","689","1453204","0.0-3.0-1.578","../audio/31-4-masc.mp3"," ","","a","","","",""
"","1891","audio-keyboard-response","690","1455364","0.0-3.0-1.579","../audio/31-5-masc.mp3"," ","","balança","","","",""
"","1101","audio-keyboard-response","691","1456740","0.0-3.0-1.580","../audio/31-6-masc.mp3"," ","","o","","","",""
"","1589","audio-keyboard-response","692","1458596","0.0-3.0-1.581","../audio/31-7-masc.mp3"," ","","dia","","","",""
"","1912","audio-keyboard-response","693","1460788","0.0-3.0-1.582","../audio/31-8-masc.mp3"," ","","inteiro.","","","",""
"","null","html-keyboard-response","694","1462068","0.0-3.0-0.583-0.583","<span style= ""font-size:30px; font-family: monospace"">+</span>","null","fixation","","","","",""
"","2040","audio-keyboard-response","695","1464388","0.0-3.0-1.583","../audio/34-1-fem.mp3"," ","","Cobrança","","","",""
"","2120","audio-keyboard-response","696","1466804","0.0-3.0-1.584","../audio/34-2-fem.mp3"," ","","excessiva","","","",""
"","981","audio-keyboard-response","697","1468052","0.0-3.0-1.585","../audio/34-3-fem.mp3"," ","","é","","","",""
"","851","audio-keyboard-response","698","1469172","0.0-3.0-1.586","../audio/34-4-fem.mp3"," ","","um","","","",""
"","1091","audio-keyboard-response","699","1470532","0.0-3.0-1.587","../audio/34-5-fem.mp3"," ","","fardo","","","",""
"","1011","audio-keyboard-response","700","1471828","0.0-3.0-1.588","../audio/34-6-fem.mp3"," ","","para","","","",""
"","771","audio-keyboard-response","701","1472868","0.0-3.0-1.589","../audio/34-7-fem.mp3"," ","","a","","","",""
"","5179","audio-keyboard-response","702","1478324","0.0-3.0-1.590","../audio/34-8-fem.mp3"," ","","cabeça.","","","",""
"","null","html-keyboard-response","703","1479598","0.0-3.0-0.591-0.591","<span style= ""font-size:30px; font-family: monospace"">+</span>","null","fixation","","","","",""
"","920","audio-keyboard-response","704","1480804","0.0-3.0-1.591","../audio/33-1-masc.mp3"," ","","Eles","","","",""
"","949","audio-keyboard-response","705","1482036","0.0-3.0-1.592","../audio/33-2-masc.mp3"," ","","sabem","","","",""
"","928","audio-keyboard-response","706","1483236","0.0-3.0-1.593","../audio/33-3-masc.mp3"," ","","do","","","",""
"","1101","audio-keyboard-response","707","1484612","0.0-3.0-1.594","../audio/33-4-masc.mp3"," ","","seu","","","",""
"","1469","audio-keyboard-response","708","1486372","0.0-3.0-1.595","../audio/33-5-masc.mp3"," ","","privilégio","","","",""
"","1091","audio-keyboard-response","709","1487732","0.0-3.0-1.596","../audio/33-6-masc.mp3"," ","","nessa","","","",""
"","1440","audio-keyboard-response","710","1489444","0.0-3.0-1.597","../audio/33-7-masc.mp3"," ","","confusão.","","","",""
"","null","html-keyboard-response","711","1490718","0.0-3.0-0.598-0.598","<span style= ""font-size:30px; font-family: monospace"">+</span>","null","fixation","","","","",""
"","771","audio-keyboard-response","712","1491758","0.0-3.0-1.598","../audio/32-1-masc.mp3"," ","","A","","","",""
"","880","audio-keyboard-response","713","1492910","0.0-3.0-1.599","../audio/32-2-masc.mp3"," ","","tia","","","",""
"","971","audio-keyboard-response","714","1494158","0.0-3.0-1.600","../audio/32-3-masc.mp3"," ","","comprou","","","",""
"","981","audio-keyboard-response","715","1495406","0.0-3.0-1.601","../audio/32-4-masc.mp3"," ","","um","","","",""
"","1109","audio-keyboard-response","716","1496798","0.0-3.0-1.602","../audio/32-5-masc.mp3"," ","","pilão","","","",""
"","1061","audio-keyboard-response","717","1498126","0.0-3.0-1.603","../audio/32-6-masc.mp3"," ","","para","","","",""
"","909","audio-keyboard-response","718","1499310","0.0-3.0-1.604","../audio/32-7-masc.mp3"," ","","a","","","",""
"","1021","audio-keyboard-response","719","1500606","0.0-3.0-1.605","../audio/32-8-masc.mp3"," ","","cozinha.","","","",""
"","null","html-keyboard-response","720","1501882","0.0-3.0-0.606-0.606","<span style= ""font-size:30px; font-family: monospace"">+</span>","null","fixation","","","","",""
"","741","audio-keyboard-response","721","1502894","0.0-3.0-1.606","../audio/35-1-masc.mp3"," ","","A","","","",""
"","1779","audio-keyboard-response","722","1504958","0.0-3.0-1.607","../audio/35-2-masc.mp3"," ","","receita","","","",""
"","901","audio-keyboard-response","723","1506126","0.0-3.0-1.608","../audio/35-3-masc.mp3"," ","","para","","","",""
"","891","audio-keyboard-response","724","1507294","0.0-3.0-1.609","../audio/35-4-masc.mp3"," ","","a","","","",""
"","1131","audio-keyboard-response","725","1508702","0.0-3.0-1.610","../audio/35-5-masc.mp3"," ","","preparação","","","",""
"","888","audio-keyboard-response","726","1509870","0.0-3.0-1.611","../audio/35-6-masc.mp3"," ","","do","","","",""
"","1109","audio-keyboard-response","727","1511246","0.0-3.0-1.612","../audio/35-7-masc.mp3"," ","","bolo","","","",""
"","981","audio-keyboard-response","728","1512494","0.0-3.0-1.613","../audio/35-8-masc.mp3"," ","","é","","","",""
"","1211","audio-keyboard-response","729","1513982","0.0-3.0-1.614","../audio/35-9-masc.mp3"," ","","leve.","","","",""
"","6715","html-keyboard-response","730","1520958","0.0-3.0-2.614-0.614","<span style=""font-size:25px; font-family: monospace"">A receita do bolo é pesada?</span>","n","","","A receita do bolo é pesada?","null","exp-sent","false"
"[{""page_index"":0,""viewing_time"":26744}]","26744","instructions","731","1548207","0.0-4.0","","","","","","","",""
