[
	{
		"view_history": [
			{
				"page_index": 0,
				"viewing_time": 2867
			}
		],
		"rt": 2867,
		"trial_type": "instructions",
		"trial_index": 0,
		"time_elapsed": 2868,
		"internal_node_id": "0.0-0.0"
	},
	{
		"rt": 265010,
		"response": {
			"reading_habits_printed_magazines": "Uma vez por semana",
			"reading_habits_printed_newspapers": "Raramente",
			"reading_habits_books": "Todos os dias",
			"reading_habits_printed_socialmedias": "Todos os dias"
		},
		"question_order": [
			0,
			1,
			2,
			3
		],
		"trial_type": "survey-multi-choice",
		"trial_index": 1,
		"time_elapsed": 267995,
		"internal_node_id": "0.0-1.0"
	},
	{
		"rt": 84143,
		"response": {
			"reading_habits_virtual_magazines": "Uma vez por semana",
			"reading_habits_virtual_newspapers": "Raramente",
			"reading_habits_books": "Alguns dias da semana",
			"reading_habits_virtual_socialmedias": "Todos os dias"
		},
		"question_order": [
			0,
			1,
			2,
			3
		],
		"trial_type": "survey-multi-choice",
		"trial_index": 2,
		"time_elapsed": 352242,
		"internal_node_id": "0.0-2.0"
	},
	{
		"rt": 69737,
		"response": {
			"reading_habits_other_which": "NAO",
			"reading_habits_other_frequency": ""
		},
		"trial_type": "survey-text",
		"trial_index": 3,
		"time_elapsed": 422082,
		"internal_node_id": "0.0-3.0"
	}
]