[
	{
		"view_history": [
			{
				"page_index": 0,
				"viewing_time": 2441
			},
			{
				"page_index": 1,
				"viewing_time": 1864
			}
		],
		"rt": 4306,
		"trial_type": "instructions",
		"trial_index": 0,
		"time_elapsed": 4306,
		"internal_node_id": "0.0-0.0"
	},
	{
		"rt": null,
		"stimulus": "<span style= \"font-size:30px; font-family: monospace\">+</span>",
		"response": null,
		"trial_part": "fixation",
		"trial_type": "html-keyboard-response",
		"trial_index": 1,
		"time_elapsed": 5425,
		"internal_node_id": "0.0-1.0-0.0-0.0"
	},
	{
		"rt": 6411,
		"stimulus": "../audio/prac-question-1-1.mp3",
		"response": " ",
		"word": "O",
		"trial_type": "audio-keyboard-response",
		"trial_index": 2,
		"time_elapsed": 12114,
		"internal_node_id": "0.0-1.0-1.0"
	},
	{
		"rt": 7440,
		"stimulus": "../audio/prac-question-1-2.mp3",
		"response": " ",
		"word": "dia",
		"trial_type": "audio-keyboard-response",
		"trial_index": 3,
		"time_elapsed": 19825,
		"internal_node_id": "0.0-1.0-1.1"
	},
	{
		"rt": 1800,
		"stimulus": "../audio/prac-question-1-3.mp3",
		"response": " ",
		"word": "estará",
		"trial_type": "audio-keyboard-response",
		"trial_index": 4,
		"time_elapsed": 21905,
		"internal_node_id": "0.0-1.0-1.2"
	},
	{
		"rt": 2261,
		"stimulus": "../audio/prac-question-1-4.mp3",
		"response": " ",
		"word": "cheio",
		"trial_type": "audio-keyboard-response",
		"trial_index": 5,
		"time_elapsed": 24449,
		"internal_node_id": "0.0-1.0-1.3"
	},
	{
		"rt": 1299,
		"stimulus": "../audio/prac-question-1-5.mp3",
		"response": " ",
		"word": "de",
		"trial_type": "audio-keyboard-response",
		"trial_index": 6,
		"time_elapsed": 26017,
		"internal_node_id": "0.0-1.0-1.4"
	},
	{
		"rt": 1819,
		"stimulus": "../audio/prac-question-1-6.mp3",
		"response": " ",
		"word": "nuvens",
		"trial_type": "audio-keyboard-response",
		"trial_index": 7,
		"time_elapsed": 28113,
		"internal_node_id": "0.0-1.0-1.5"
	},
	{
		"rt": 1299,
		"stimulus": "../audio/prac-question-1-7.mp3",
		"response": " ",
		"word": "hoje.",
		"trial_type": "audio-keyboard-response",
		"trial_index": 8,
		"time_elapsed": 29697,
		"internal_node_id": "0.0-1.0-1.6"
	},
	{
		"rt": null,
		"stimulus": "<span style= \"font-size:30px; font-family: monospace\">+</span>",
		"response": null,
		"trial_part": "fixation",
		"trial_type": "html-keyboard-response",
		"trial_index": 9,
		"time_elapsed": 30975,
		"internal_node_id": "0.0-1.0-0.7-0.7"
	},
	{
		"rt": 1701,
		"stimulus": "../audio/prac-question-2-1.mp3",
		"response": " ",
		"word": "A",
		"trial_type": "audio-keyboard-response",
		"trial_index": 10,
		"time_elapsed": 32961,
		"internal_node_id": "0.0-1.0-1.7"
	},
	{
		"rt": 1560,
		"stimulus": "../audio/prac-question-2-2.mp3",
		"response": " ",
		"word": "caneca",
		"trial_type": "audio-keyboard-response",
		"trial_index": 11,
		"time_elapsed": 34801,
		"internal_node_id": "0.0-1.0-1.8"
	},
	{
		"rt": 1651,
		"stimulus": "../audio/prac-question-2-3.mp3",
		"response": " ",
		"word": "colorida",
		"trial_type": "audio-keyboard-response",
		"trial_index": 12,
		"time_elapsed": 36721,
		"internal_node_id": "0.0-1.0-1.9"
	},
	{
		"rt": 2341,
		"stimulus": "../audio/prac-question-2-4.mp3",
		"response": " ",
		"word": "caiu",
		"trial_type": "audio-keyboard-response",
		"trial_index": 13,
		"time_elapsed": 39329,
		"internal_node_id": "0.0-1.0-1.10"
	},
	{
		"rt": 1528,
		"stimulus": "../audio/prac-question-2-5.mp3",
		"response": " ",
		"word": "da",
		"trial_type": "audio-keyboard-response",
		"trial_index": 14,
		"time_elapsed": 41137,
		"internal_node_id": "0.0-1.0-1.11"
	},
	{
		"rt": 2051,
		"stimulus": "../audio/prac-question-2-6.mp3",
		"response": " ",
		"word": "mesa",
		"trial_type": "audio-keyboard-response",
		"trial_index": 15,
		"time_elapsed": 43473,
		"internal_node_id": "0.0-1.0-1.12"
	},
	{
		"rt": 1931,
		"stimulus": "../audio/prac-question-2-7.mp3",
		"response": " ",
		"word": "de",
		"trial_type": "audio-keyboard-response",
		"trial_index": 16,
		"time_elapsed": 45681,
		"internal_node_id": "0.0-1.0-1.13"
	},
	{
		"rt": 3251,
		"stimulus": "../audio/prac-question-2-8.mp3",
		"response": " ",
		"word": "jantar.",
		"trial_type": "audio-keyboard-response",
		"trial_index": 17,
		"time_elapsed": 49201,
		"internal_node_id": "0.0-1.0-1.14"
	},
	{
		"rt": 15232,
		"stimulus": "<span style=\"font-size:25px; font-family: monospace\">A caneca era colorida?</span>",
		"response": "s",
		"question": "A caneca era colorida?",
		"answer": "null",
		"trial": "prac-sent",
		"trial_type": "html-keyboard-response",
		"trial_index": 18,
		"time_elapsed": 64685,
		"internal_node_id": "0.0-1.0-2.14-0.14",
		"accuracy": false
	},
	{
		"view_history": [
			{
				"page_index": 0,
				"viewing_time": 24007
			}
		],
		"rt": 24007,
		"trial_type": "instructions",
		"trial_index": 19,
		"time_elapsed": 89197,
		"internal_node_id": "0.0-2.0"
	},
	{
		"rt": null,
		"stimulus": "<span style= \"font-size:30px; font-family: monospace\">+</span>",
		"response": null,
		"trial_part": "fixation",
		"trial_type": "html-keyboard-response",
		"trial_index": 20,
		"time_elapsed": 90299,
		"internal_node_id": "0.0-3.0-0.0-0.0"
	},
	{
		"rt": 2381,
		"stimulus": "../audio/28-1-fem.mp3",
		"response": " ",
		"word": "O",
		"trial_type": "audio-keyboard-response",
		"trial_index": 21,
		"time_elapsed": 92988,
		"internal_node_id": "0.0-3.0-1.0"
	},
	{
		"rt": 1669,
		"stimulus": "../audio/28-2-fem.mp3",
		"response": " ",
		"word": "time",
		"trial_type": "audio-keyboard-response",
		"trial_index": 22,
		"time_elapsed": 94940,
		"internal_node_id": "0.0-3.0-1.1"
	},
	{
		"rt": 1381,
		"stimulus": "../audio/28-3-fem.mp3",
		"response": " ",
		"word": "quer",
		"trial_type": "audio-keyboard-response",
		"trial_index": 23,
		"time_elapsed": 96588,
		"internal_node_id": "0.0-3.0-1.2"
	},
	{
		"rt": 1360,
		"stimulus": "../audio/28-4-fem.mp3",
		"response": " ",
		"word": "a",
		"trial_type": "audio-keyboard-response",
		"trial_index": 24,
		"time_elapsed": 98236,
		"internal_node_id": "0.0-3.0-1.3"
	},
	{
		"rt": 1789,
		"stimulus": "../audio/28-5-fem.mp3",
		"response": " ",
		"word": "vitória",
		"trial_type": "audio-keyboard-response",
		"trial_index": 25,
		"time_elapsed": 100300,
		"internal_node_id": "0.0-3.0-1.4"
	},
	{
		"rt": 1120,
		"stimulus": "../audio/28-6-fem.mp3",
		"response": " ",
		"word": "no",
		"trial_type": "audio-keyboard-response",
		"trial_index": 26,
		"time_elapsed": 101708,
		"internal_node_id": "0.0-3.0-1.5"
	},
	{
		"rt": 1640,
		"stimulus": "../audio/28-7-fem.mp3",
		"response": " ",
		"word": "jogo",
		"trial_type": "audio-keyboard-response",
		"trial_index": 27,
		"time_elapsed": 103628,
		"internal_node_id": "0.0-3.0-1.6"
	},
	{
		"rt": 1411,
		"stimulus": "../audio/28-8-fem.mp3",
		"response": " ",
		"word": "de",
		"trial_type": "audio-keyboard-response",
		"trial_index": 28,
		"time_elapsed": 105324,
		"internal_node_id": "0.0-3.0-1.7"
	},
	{
		"rt": 2549,
		"stimulus": "../audio/28-9-fem.mp3",
		"response": " ",
		"word": "vôlei.",
		"trial_type": "audio-keyboard-response",
		"trial_index": 29,
		"time_elapsed": 108156,
		"internal_node_id": "0.0-3.0-1.8"
	},
	{
		"rt": null,
		"stimulus": "<span style= \"font-size:30px; font-family: monospace\">+</span>",
		"response": null,
		"trial_part": "fixation",
		"trial_type": "html-keyboard-response",
		"trial_index": 30,
		"time_elapsed": 109435,
		"internal_node_id": "0.0-3.0-0.9-0.9"
	},
	{
		"rt": 1640,
		"stimulus": "../audio/27-1-masc.mp3",
		"response": " ",
		"word": "O",
		"trial_type": "audio-keyboard-response",
		"trial_index": 31,
		"time_elapsed": 111340,
		"internal_node_id": "0.0-3.0-1.9"
	},
	{
		"rt": 1472,
		"stimulus": "../audio/27-2-masc.mp3",
		"response": " ",
		"word": "dinheiro",
		"trial_type": "audio-keyboard-response",
		"trial_index": 32,
		"time_elapsed": 113084,
		"internal_node_id": "0.0-3.0-1.10"
	},
	{
		"rt": 1491,
		"stimulus": "../audio/27-3-masc.mp3",
		"response": " ",
		"word": "chegou",
		"trial_type": "audio-keyboard-response",
		"trial_index": 33,
		"time_elapsed": 114844,
		"internal_node_id": "0.0-3.0-1.11"
	},
	{
		"rt": 1120,
		"stimulus": "../audio/27-4-masc.mp3",
		"response": " ",
		"word": "à",
		"trial_type": "audio-keyboard-response",
		"trial_index": 34,
		"time_elapsed": 116236,
		"internal_node_id": "0.0-3.0-1.12"
	},
	{
		"rt": 1389,
		"stimulus": "../audio/27-5-masc.mp3",
		"response": " ",
		"word": "elite",
		"trial_type": "audio-keyboard-response",
		"trial_index": 35,
		"time_elapsed": 117900,
		"internal_node_id": "0.0-3.0-1.13"
	},
	{
		"rt": 1280,
		"stimulus": "../audio/27-6-masc.mp3",
		"response": " ",
		"word": "deste",
		"trial_type": "audio-keyboard-response",
		"trial_index": 36,
		"time_elapsed": 119452,
		"internal_node_id": "0.0-3.0-1.14"
	},
	{
		"rt": 2011,
		"stimulus": "../audio/27-7-masc.mp3",
		"response": " ",
		"word": "país.",
		"trial_type": "audio-keyboard-response",
		"trial_index": 37,
		"time_elapsed": 121740,
		"internal_node_id": "0.0-3.0-1.15"
	},
	{
		"rt": null,
		"stimulus": "<span style= \"font-size:30px; font-family: monospace\">+</span>",
		"response": null,
		"trial_part": "fixation",
		"trial_type": "html-keyboard-response",
		"trial_index": 38,
		"time_elapsed": 123003,
		"internal_node_id": "0.0-3.0-0.16-0.16"
	},
	{
		"rt": 1240,
		"stimulus": "../audio/26-1-masc.mp3",
		"response": " ",
		"word": "Amanhã",
		"trial_type": "audio-keyboard-response",
		"trial_index": 39,
		"time_elapsed": 124508,
		"internal_node_id": "0.0-3.0-1.16"
	},
	{
		"rt": 1149,
		"stimulus": "../audio/26-2-masc.mp3",
		"response": " ",
		"word": "temos",
		"trial_type": "audio-keyboard-response",
		"trial_index": 40,
		"time_elapsed": 125935,
		"internal_node_id": "0.0-3.0-1.17"
	},
	{
		"rt": 1200,
		"stimulus": "../audio/26-3-masc.mp3",
		"response": " ",
		"word": "festa",
		"trial_type": "audio-keyboard-response",
		"trial_index": 41,
		"time_elapsed": 127408,
		"internal_node_id": "0.0-3.0-1.18"
	},
	{
		"rt": 1069,
		"stimulus": "../audio/26-4-masc.mp3",
		"response": " ",
		"word": "na",
		"trial_type": "audio-keyboard-response",
		"trial_index": 42,
		"time_elapsed": 128752,
		"internal_node_id": "0.0-3.0-1.19"
	},
	{
		"rt": 1360,
		"stimulus": "../audio/26-5-masc.mp3",
		"response": " ",
		"word": "piscina",
		"trial_type": "audio-keyboard-response",
		"trial_index": 43,
		"time_elapsed": 130384,
		"internal_node_id": "0.0-3.0-1.20"
	},
	{
		"rt": 1040,
		"stimulus": "../audio/26-6-masc.mp3",
		"response": " ",
		"word": "o",
		"trial_type": "audio-keyboard-response",
		"trial_index": 44,
		"time_elapsed": 131696,
		"internal_node_id": "0.0-3.0-1.21"
	},
	{
		"rt": 1192,
		"stimulus": "../audio/26-7-masc.mp3",
		"response": " ",
		"word": "dia",
		"trial_type": "audio-keyboard-response",
		"trial_index": 45,
		"time_elapsed": 133168,
		"internal_node_id": "0.0-3.0-1.22"
	},
	{
		"rt": 2360,
		"stimulus": "../audio/26-8-masc.mp3",
		"response": " ",
		"word": "todo.",
		"trial_type": "audio-keyboard-response",
		"trial_index": 46,
		"time_elapsed": 135792,
		"internal_node_id": "0.0-3.0-1.23"
	},
	{
		"rt": null,
		"stimulus": "<span style= \"font-size:30px; font-family: monospace\">+</span>",
		"response": null,
		"trial_part": "fixation",
		"trial_type": "html-keyboard-response",
		"trial_index": 47,
		"time_elapsed": 137071,
		"internal_node_id": "0.0-3.0-0.24-0.24"
	},
	{
		"rt": 1389,
		"stimulus": "../audio/29-1-masc.mp3",
		"response": " ",
		"word": "Hoje",
		"trial_type": "audio-keyboard-response",
		"trial_index": 48,
		"time_elapsed": 138736,
		"internal_node_id": "0.0-3.0-1.24"
	},
	{
		"rt": 1752,
		"stimulus": "../audio/29-2-masc.mp3",
		"response": " ",
		"word": "vamos",
		"trial_type": "audio-keyboard-response",
		"trial_index": 49,
		"time_elapsed": 140768,
		"internal_node_id": "0.0-3.0-1.25"
	},
	{
		"rt": 1669,
		"stimulus": "../audio/29-3-masc.mp3",
		"response": " ",
		"word": "fazer",
		"trial_type": "audio-keyboard-response",
		"trial_index": 50,
		"time_elapsed": 142704,
		"internal_node_id": "0.0-3.0-1.26"
	},
	{
		"rt": 1291,
		"stimulus": "../audio/29-4-masc.mp3",
		"response": " ",
		"word": "uma",
		"trial_type": "audio-keyboard-response",
		"trial_index": 51,
		"time_elapsed": 144272,
		"internal_node_id": "0.0-3.0-1.27"
	},
	{
		"rt": 1859,
		"stimulus": "../audio/29-5-masc.mp3",
		"response": " ",
		"word": "atividade",
		"trial_type": "audio-keyboard-response",
		"trial_index": 52,
		"time_elapsed": 146416,
		"internal_node_id": "0.0-3.0-1.28"
	},
	{
		"rt": 1379,
		"stimulus": "../audio/29-6-masc.mp3",
		"response": " ",
		"word": "sobre",
		"trial_type": "audio-keyboard-response",
		"trial_index": 53,
		"time_elapsed": 148064,
		"internal_node_id": "0.0-3.0-1.29"
	},
	{
		"rt": 1429,
		"stimulus": "../audio/29-7-masc.mp3",
		"response": " ",
		"word": "fauna",
		"trial_type": "audio-keyboard-response",
		"trial_index": 54,
		"time_elapsed": 149776,
		"internal_node_id": "0.0-3.0-1.30"
	},
	{
		"rt": 2069,
		"stimulus": "../audio/29-8-masc.mp3",
		"response": " ",
		"word": "marinha.",
		"trial_type": "audio-keyboard-response",
		"trial_index": 55,
		"time_elapsed": 152304,
		"internal_node_id": "0.0-3.0-1.31"
	},
	{
		"rt": null,
		"stimulus": "<span style= \"font-size:30px; font-family: monospace\">+</span>",
		"response": null,
		"trial_part": "fixation",
		"trial_type": "html-keyboard-response",
		"trial_index": 56,
		"time_elapsed": 153573,
		"internal_node_id": "0.0-3.0-0.32-0.32"
	},
	{
		"rt": 1288,
		"stimulus": "../audio/30-1-masc.mp3",
		"response": " ",
		"word": "O",
		"trial_type": "audio-keyboard-response",
		"trial_index": 57,
		"time_elapsed": 155136,
		"internal_node_id": "0.0-3.0-1.32"
	},
	{
		"rt": 1669,
		"stimulus": "../audio/30-2-masc.mp3",
		"response": " ",
		"word": "funcionário",
		"trial_type": "audio-keyboard-response",
		"trial_index": 58,
		"time_elapsed": 157072,
		"internal_node_id": "0.0-3.0-1.33"
	},
	{
		"rt": 1571,
		"stimulus": "../audio/30-3-masc.mp3",
		"response": " ",
		"word": "entregou",
		"trial_type": "audio-keyboard-response",
		"trial_index": 59,
		"time_elapsed": 158928,
		"internal_node_id": "0.0-3.0-1.34"
	},
	{
		"rt": 1139,
		"stimulus": "../audio/30-4-masc.mp3",
		"response": " ",
		"word": "o",
		"trial_type": "audio-keyboard-response",
		"trial_index": 60,
		"time_elapsed": 160336,
		"internal_node_id": "0.0-3.0-1.35"
	},
	{
		"rt": 1909,
		"stimulus": "../audio/30-5-masc.mp3",
		"response": " ",
		"word": "restante",
		"trial_type": "audio-keyboard-response",
		"trial_index": 61,
		"time_elapsed": 162512,
		"internal_node_id": "0.0-3.0-1.36"
	},
	{
		"rt": 1040,
		"stimulus": "../audio/30-6-masc.mp3",
		"response": " ",
		"word": "do",
		"trial_type": "audio-keyboard-response",
		"trial_index": 62,
		"time_elapsed": 163824,
		"internal_node_id": "0.0-3.0-1.37"
	},
	{
		"rt": 1360,
		"stimulus": "../audio/30-7-masc.mp3",
		"response": " ",
		"word": "dinheiro.",
		"trial_type": "audio-keyboard-response",
		"trial_index": 63,
		"time_elapsed": 165456,
		"internal_node_id": "0.0-3.0-1.38"
	},
	{
		"rt": 15416,
		"stimulus": "<span style=\"font-size:25px; font-family: monospace\">O funcionário entregou o contrato?</span>",
		"response": "n",
		"question": "O funcionário entregou o contrato?",
		"answer": "null",
		"trial": "exp-sent",
		"trial_type": "html-keyboard-response",
		"trial_index": 64,
		"time_elapsed": 181136,
		"internal_node_id": "0.0-3.0-2.38-0.38",
		"accuracy": false
	},
	{
		"rt": null,
		"stimulus": "<span style= \"font-size:30px; font-family: monospace\">+</span>",
		"response": null,
		"trial_part": "fixation",
		"trial_type": "html-keyboard-response",
		"trial_index": 65,
		"time_elapsed": 182640,
		"internal_node_id": "0.0-3.0-0.39-0.39"
	},
	{
		"rt": 3949,
		"stimulus": "../audio/06-1-fem.mp3",
		"response": " ",
		"word": "Ouvimos",
		"trial_type": "audio-keyboard-response",
		"trial_index": 66,
		"time_elapsed": 186879,
		"internal_node_id": "0.0-3.0-1.39"
	},
	{
		"rt": 1381,
		"stimulus": "../audio/06-2-fem.mp3",
		"response": " ",
		"word": "a",
		"trial_type": "audio-keyboard-response",
		"trial_index": 67,
		"time_elapsed": 188527,
		"internal_node_id": "0.0-3.0-1.40"
	},
	{
		"rt": 1360,
		"stimulus": "../audio/06-3-fem.mp3",
		"response": " ",
		"word": "fala",
		"trial_type": "audio-keyboard-response",
		"trial_index": 68,
		"time_elapsed": 190159,
		"internal_node_id": "0.0-3.0-1.41"
	},
	{
		"rt": 920,
		"stimulus": "../audio/06-4-fem.mp3",
		"response": " ",
		"word": "do",
		"trial_type": "audio-keyboard-response",
		"trial_index": 69,
		"time_elapsed": 191359,
		"internal_node_id": "0.0-3.0-1.42"
	},
	{
		"rt": 2469,
		"stimulus": "../audio/06-5-fem.mp3",
		"response": " ",
		"word": "profeta",
		"trial_type": "audio-keyboard-response",
		"trial_index": 70,
		"time_elapsed": 194111,
		"internal_node_id": "0.0-3.0-1.43"
	},
	{
		"rt": 981,
		"stimulus": "../audio/06-6-fem.mp3",
		"response": " ",
		"word": "no",
		"trial_type": "audio-keyboard-response",
		"trial_index": 71,
		"time_elapsed": 195359,
		"internal_node_id": "0.0-3.0-1.44"
	},
	{
		"rt": 2051,
		"stimulus": "../audio/06-7-fem.mp3",
		"response": " ",
		"word": "púlpito",
		"trial_type": "audio-keyboard-response",
		"trial_index": 72,
		"time_elapsed": 197679,
		"internal_node_id": "0.0-3.0-1.45"
	},
	{
		"rt": 1032,
		"stimulus": "../audio/06-8-fem.mp3",
		"response": " ",
		"word": "da",
		"trial_type": "audio-keyboard-response",
		"trial_index": 73,
		"time_elapsed": 199007,
		"internal_node_id": "0.0-3.0-1.46"
	},
	{
		"rt": 2469,
		"stimulus": "../audio/06-9-fem.mp3",
		"response": " ",
		"word": "igreja.",
		"trial_type": "audio-keyboard-response",
		"trial_index": 74,
		"time_elapsed": 201759,
		"internal_node_id": "0.0-3.0-1.47"
	},
	{
		"rt": null,
		"stimulus": "<span style= \"font-size:30px; font-family: monospace\">+</span>",
		"response": null,
		"trial_part": "fixation",
		"trial_type": "html-keyboard-response",
		"trial_index": 75,
		"time_elapsed": 203022,
		"internal_node_id": "0.0-3.0-0.48-0.48"
	},
	{
		"rt": 811,
		"stimulus": "../audio/09-1-fem.mp3",
		"response": " ",
		"word": "O",
		"trial_type": "audio-keyboard-response",
		"trial_index": 76,
		"time_elapsed": 204111,
		"internal_node_id": "0.0-3.0-1.48"
	},
	{
		"rt": 1651,
		"stimulus": "../audio/09-2-fem.mp3",
		"response": " ",
		"word": "rapaz",
		"trial_type": "audio-keyboard-response",
		"trial_index": 77,
		"time_elapsed": 206047,
		"internal_node_id": "0.0-3.0-1.49"
	},
	{
		"rt": 1429,
		"stimulus": "../audio/09-3-fem.mp3",
		"response": " ",
		"word": "limpou",
		"trial_type": "audio-keyboard-response",
		"trial_index": 78,
		"time_elapsed": 207759,
		"internal_node_id": "0.0-3.0-1.50"
	},
	{
		"rt": 1091,
		"stimulus": "../audio/09-4-fem.mp3",
		"response": " ",
		"word": "o",
		"trial_type": "audio-keyboard-response",
		"trial_index": 79,
		"time_elapsed": 209119,
		"internal_node_id": "0.0-3.0-1.51"
	},
	{
		"rt": 1309,
		"stimulus": "../audio/09-5-fem.mp3",
		"response": " ",
		"word": "terreno",
		"trial_type": "audio-keyboard-response",
		"trial_index": 80,
		"time_elapsed": 210703,
		"internal_node_id": "0.0-3.0-1.52"
	},
	{
		"rt": 1181,
		"stimulus": "../audio/09-6-fem.mp3",
		"response": " ",
		"word": "com",
		"trial_type": "audio-keyboard-response",
		"trial_index": 81,
		"time_elapsed": 212159,
		"internal_node_id": "0.0-3.0-1.53"
	},
	{
		"rt": 1080,
		"stimulus": "../audio/09-7-fem.mp3",
		"response": " ",
		"word": "uma",
		"trial_type": "audio-keyboard-response",
		"trial_index": 82,
		"time_elapsed": 213519,
		"internal_node_id": "0.0-3.0-1.54"
	},
	{
		"rt": 1229,
		"stimulus": "../audio/09-8-fem.mp3",
		"response": " ",
		"word": "pá.",
		"trial_type": "audio-keyboard-response",
		"trial_index": 83,
		"time_elapsed": 215039,
		"internal_node_id": "0.0-3.0-1.55"
	},
	{
		"rt": null,
		"stimulus": "<span style= \"font-size:30px; font-family: monospace\">+</span>",
		"response": null,
		"trial_part": "fixation",
		"trial_type": "html-keyboard-response",
		"trial_index": 84,
		"time_elapsed": 216319,
		"internal_node_id": "0.0-3.0-0.56-0.56"
	},
	{
		"rt": 840,
		"stimulus": "../audio/08-1-fem.mp3",
		"response": " ",
		"word": "A",
		"trial_type": "audio-keyboard-response",
		"trial_index": 85,
		"time_elapsed": 217423,
		"internal_node_id": "0.0-3.0-1.56"
	},
	{
		"rt": 1360,
		"stimulus": "../audio/08-2-fem.mp3",
		"response": " ",
		"word": "receita",
		"trial_type": "audio-keyboard-response",
		"trial_index": 86,
		"time_elapsed": 219055,
		"internal_node_id": "0.0-3.0-1.57"
	},
	{
		"rt": 1371,
		"stimulus": "../audio/08-3-fem.mp3",
		"response": " ",
		"word": "pede",
		"trial_type": "audio-keyboard-response",
		"trial_index": 87,
		"time_elapsed": 220703,
		"internal_node_id": "0.0-3.0-1.58"
	},
	{
		"rt": 1331,
		"stimulus": "../audio/08-4-fem.mp3",
		"response": " ",
		"word": "um",
		"trial_type": "audio-keyboard-response",
		"trial_index": 88,
		"time_elapsed": 222319,
		"internal_node_id": "0.0-3.0-1.59"
	},
	{
		"rt": 1440,
		"stimulus": "../audio/08-5-fem.mp3",
		"response": " ",
		"word": "litro",
		"trial_type": "audio-keyboard-response",
		"trial_index": 89,
		"time_elapsed": 224047,
		"internal_node_id": "0.0-3.0-1.60"
	},
	{
		"rt": 1120,
		"stimulus": "../audio/08-6-fem.mp3",
		"response": " ",
		"word": "de",
		"trial_type": "audio-keyboard-response",
		"trial_index": 90,
		"time_elapsed": 225439,
		"internal_node_id": "0.0-3.0-1.61"
	},
	{
		"rt": 1320,
		"stimulus": "../audio/08-7-fem.mp3",
		"response": " ",
		"word": "leite",
		"trial_type": "audio-keyboard-response",
		"trial_index": 91,
		"time_elapsed": 227039,
		"internal_node_id": "0.0-3.0-1.62"
	},
	{
		"rt": 1320,
		"stimulus": "../audio/08-8-fem.mp3",
		"response": " ",
		"word": "integral.",
		"trial_type": "audio-keyboard-response",
		"trial_index": 92,
		"time_elapsed": 228623,
		"internal_node_id": "0.0-3.0-1.63"
	},
	{
		"rt": null,
		"stimulus": "<span style= \"font-size:30px; font-family: monospace\">+</span>",
		"response": null,
		"trial_part": "fixation",
		"trial_type": "html-keyboard-response",
		"trial_index": 93,
		"time_elapsed": 229899,
		"internal_node_id": "0.0-3.0-0.64-0.64"
	},
	{
		"rt": 1091,
		"stimulus": "../audio/07-1-masc.mp3",
		"response": " ",
		"word": "Meu",
		"trial_type": "audio-keyboard-response",
		"trial_index": 94,
		"time_elapsed": 231263,
		"internal_node_id": "0.0-3.0-1.64"
	},
	{
		"rt": 981,
		"stimulus": "../audio/07-2-masc.mp3",
		"response": " ",
		"word": "filho",
		"trial_type": "audio-keyboard-response",
		"trial_index": 95,
		"time_elapsed": 232511,
		"internal_node_id": "0.0-3.0-1.65"
	},
	{
		"rt": 979,
		"stimulus": "../audio/07-3-masc.mp3",
		"response": " ",
		"word": "é",
		"trial_type": "audio-keyboard-response",
		"trial_index": 96,
		"time_elapsed": 233775,
		"internal_node_id": "0.0-3.0-1.66"
	},
	{
		"rt": 1029,
		"stimulus": "../audio/07-4-masc.mp3",
		"response": " ",
		"word": "muito",
		"trial_type": "audio-keyboard-response",
		"trial_index": 97,
		"time_elapsed": 235071,
		"internal_node_id": "0.0-3.0-1.67"
	},
	{
		"rt": 1531,
		"stimulus": "../audio/07-5-masc.mp3",
		"response": " ",
		"word": "responsável",
		"trial_type": "audio-keyboard-response",
		"trial_index": 98,
		"time_elapsed": 236879,
		"internal_node_id": "0.0-3.0-1.68"
	},
	{
		"rt": 1051,
		"stimulus": "../audio/07-6-masc.mp3",
		"response": " ",
		"word": "nos",
		"trial_type": "audio-keyboard-response",
		"trial_index": 99,
		"time_elapsed": 238191,
		"internal_node_id": "0.0-3.0-1.69"
	},
	{
		"rt": 1539,
		"stimulus": "../audio/07-7-masc.mp3",
		"response": " ",
		"word": "estudos.",
		"trial_type": "audio-keyboard-response",
		"trial_index": 100,
		"time_elapsed": 240015,
		"internal_node_id": "0.0-3.0-1.70"
	},
	{
		"rt": null,
		"stimulus": "<span style= \"font-size:30px; font-family: monospace\">+</span>",
		"response": null,
		"trial_part": "fixation",
		"trial_type": "html-keyboard-response",
		"trial_index": 101,
		"time_elapsed": 241289,
		"internal_node_id": "0.0-3.0-0.71-0.71"
	},
	{
		"rt": 768,
		"stimulus": "../audio/10-1-fem.mp3",
		"response": " ",
		"word": "O",
		"trial_type": "audio-keyboard-response",
		"trial_index": 102,
		"time_elapsed": 242334,
		"internal_node_id": "0.0-3.0-1.71"
	},
	{
		"rt": 1299,
		"stimulus": "../audio/10-2-fem.mp3",
		"response": " ",
		"word": "pássaro",
		"trial_type": "audio-keyboard-response",
		"trial_index": 103,
		"time_elapsed": 243903,
		"internal_node_id": "0.0-3.0-1.72"
	},
	{
		"rt": 1440,
		"stimulus": "../audio/10-3-fem.mp3",
		"response": " ",
		"word": "azul",
		"trial_type": "audio-keyboard-response",
		"trial_index": 104,
		"time_elapsed": 245614,
		"internal_node_id": "0.0-3.0-1.73"
	},
	{
		"rt": 1400,
		"stimulus": "../audio/10-4-fem.mp3",
		"response": " ",
		"word": "estava",
		"trial_type": "audio-keyboard-response",
		"trial_index": 105,
		"time_elapsed": 247289,
		"internal_node_id": "0.0-3.0-1.74"
	},
	{
		"rt": 1200,
		"stimulus": "../audio/10-5-fem.mp3",
		"response": " ",
		"word": "vivo",
		"trial_type": "audio-keyboard-response",
		"trial_index": 106,
		"time_elapsed": 248761,
		"internal_node_id": "0.0-3.0-1.75"
	},
	{
		"rt": 1400,
		"stimulus": "../audio/10-6-fem.mp3",
		"response": " ",
		"word": "e",
		"trial_type": "audio-keyboard-response",
		"trial_index": 107,
		"time_elapsed": 250441,
		"internal_node_id": "0.0-3.0-1.76"
	},
	{
		"rt": 1208,
		"stimulus": "../audio/10-7-fem.mp3",
		"response": " ",
		"word": "em",
		"trial_type": "audio-keyboard-response",
		"trial_index": 108,
		"time_elapsed": 251929,
		"internal_node_id": "0.0-3.0-1.77"
	},
	{
		"rt": 1771,
		"stimulus": "../audio/10-8-fem.mp3",
		"response": " ",
		"word": "segurança.",
		"trial_type": "audio-keyboard-response",
		"trial_index": 109,
		"time_elapsed": 253977,
		"internal_node_id": "0.0-3.0-1.78"
	},
	{
		"rt": 65878,
		"stimulus": "<span style=\"font-size:25px; font-family: monospace\">O pássaro vermelho estava em segurança?</span>",
		"response": "s",
		"question": "O pássaro vermelho estava em segurança?",
		"answer": "null",
		"trial": "exp-sent",
		"trial_type": "html-keyboard-response",
		"trial_index": 110,
		"time_elapsed": 320126,
		"internal_node_id": "0.0-3.0-2.78-0.78",
		"accuracy": false
	},
	{
		"rt": null,
		"stimulus": "<span style= \"font-size:30px; font-family: monospace\">+</span>",
		"response": null,
		"trial_part": "fixation",
		"trial_type": "html-keyboard-response",
		"trial_index": 111,
		"time_elapsed": 321628,
		"internal_node_id": "0.0-3.0-0.79-0.79"
	},
	{
		"rt": 3179,
		"stimulus": "../audio/23-1-fem.mp3",
		"response": " ",
		"word": "Português",
		"trial_type": "audio-keyboard-response",
		"trial_index": 112,
		"time_elapsed": 325134,
		"internal_node_id": "0.0-3.0-1.79"
	},
	{
		"rt": 1160,
		"stimulus": "../audio/23-2-fem.mp3",
		"response": " ",
		"word": "é",
		"trial_type": "audio-keyboard-response",
		"trial_index": 113,
		"time_elapsed": 326558,
		"internal_node_id": "0.0-3.0-1.80"
	},
	{
		"rt": 931,
		"stimulus": "../audio/23-3-fem.mp3",
		"response": " ",
		"word": "um",
		"trial_type": "audio-keyboard-response",
		"trial_index": 114,
		"time_elapsed": 327806,
		"internal_node_id": "0.0-3.0-1.81"
	},
	{
		"rt": 2008,
		"stimulus": "../audio/23-4-fem.mp3",
		"response": " ",
		"word": "assunto",
		"trial_type": "audio-keyboard-response",
		"trial_index": 115,
		"time_elapsed": 330094,
		"internal_node_id": "0.0-3.0-1.82"
	},
	{
		"rt": 1808,
		"stimulus": "../audio/23-5-fem.mp3",
		"response": " ",
		"word": "elementar",
		"trial_type": "audio-keyboard-response",
		"trial_index": 116,
		"time_elapsed": 332174,
		"internal_node_id": "0.0-3.0-1.83"
	},
	{
		"rt": 1000,
		"stimulus": "../audio/23-6-fem.mp3",
		"response": " ",
		"word": "para",
		"trial_type": "audio-keyboard-response",
		"trial_index": 117,
		"time_elapsed": 333454,
		"internal_node_id": "0.0-3.0-1.84"
	},
	{
		"rt": 979,
		"stimulus": "../audio/23-7-fem.mp3",
		"response": " ",
		"word": "os",
		"trial_type": "audio-keyboard-response",
		"trial_index": 118,
		"time_elapsed": 334702,
		"internal_node_id": "0.0-3.0-1.85"
	},
	{
		"rt": 1931,
		"stimulus": "../audio/23-8-fem.mp3",
		"response": " ",
		"word": "alunos.",
		"trial_type": "audio-keyboard-response",
		"trial_index": 119,
		"time_elapsed": 336910,
		"internal_node_id": "0.0-3.0-1.86"
	},
	{
		"rt": null,
		"stimulus": "<span style= \"font-size:30px; font-family: monospace\">+</span>",
		"response": null,
		"trial_part": "fixation",
		"trial_type": "html-keyboard-response",
		"trial_index": 120,
		"time_elapsed": 338195,
		"internal_node_id": "0.0-3.0-0.87-0.87"
	},
	{
		"rt": 1019,
		"stimulus": "../audio/22-1-masc.mp3",
		"response": " ",
		"word": "Eu",
		"trial_type": "audio-keyboard-response",
		"trial_index": 121,
		"time_elapsed": 339502,
		"internal_node_id": "0.0-3.0-1.87"
	},
	{
		"rt": 1200,
		"stimulus": "../audio/22-2-masc.mp3",
		"response": " ",
		"word": "detesto",
		"trial_type": "audio-keyboard-response",
		"trial_index": 122,
		"time_elapsed": 340974,
		"internal_node_id": "0.0-3.0-1.88"
	},
	{
		"rt": 1360,
		"stimulus": "../audio/22-3-masc.mp3",
		"response": " ",
		"word": "fumaça",
		"trial_type": "audio-keyboard-response",
		"trial_index": 123,
		"time_elapsed": 342606,
		"internal_node_id": "0.0-3.0-1.89"
	},
	{
		"rt": 1008,
		"stimulus": "../audio/22-4-masc.mp3",
		"response": " ",
		"word": "de",
		"trial_type": "audio-keyboard-response",
		"trial_index": 124,
		"time_elapsed": 343886,
		"internal_node_id": "0.0-3.0-1.90"
	},
	{
		"rt": 1920,
		"stimulus": "../audio/22-5-masc.mp3",
		"response": " ",
		"word": "cachimbo",
		"trial_type": "audio-keyboard-response",
		"trial_index": 125,
		"time_elapsed": 346094,
		"internal_node_id": "0.0-3.0-1.91"
	},
	{
		"rt": 792,
		"stimulus": "../audio/22-6-masc.mp3",
		"response": " ",
		"word": "e",
		"trial_type": "audio-keyboard-response",
		"trial_index": 126,
		"time_elapsed": 347166,
		"internal_node_id": "0.0-3.0-1.92"
	},
	{
		"rt": 888,
		"stimulus": "../audio/22-7-masc.mp3",
		"response": " ",
		"word": "de",
		"trial_type": "audio-keyboard-response",
		"trial_index": 127,
		"time_elapsed": 348334,
		"internal_node_id": "0.0-3.0-1.93"
	},
	{
		"rt": 1429,
		"stimulus": "../audio/22-8-masc.mp3",
		"response": " ",
		"word": "cigarro.",
		"trial_type": "audio-keyboard-response",
		"trial_index": 128,
		"time_elapsed": 350030,
		"internal_node_id": "0.0-3.0-1.94"
	},
	{
		"rt": null,
		"stimulus": "<span style= \"font-size:30px; font-family: monospace\">+</span>",
		"response": null,
		"trial_part": "fixation",
		"trial_type": "html-keyboard-response",
		"trial_index": 129,
		"time_elapsed": 351305,
		"internal_node_id": "0.0-3.0-0.95-0.95"
	},
	{
		"rt": 1029,
		"stimulus": "../audio/21-1-masc.mp3",
		"response": " ",
		"word": "Precisamos",
		"trial_type": "audio-keyboard-response",
		"trial_index": 130,
		"time_elapsed": 352622,
		"internal_node_id": "0.0-3.0-1.95"
	},
	{
		"rt": 949,
		"stimulus": "../audio/21-2-masc.mp3",
		"response": " ",
		"word": "de",
		"trial_type": "audio-keyboard-response",
		"trial_index": 131,
		"time_elapsed": 353854,
		"internal_node_id": "0.0-3.0-1.96"
	},
	{
		"rt": 1501,
		"stimulus": "../audio/21-3-masc.mp3",
		"response": " ",
		"word": "paciência",
		"trial_type": "audio-keyboard-response",
		"trial_index": 132,
		"time_elapsed": 355630,
		"internal_node_id": "0.0-3.0-1.97"
	},
	{
		"rt": 1501,
		"stimulus": "../audio/21-4-masc.mp3",
		"response": " ",
		"word": "e",
		"trial_type": "audio-keyboard-response",
		"trial_index": 133,
		"time_elapsed": 357406,
		"internal_node_id": "0.0-3.0-1.98"
	},
	{
		"rt": 1469,
		"stimulus": "../audio/21-5-masc.mp3",
		"response": " ",
		"word": "bondade",
		"trial_type": "audio-keyboard-response",
		"trial_index": 134,
		"time_elapsed": 359150,
		"internal_node_id": "0.0-3.0-1.99"
	},
	{
		"rt": 960,
		"stimulus": "../audio/21-6-masc.mp3",
		"response": " ",
		"word": "para",
		"trial_type": "audio-keyboard-response",
		"trial_index": 135,
		"time_elapsed": 360382,
		"internal_node_id": "0.0-3.0-1.100"
	},
	{
		"rt": 851,
		"stimulus": "../audio/21-7-masc.mp3",
		"response": " ",
		"word": "um",
		"trial_type": "audio-keyboard-response",
		"trial_index": 136,
		"time_elapsed": 361502,
		"internal_node_id": "0.0-3.0-1.101"
	},
	{
		"rt": 1141,
		"stimulus": "../audio/21-8-masc.mp3",
		"response": " ",
		"word": "mundo",
		"trial_type": "audio-keyboard-response",
		"trial_index": 137,
		"time_elapsed": 362910,
		"internal_node_id": "0.0-3.0-1.102"
	},
	{
		"rt": 1880,
		"stimulus": "../audio/21-9-masc.mp3",
		"response": " ",
		"word": "melhor.",
		"trial_type": "audio-keyboard-response",
		"trial_index": 138,
		"time_elapsed": 365070,
		"internal_node_id": "0.0-3.0-1.103"
	},
	{
		"rt": null,
		"stimulus": "<span style= \"font-size:30px; font-family: monospace\">+</span>",
		"response": null,
		"trial_part": "fixation",
		"trial_type": "html-keyboard-response",
		"trial_index": 139,
		"time_elapsed": 366325,
		"internal_node_id": "0.0-3.0-0.104-0.104"
	},
	{
		"rt": 688,
		"stimulus": "../audio/24-1-fem.mp3",
		"response": " ",
		"word": "As",
		"trial_type": "audio-keyboard-response",
		"trial_index": 140,
		"time_elapsed": 367294,
		"internal_node_id": "0.0-3.0-1.104"
	},
	{
		"rt": 1059,
		"stimulus": "../audio/24-2-fem.mp3",
		"response": " ",
		"word": "crianças",
		"trial_type": "audio-keyboard-response",
		"trial_index": 141,
		"time_elapsed": 368622,
		"internal_node_id": "0.0-3.0-1.105"
	},
	{
		"rt": 949,
		"stimulus": "../audio/24-3-fem.mp3",
		"response": " ",
		"word": "vão",
		"trial_type": "audio-keyboard-response",
		"trial_index": 142,
		"time_elapsed": 369854,
		"internal_node_id": "0.0-3.0-1.106"
	},
	{
		"rt": 1152,
		"stimulus": "../audio/24-4-fem.mp3",
		"response": " ",
		"word": "ao",
		"trial_type": "audio-keyboard-response",
		"trial_index": 143,
		"time_elapsed": 371278,
		"internal_node_id": "0.0-3.0-1.107"
	},
	{
		"rt": 1491,
		"stimulus": "../audio/24-5-fem.mp3",
		"response": " ",
		"word": "cinema",
		"trial_type": "audio-keyboard-response",
		"trial_index": 144,
		"time_elapsed": 373038,
		"internal_node_id": "0.0-3.0-1.108"
	},
	{
		"rt": 1139,
		"stimulus": "../audio/24-6-fem.mp3",
		"response": " ",
		"word": "mais",
		"trial_type": "audio-keyboard-response",
		"trial_index": 145,
		"time_elapsed": 374455,
		"internal_node_id": "0.0-3.0-1.109"
	},
	{
		"rt": 1240,
		"stimulus": "../audio/24-7-fem.mp3",
		"response": " ",
		"word": "tarde.",
		"trial_type": "audio-keyboard-response",
		"trial_index": 146,
		"time_elapsed": 375974,
		"internal_node_id": "0.0-3.0-1.110"
	},
	{
		"rt": null,
		"stimulus": "<span style= \"font-size:30px; font-family: monospace\">+</span>",
		"response": null,
		"trial_part": "fixation",
		"trial_type": "html-keyboard-response",
		"trial_index": 147,
		"time_elapsed": 377247,
		"internal_node_id": "0.0-3.0-0.111-0.111"
	},
	{
		"rt": 1029,
		"stimulus": "../audio/25-1-fem.mp3",
		"response": " ",
		"word": "Ela",
		"trial_type": "audio-keyboard-response",
		"trial_index": 148,
		"time_elapsed": 378566,
		"internal_node_id": "0.0-3.0-1.111"
	},
	{
		"rt": 891,
		"stimulus": "../audio/25-2-fem.mp3",
		"response": " ",
		"word": "faz",
		"trial_type": "audio-keyboard-response",
		"trial_index": 149,
		"time_elapsed": 379734,
		"internal_node_id": "0.0-3.0-1.112"
	},
	{
		"rt": 1131,
		"stimulus": "../audio/25-3-fem.mp3",
		"response": " ",
		"word": "tanto",
		"trial_type": "audio-keyboard-response",
		"trial_index": 150,
		"time_elapsed": 381143,
		"internal_node_id": "0.0-3.0-1.113"
	},
	{
		"rt": 1109,
		"stimulus": "../audio/25-4-fem.mp3",
		"response": " ",
		"word": "cabelo",
		"trial_type": "audio-keyboard-response",
		"trial_index": 151,
		"time_elapsed": 382535,
		"internal_node_id": "0.0-3.0-1.114"
	},
	{
		"rt": 1080,
		"stimulus": "../audio/25-5-fem.mp3",
		"response": " ",
		"word": "liso",
		"trial_type": "audio-keyboard-response",
		"trial_index": 152,
		"time_elapsed": 383895,
		"internal_node_id": "0.0-3.0-1.115"
	},
	{
		"rt": 1011,
		"stimulus": "../audio/25-6-fem.mp3",
		"response": " ",
		"word": "quanto",
		"trial_type": "audio-keyboard-response",
		"trial_index": 153,
		"time_elapsed": 385175,
		"internal_node_id": "0.0-3.0-1.116"
	},
	{
		"rt": 1651,
		"stimulus": "../audio/25-7-fem.mp3",
		"response": " ",
		"word": "cacheado.",
		"trial_type": "audio-keyboard-response",
		"trial_index": 154,
		"time_elapsed": 387095,
		"internal_node_id": "0.0-3.0-1.117"
	},
	{
		"rt": 17523,
		"stimulus": "<span style=\"font-size:25px; font-family: monospace\">Ela só faz cabelo cacheado?</span>",
		"response": "n",
		"question": "Ela só faz cabelo cacheado?",
		"answer": "null",
		"trial": "exp-sent",
		"trial_type": "html-keyboard-response",
		"trial_index": 155,
		"time_elapsed": 404871,
		"internal_node_id": "0.0-3.0-2.117-0.117",
		"accuracy": false
	},
	{
		"rt": null,
		"stimulus": "<span style= \"font-size:30px; font-family: monospace\">+</span>",
		"response": null,
		"trial_part": "fixation",
		"trial_type": "html-keyboard-response",
		"trial_index": 156,
		"time_elapsed": 406408,
		"internal_node_id": "0.0-3.0-0.118-0.118"
	},
	{
		"rt": 1651,
		"stimulus": "../audio/76-1-masc.mp3",
		"response": " ",
		"word": "O",
		"trial_type": "audio-keyboard-response",
		"trial_index": 157,
		"time_elapsed": 408343,
		"internal_node_id": "0.0-3.0-1.118"
	},
	{
		"rt": 8131,
		"stimulus": "../audio/76-2-masc.mp3",
		"response": " ",
		"word": "bisavô",
		"trial_type": "audio-keyboard-response",
		"trial_index": 158,
		"time_elapsed": 416743,
		"internal_node_id": "0.0-3.0-1.119"
	},
	{
		"rt": 1440,
		"stimulus": "../audio/76-3-masc.mp3",
		"response": " ",
		"word": "comprou",
		"trial_type": "audio-keyboard-response",
		"trial_index": 159,
		"time_elapsed": 418455,
		"internal_node_id": "0.0-3.0-1.120"
	},
	{
		"rt": 981,
		"stimulus": "../audio/76-4-masc.mp3",
		"response": " ",
		"word": "um",
		"trial_type": "audio-keyboard-response",
		"trial_index": 160,
		"time_elapsed": 419703,
		"internal_node_id": "0.0-3.0-1.121"
	},
	{
		"rt": 1688,
		"stimulus": "../audio/76-5-masc.mp3",
		"response": " ",
		"word": "ralador",
		"trial_type": "audio-keyboard-response",
		"trial_index": 161,
		"time_elapsed": 421687,
		"internal_node_id": "0.0-3.0-1.122"
	},
	{
		"rt": 819,
		"stimulus": "../audio/76-6-masc.mp3",
		"response": " ",
		"word": "de",
		"trial_type": "audio-keyboard-response",
		"trial_index": 162,
		"time_elapsed": 422775,
		"internal_node_id": "0.0-3.0-1.123"
	},
	{
		"rt": 1621,
		"stimulus": "../audio/76-7-masc.mp3",
		"response": " ",
		"word": "queijo.",
		"trial_type": "audio-keyboard-response",
		"trial_index": 163,
		"time_elapsed": 424679,
		"internal_node_id": "0.0-3.0-1.124"
	},
	{
		"rt": null,
		"stimulus": "<span style= \"font-size:30px; font-family: monospace\">+</span>",
		"response": null,
		"trial_part": "fixation",
		"trial_type": "html-keyboard-response",
		"trial_index": 164,
		"time_elapsed": 425968,
		"internal_node_id": "0.0-3.0-0.125-0.125"
	},
	{
		"rt": 1000,
		"stimulus": "../audio/78-1-fem.mp3",
		"response": " ",
		"word": "Eles",
		"trial_type": "audio-keyboard-response",
		"trial_index": 165,
		"time_elapsed": 427255,
		"internal_node_id": "0.0-3.0-1.125"
	},
	{
		"rt": 1051,
		"stimulus": "../audio/78-2-fem.mp3",
		"response": " ",
		"word": "trazem",
		"trial_type": "audio-keyboard-response",
		"trial_index": 166,
		"time_elapsed": 428583,
		"internal_node_id": "0.0-3.0-1.126"
	},
	{
		"rt": 821,
		"stimulus": "../audio/78-3-fem.mp3",
		"response": " ",
		"word": "um",
		"trial_type": "audio-keyboard-response",
		"trial_index": 167,
		"time_elapsed": 429671,
		"internal_node_id": "0.0-3.0-1.127"
	},
	{
		"rt": 1120,
		"stimulus": "../audio/78-4-fem.mp3",
		"response": " ",
		"word": "fato",
		"trial_type": "audio-keyboard-response",
		"trial_index": 168,
		"time_elapsed": 431063,
		"internal_node_id": "0.0-3.0-1.128"
	},
	{
		"rt": 1509,
		"stimulus": "../audio/78-5-fem.mp3",
		"response": " ",
		"word": "urgente",
		"trial_type": "audio-keyboard-response",
		"trial_index": 169,
		"time_elapsed": 432854,
		"internal_node_id": "0.0-3.0-1.129"
	},
	{
		"rt": 1032,
		"stimulus": "../audio/78-6-fem.mp3",
		"response": " ",
		"word": "todos",
		"trial_type": "audio-keyboard-response",
		"trial_index": 170,
		"time_elapsed": 434151,
		"internal_node_id": "0.0-3.0-1.130"
	},
	{
		"rt": 1080,
		"stimulus": "../audio/78-7-fem.mp3",
		"response": " ",
		"word": "os",
		"trial_type": "audio-keyboard-response",
		"trial_index": 171,
		"time_elapsed": 435514,
		"internal_node_id": "0.0-3.0-1.131"
	},
	{
		"rt": 1400,
		"stimulus": "../audio/78-8-fem.mp3",
		"response": " ",
		"word": "dias.",
		"trial_type": "audio-keyboard-response",
		"trial_index": 172,
		"time_elapsed": 437194,
		"internal_node_id": "0.0-3.0-1.132"
	},
	{
		"rt": null,
		"stimulus": "<span style= \"font-size:30px; font-family: monospace\">+</span>",
		"response": null,
		"trial_part": "fixation",
		"trial_type": "html-keyboard-response",
		"trial_index": 173,
		"time_elapsed": 438481,
		"internal_node_id": "0.0-3.0-0.133-0.133"
	},
	{
		"rt": 760,
		"stimulus": "../audio/79-1-fem.mp3",
		"response": " ",
		"word": "A",
		"trial_type": "audio-keyboard-response",
		"trial_index": 174,
		"time_elapsed": 439530,
		"internal_node_id": "0.0-3.0-1.133"
	},
	{
		"rt": 1421,
		"stimulus": "../audio/79-2-fem.mp3",
		"response": " ",
		"word": "médica",
		"trial_type": "audio-keyboard-response",
		"trial_index": 175,
		"time_elapsed": 441226,
		"internal_node_id": "0.0-3.0-1.134"
	},
	{
		"rt": 1429,
		"stimulus": "../audio/79-3-fem.mp3",
		"response": " ",
		"word": "verificou",
		"trial_type": "audio-keyboard-response",
		"trial_index": 176,
		"time_elapsed": 442938,
		"internal_node_id": "0.0-3.0-1.135"
	},
	{
		"rt": 971,
		"stimulus": "../audio/79-4-fem.mp3",
		"response": " ",
		"word": "a",
		"trial_type": "audio-keyboard-response",
		"trial_index": 177,
		"time_elapsed": 444186,
		"internal_node_id": "0.0-3.0-1.136"
	},
	{
		"rt": 1539,
		"stimulus": "../audio/79-5-fem.mp3",
		"response": " ",
		"word": "gengiva",
		"trial_type": "audio-keyboard-response",
		"trial_index": 178,
		"time_elapsed": 446010,
		"internal_node_id": "0.0-3.0-1.137"
	},
	{
		"rt": 912,
		"stimulus": "../audio/79-6-fem.mp3",
		"response": " ",
		"word": "por",
		"trial_type": "audio-keyboard-response",
		"trial_index": 179,
		"time_elapsed": 447194,
		"internal_node_id": "0.0-3.0-1.138"
	},
	{
		"rt": 1549,
		"stimulus": "../audio/79-7-fem.mp3",
		"response": " ",
		"word": "último.",
		"trial_type": "audio-keyboard-response",
		"trial_index": 180,
		"time_elapsed": 449018,
		"internal_node_id": "0.0-3.0-1.139"
	},
	{
		"rt": null,
		"stimulus": "<span style= \"font-size:30px; font-family: monospace\">+</span>",
		"response": null,
		"trial_part": "fixation",
		"trial_type": "html-keyboard-response",
		"trial_index": 181,
		"time_elapsed": 450291,
		"internal_node_id": "0.0-3.0-0.140-0.140"
	},
	{
		"rt": 760,
		"stimulus": "../audio/77-1-fem.mp3",
		"response": " ",
		"word": "A",
		"trial_type": "audio-keyboard-response",
		"trial_index": 182,
		"time_elapsed": 451322,
		"internal_node_id": "0.0-3.0-1.140"
	},
	{
		"rt": 1400,
		"stimulus": "../audio/77-2-fem.mp3",
		"response": " ",
		"word": "criança",
		"trial_type": "audio-keyboard-response",
		"trial_index": 183,
		"time_elapsed": 453002,
		"internal_node_id": "0.0-3.0-1.141"
	},
	{
		"rt": 1208,
		"stimulus": "../audio/77-3-fem.mp3",
		"response": " ",
		"word": "ficou",
		"trial_type": "audio-keyboard-response",
		"trial_index": 184,
		"time_elapsed": 454490,
		"internal_node_id": "0.0-3.0-1.142"
	},
	{
		"rt": 1080,
		"stimulus": "../audio/77-4-fem.mp3",
		"response": " ",
		"word": "muito",
		"trial_type": "audio-keyboard-response",
		"trial_index": 185,
		"time_elapsed": 455834,
		"internal_node_id": "0.0-3.0-1.143"
	},
	{
		"rt": 1029,
		"stimulus": "../audio/77-5-fem.mp3",
		"response": " ",
		"word": "feliz",
		"trial_type": "audio-keyboard-response",
		"trial_index": 186,
		"time_elapsed": 457178,
		"internal_node_id": "0.0-3.0-1.144"
	},
	{
		"rt": 1141,
		"stimulus": "../audio/77-6-fem.mp3",
		"response": " ",
		"word": "com",
		"trial_type": "audio-keyboard-response",
		"trial_index": 187,
		"time_elapsed": 458586,
		"internal_node_id": "0.0-3.0-1.145"
	},
	{
		"rt": 920,
		"stimulus": "../audio/77-7-fem.mp3",
		"response": " ",
		"word": "o",
		"trial_type": "audio-keyboard-response",
		"trial_index": 188,
		"time_elapsed": 459786,
		"internal_node_id": "0.0-3.0-1.146"
	},
	{
		"rt": 1549,
		"stimulus": "../audio/77-8-fem.mp3",
		"response": " ",
		"word": "brinquedo.",
		"trial_type": "audio-keyboard-response",
		"trial_index": 189,
		"time_elapsed": 461626,
		"internal_node_id": "0.0-3.0-1.147"
	},
	{
		"rt": null,
		"stimulus": "<span style= \"font-size:30px; font-family: monospace\">+</span>",
		"response": null,
		"trial_part": "fixation",
		"trial_type": "html-keyboard-response",
		"trial_index": 190,
		"time_elapsed": 462901,
		"internal_node_id": "0.0-3.0-0.148-0.148"
	},
	{
		"rt": 851,
		"stimulus": "../audio/80-1-masc.mp3",
		"response": " ",
		"word": "Meu",
		"trial_type": "audio-keyboard-response",
		"trial_index": 191,
		"time_elapsed": 464026,
		"internal_node_id": "0.0-3.0-1.148"
	},
	{
		"rt": 1040,
		"stimulus": "../audio/80-2-masc.mp3",
		"response": " ",
		"word": "primo",
		"trial_type": "audio-keyboard-response",
		"trial_index": 192,
		"time_elapsed": 465338,
		"internal_node_id": "0.0-3.0-1.149"
	},
	{
		"rt": 1120,
		"stimulus": "../audio/80-3-masc.mp3",
		"response": " ",
		"word": "conheceu",
		"trial_type": "audio-keyboard-response",
		"trial_index": 193,
		"time_elapsed": 466730,
		"internal_node_id": "0.0-3.0-1.150"
	},
	{
		"rt": 848,
		"stimulus": "../audio/80-4-masc.mp3",
		"response": " ",
		"word": "um",
		"trial_type": "audio-keyboard-response",
		"trial_index": 194,
		"time_elapsed": 467850,
		"internal_node_id": "0.0-3.0-1.151"
	},
	{
		"rt": 1139,
		"stimulus": "../audio/80-5-masc.mp3",
		"response": " ",
		"word": "jovem",
		"trial_type": "audio-keyboard-response",
		"trial_index": 195,
		"time_elapsed": 469258,
		"internal_node_id": "0.0-3.0-1.152"
	},
	{
		"rt": 1149,
		"stimulus": "../audio/80-6-masc.mp3",
		"response": " ",
		"word": "amável",
		"trial_type": "audio-keyboard-response",
		"trial_index": 196,
		"time_elapsed": 470682,
		"internal_node_id": "0.0-3.0-1.153"
	},
	{
		"rt": 800,
		"stimulus": "../audio/80-7-masc.mp3",
		"response": " ",
		"word": "e",
		"trial_type": "audio-keyboard-response",
		"trial_index": 197,
		"time_elapsed": 471770,
		"internal_node_id": "0.0-3.0-1.154"
	},
	{
		"rt": 1280,
		"stimulus": "../audio/80-8-masc.mp3",
		"response": " ",
		"word": "confiante.",
		"trial_type": "audio-keyboard-response",
		"trial_index": 198,
		"time_elapsed": 473322,
		"internal_node_id": "0.0-3.0-1.155"
	},
	{
		"rt": 9008,
		"stimulus": "<span style=\"font-size:25px; font-family: monospace\">O primo conheceu um jovem irritante?</span>",
		"response": "n",
		"question": "O primo conheceu um jovem irritante?",
		"answer": "null",
		"trial": "exp-sent",
		"trial_type": "html-keyboard-response",
		"trial_index": 199,
		"time_elapsed": 482586,
		"internal_node_id": "0.0-3.0-2.155-0.155",
		"accuracy": false
	},
	{
		"rt": null,
		"stimulus": "<span style= \"font-size:30px; font-family: monospace\">+</span>",
		"response": null,
		"trial_part": "fixation",
		"trial_type": "html-keyboard-response",
		"trial_index": 200,
		"time_elapsed": 484121,
		"internal_node_id": "0.0-3.0-0.156-0.156"
	},
	{
		"rt": 2392,
		"stimulus": "../audio/68-1-fem.mp3",
		"response": " ",
		"word": "Meu",
		"trial_type": "audio-keyboard-response",
		"trial_index": 201,
		"time_elapsed": 486794,
		"internal_node_id": "0.0-3.0-1.156"
	},
	{
		"rt": 1379,
		"stimulus": "../audio/68-2-fem.mp3",
		"response": " ",
		"word": "irmão",
		"trial_type": "audio-keyboard-response",
		"trial_index": 202,
		"time_elapsed": 488442,
		"internal_node_id": "0.0-3.0-1.157"
	},
	{
		"rt": 1120,
		"stimulus": "../audio/68-3-fem.mp3",
		"response": " ",
		"word": "teve",
		"trial_type": "audio-keyboard-response",
		"trial_index": 203,
		"time_elapsed": 489834,
		"internal_node_id": "0.0-3.0-1.158"
	},
	{
		"rt": 1400,
		"stimulus": "../audio/68-4-fem.mp3",
		"response": " ",
		"word": "um",
		"trial_type": "audio-keyboard-response",
		"trial_index": 204,
		"time_elapsed": 491514,
		"internal_node_id": "0.0-3.0-1.159"
	},
	{
		"rt": 1651,
		"stimulus": "../audio/68-5-fem.mp3",
		"response": " ",
		"word": "noivado",
		"trial_type": "audio-keyboard-response",
		"trial_index": 205,
		"time_elapsed": 493434,
		"internal_node_id": "0.0-3.0-1.160"
	},
	{
		"rt": 1560,
		"stimulus": "../audio/68-6-fem.mp3",
		"response": " ",
		"word": "longo",
		"trial_type": "audio-keyboard-response",
		"trial_index": 206,
		"time_elapsed": 495274,
		"internal_node_id": "0.0-3.0-1.161"
	},
	{
		"rt": 1040,
		"stimulus": "../audio/68-7-fem.mp3",
		"response": " ",
		"word": "e",
		"trial_type": "audio-keyboard-response",
		"trial_index": 207,
		"time_elapsed": 496588,
		"internal_node_id": "0.0-3.0-1.162"
	},
	{
		"rt": 2171,
		"stimulus": "../audio/68-8-fem.mp3",
		"response": " ",
		"word": "maravilhoso.",
		"trial_type": "audio-keyboard-response",
		"trial_index": 208,
		"time_elapsed": 499036,
		"internal_node_id": "0.0-3.0-1.163"
	},
	{
		"rt": null,
		"stimulus": "<span style= \"font-size:30px; font-family: monospace\">+</span>",
		"response": null,
		"trial_part": "fixation",
		"trial_type": "html-keyboard-response",
		"trial_index": 209,
		"time_elapsed": 500303,
		"internal_node_id": "0.0-3.0-0.164-0.164"
	},
	{
		"rt": 891,
		"stimulus": "../audio/69-1-masc.mp3",
		"response": " ",
		"word": "A",
		"trial_type": "audio-keyboard-response",
		"trial_index": 210,
		"time_elapsed": 501484,
		"internal_node_id": "0.0-3.0-1.164"
	},
	{
		"rt": 1120,
		"stimulus": "../audio/69-2-masc.mp3",
		"response": " ",
		"word": "loja",
		"trial_type": "audio-keyboard-response",
		"trial_index": 211,
		"time_elapsed": 502876,
		"internal_node_id": "0.0-3.0-1.165"
	},
	{
		"rt": 1059,
		"stimulus": "../audio/69-3-masc.mp3",
		"response": " ",
		"word": "recebeu",
		"trial_type": "audio-keyboard-response",
		"trial_index": 212,
		"time_elapsed": 504205,
		"internal_node_id": "0.0-3.0-1.166"
	},
	{
		"rt": 952,
		"stimulus": "../audio/69-4-masc.mp3",
		"response": " ",
		"word": "uma",
		"trial_type": "audio-keyboard-response",
		"trial_index": 213,
		"time_elapsed": 505436,
		"internal_node_id": "0.0-3.0-1.167"
	},
	{
		"rt": 1408,
		"stimulus": "../audio/69-5-masc.mp3",
		"response": " ",
		"word": "poltrona",
		"trial_type": "audio-keyboard-response",
		"trial_index": 214,
		"time_elapsed": 507132,
		"internal_node_id": "0.0-3.0-1.168"
	},
	{
		"rt": 1200,
		"stimulus": "../audio/69-6-masc.mp3",
		"response": " ",
		"word": "de",
		"trial_type": "audio-keyboard-response",
		"trial_index": 215,
		"time_elapsed": 508604,
		"internal_node_id": "0.0-3.0-1.169"
	},
	{
		"rt": 1328,
		"stimulus": "../audio/69-7-masc.mp3",
		"response": " ",
		"word": "couro",
		"trial_type": "audio-keyboard-response",
		"trial_index": 216,
		"time_elapsed": 510204,
		"internal_node_id": "0.0-3.0-1.170"
	},
	{
		"rt": 1480,
		"stimulus": "../audio/69-8-masc.mp3",
		"response": " ",
		"word": "preto.",
		"trial_type": "audio-keyboard-response",
		"trial_index": 217,
		"time_elapsed": 511964,
		"internal_node_id": "0.0-3.0-1.171"
	},
	{
		"rt": null,
		"stimulus": "<span style= \"font-size:30px; font-family: monospace\">+</span>",
		"response": null,
		"trial_part": "fixation",
		"trial_type": "html-keyboard-response",
		"trial_index": 218,
		"time_elapsed": 513233,
		"internal_node_id": "0.0-3.0-0.172-0.172"
	},
	{
		"rt": 939,
		"stimulus": "../audio/66-1-fem.mp3",
		"response": " ",
		"word": "Não",
		"trial_type": "audio-keyboard-response",
		"trial_index": 219,
		"time_elapsed": 514460,
		"internal_node_id": "0.0-3.0-1.172"
	},
	{
		"rt": 1112,
		"stimulus": "../audio/66-2-fem.mp3",
		"response": " ",
		"word": "gosto",
		"trial_type": "audio-keyboard-response",
		"trial_index": 220,
		"time_elapsed": 515836,
		"internal_node_id": "0.0-3.0-1.173"
	},
	{
		"rt": 869,
		"stimulus": "../audio/66-3-fem.mp3",
		"response": " ",
		"word": "de",
		"trial_type": "audio-keyboard-response",
		"trial_index": 221,
		"time_elapsed": 516988,
		"internal_node_id": "0.0-3.0-1.174"
	},
	{
		"rt": 1309,
		"stimulus": "../audio/66-4-fem.mp3",
		"response": " ",
		"word": "gente",
		"trial_type": "audio-keyboard-response",
		"trial_index": 222,
		"time_elapsed": 518572,
		"internal_node_id": "0.0-3.0-1.175"
	},
	{
		"rt": 1451,
		"stimulus": "../audio/66-5-fem.mp3",
		"response": " ",
		"word": "egoísta",
		"trial_type": "audio-keyboard-response",
		"trial_index": 223,
		"time_elapsed": 520300,
		"internal_node_id": "0.0-3.0-1.176"
	},
	{
		"rt": 960,
		"stimulus": "../audio/66-6-fem.mp3",
		"response": " ",
		"word": "nem",
		"trial_type": "audio-keyboard-response",
		"trial_index": 224,
		"time_elapsed": 521532,
		"internal_node_id": "0.0-3.0-1.177"
	},
	{
		"rt": 1112,
		"stimulus": "../audio/66-7-fem.mp3",
		"response": " ",
		"word": "chata.",
		"trial_type": "audio-keyboard-response",
		"trial_index": 225,
		"time_elapsed": 522924,
		"internal_node_id": "0.0-3.0-1.178"
	},
	{
		"rt": null,
		"stimulus": "<span style= \"font-size:30px; font-family: monospace\">+</span>",
		"response": null,
		"trial_part": "fixation",
		"trial_type": "html-keyboard-response",
		"trial_index": 226,
		"time_elapsed": 524193,
		"internal_node_id": "0.0-3.0-0.179-0.179"
	},
	{
		"rt": 939,
		"stimulus": "../audio/67-1-masc.mp3",
		"response": " ",
		"word": "Minha",
		"trial_type": "audio-keyboard-response",
		"trial_index": 227,
		"time_elapsed": 525420,
		"internal_node_id": "0.0-3.0-1.179"
	},
	{
		"rt": 971,
		"stimulus": "../audio/67-2-masc.mp3",
		"response": " ",
		"word": "tia",
		"trial_type": "audio-keyboard-response",
		"trial_index": 228,
		"time_elapsed": 526668,
		"internal_node_id": "0.0-3.0-1.180"
	},
	{
		"rt": 931,
		"stimulus": "../audio/67-3-masc.mp3",
		"response": " ",
		"word": "comprou",
		"trial_type": "audio-keyboard-response",
		"trial_index": 229,
		"time_elapsed": 527868,
		"internal_node_id": "0.0-3.0-1.181"
	},
	{
		"rt": 840,
		"stimulus": "../audio/67-4-masc.mp3",
		"response": " ",
		"word": "um",
		"trial_type": "audio-keyboard-response",
		"trial_index": 230,
		"time_elapsed": 528988,
		"internal_node_id": "0.0-3.0-1.182"
	},
	{
		"rt": 1109,
		"stimulus": "../audio/67-5-masc.mp3",
		"response": " ",
		"word": "cordão",
		"trial_type": "audio-keyboard-response",
		"trial_index": 231,
		"time_elapsed": 530380,
		"internal_node_id": "0.0-3.0-1.183"
	},
	{
		"rt": 920,
		"stimulus": "../audio/67-6-masc.mp3",
		"response": " ",
		"word": "para",
		"trial_type": "audio-keyboard-response",
		"trial_index": 232,
		"time_elapsed": 531565,
		"internal_node_id": "0.0-3.0-1.184"
	},
	{
		"rt": 811,
		"stimulus": "../audio/67-7-masc.mp3",
		"response": " ",
		"word": "o",
		"trial_type": "audio-keyboard-response",
		"trial_index": 233,
		"time_elapsed": 532636,
		"internal_node_id": "0.0-3.0-1.185"
	},
	{
		"rt": 2629,
		"stimulus": "../audio/67-8-masc.mp3",
		"response": " ",
		"word": "varal.",
		"trial_type": "audio-keyboard-response",
		"trial_index": 234,
		"time_elapsed": 535548,
		"internal_node_id": "0.0-3.0-1.186"
	},
	{
		"rt": null,
		"stimulus": "<span style= \"font-size:30px; font-family: monospace\">+</span>",
		"response": null,
		"trial_part": "fixation",
		"trial_type": "html-keyboard-response",
		"trial_index": 235,
		"time_elapsed": 536819,
		"internal_node_id": "0.0-3.0-0.187-0.187"
	},
	{
		"rt": 771,
		"stimulus": "../audio/70-1-fem.mp3",
		"response": " ",
		"word": "O",
		"trial_type": "audio-keyboard-response",
		"trial_index": 236,
		"time_elapsed": 537868,
		"internal_node_id": "0.0-3.0-1.187"
	},
	{
		"rt": 979,
		"stimulus": "../audio/70-2-fem.mp3",
		"response": " ",
		"word": "meu",
		"trial_type": "audio-keyboard-response",
		"trial_index": 237,
		"time_elapsed": 539132,
		"internal_node_id": "0.0-3.0-1.188"
	},
	{
		"rt": 1032,
		"stimulus": "../audio/70-3-fem.mp3",
		"response": " ",
		"word": "filho",
		"trial_type": "audio-keyboard-response",
		"trial_index": 238,
		"time_elapsed": 540444,
		"internal_node_id": "0.0-3.0-1.189"
	},
	{
		"rt": 939,
		"stimulus": "../audio/70-4-fem.mp3",
		"response": " ",
		"word": "tem",
		"trial_type": "audio-keyboard-response",
		"trial_index": 239,
		"time_elapsed": 541660,
		"internal_node_id": "0.0-3.0-1.190"
	},
	{
		"rt": 1189,
		"stimulus": "../audio/70-5-fem.mp3",
		"response": " ",
		"word": "medo",
		"trial_type": "audio-keyboard-response",
		"trial_index": 240,
		"time_elapsed": 543132,
		"internal_node_id": "0.0-3.0-1.191"
	},
	{
		"rt": 840,
		"stimulus": "../audio/70-6-fem.mp3",
		"response": " ",
		"word": "de",
		"trial_type": "audio-keyboard-response",
		"trial_index": 241,
		"time_elapsed": 544252,
		"internal_node_id": "0.0-3.0-1.192"
	},
	{
		"rt": 1392,
		"stimulus": "../audio/70-7-fem.mp3",
		"response": " ",
		"word": "enguia",
		"trial_type": "audio-keyboard-response",
		"trial_index": 242,
		"time_elapsed": 545916,
		"internal_node_id": "0.0-3.0-1.193"
	},
	{
		"rt": 848,
		"stimulus": "../audio/70-8-fem.mp3",
		"response": " ",
		"word": "e",
		"trial_type": "audio-keyboard-response",
		"trial_index": 243,
		"time_elapsed": 547052,
		"internal_node_id": "0.0-3.0-1.194"
	},
	{
		"rt": 3371,
		"stimulus": "../audio/70-9-fem.mp3",
		"response": " ",
		"word": "beija-flor.",
		"trial_type": "audio-keyboard-response",
		"trial_index": 244,
		"time_elapsed": 550700,
		"internal_node_id": "0.0-3.0-1.195"
	},
	{
		"rt": 31651,
		"stimulus": "<span style=\"font-size:25px; font-family: monospace\">O filho tem medo de tigre?</span>",
		"response": "n",
		"question": "O filho tem medo de tigre?",
		"answer": "null",
		"trial": "exp-sent",
		"trial_type": "html-keyboard-response",
		"trial_index": 245,
		"time_elapsed": 582604,
		"internal_node_id": "0.0-3.0-2.195-0.195",
		"accuracy": false
	},
	{
		"rt": null,
		"stimulus": "<span style= \"font-size:30px; font-family: monospace\">+</span>",
		"response": null,
		"trial_part": "fixation",
		"trial_type": "html-keyboard-response",
		"trial_index": 246,
		"time_elapsed": 584106,
		"internal_node_id": "0.0-3.0-0.196-0.196"
	},
	{
		"rt": 48651,
		"stimulus": "../audio/74-1-fem.mp3",
		"response": " ",
		"word": "Este",
		"trial_type": "audio-keyboard-response",
		"trial_index": 247,
		"time_elapsed": 633068,
		"internal_node_id": "0.0-3.0-1.196"
	},
	{
		"rt": 2069,
		"stimulus": "../audio/74-2-fem.mp3",
		"response": " ",
		"word": "emprego",
		"trial_type": "audio-keyboard-response",
		"trial_index": 248,
		"time_elapsed": 635452,
		"internal_node_id": "0.0-3.0-1.197"
	},
	{
		"rt": 1181,
		"stimulus": "../audio/74-3-fem.mp3",
		"response": " ",
		"word": "é",
		"trial_type": "audio-keyboard-response",
		"trial_index": 249,
		"time_elapsed": 636908,
		"internal_node_id": "0.0-3.0-1.198"
	},
	{
		"rt": 1280,
		"stimulus": "../audio/74-4-fem.mp3",
		"response": " ",
		"word": "muito",
		"trial_type": "audio-keyboard-response",
		"trial_index": 250,
		"time_elapsed": 638459,
		"internal_node_id": "0.0-3.0-1.199"
	},
	{
		"rt": 1531,
		"stimulus": "../audio/74-5-fem.mp3",
		"response": " ",
		"word": "cansativo",
		"trial_type": "audio-keyboard-response",
		"trial_index": 251,
		"time_elapsed": 640268,
		"internal_node_id": "0.0-3.0-1.200"
	},
	{
		"rt": 1200,
		"stimulus": "../audio/74-6-fem.mp3",
		"response": " ",
		"word": "a",
		"trial_type": "audio-keyboard-response",
		"trial_index": 252,
		"time_elapsed": 641739,
		"internal_node_id": "0.0-3.0-1.201"
	},
	{
		"rt": 1349,
		"stimulus": "../audio/74-7-fem.mp3",
		"response": " ",
		"word": "longo",
		"trial_type": "audio-keyboard-response",
		"trial_index": 253,
		"time_elapsed": 643366,
		"internal_node_id": "0.0-3.0-1.202"
	},
	{
		"rt": 1491,
		"stimulus": "../audio/74-8-fem.mp3",
		"response": " ",
		"word": "prazo.",
		"trial_type": "audio-keyboard-response",
		"trial_index": 254,
		"time_elapsed": 645126,
		"internal_node_id": "0.0-3.0-1.203"
	},
	{
		"rt": null,
		"stimulus": "<span style= \"font-size:30px; font-family: monospace\">+</span>",
		"response": null,
		"trial_part": "fixation",
		"trial_type": "html-keyboard-response",
		"trial_index": 255,
		"time_elapsed": 646392,
		"internal_node_id": "0.0-3.0-0.204-0.204"
	},
	{
		"rt": 829,
		"stimulus": "../audio/72-1-fem.mp3",
		"response": " ",
		"word": "A",
		"trial_type": "audio-keyboard-response",
		"trial_index": 256,
		"time_elapsed": 647494,
		"internal_node_id": "0.0-3.0-1.204"
	},
	{
		"rt": 1680,
		"stimulus": "../audio/72-2-fem.mp3",
		"response": " ",
		"word": "vencedora",
		"trial_type": "audio-keyboard-response",
		"trial_index": 257,
		"time_elapsed": 649446,
		"internal_node_id": "0.0-3.0-1.205"
	},
	{
		"rt": 1171,
		"stimulus": "../audio/72-3-fem.mp3",
		"response": " ",
		"word": "recebeu",
		"trial_type": "audio-keyboard-response",
		"trial_index": 258,
		"time_elapsed": 650903,
		"internal_node_id": "0.0-3.0-1.206"
	},
	{
		"rt": 891,
		"stimulus": "../audio/72-4-fem.mp3",
		"response": " ",
		"word": "um",
		"trial_type": "audio-keyboard-response",
		"trial_index": 259,
		"time_elapsed": 652070,
		"internal_node_id": "0.0-3.0-1.207"
	},
	{
		"rt": 1080,
		"stimulus": "../audio/72-5-fem.mp3",
		"response": " ",
		"word": "prêmio",
		"trial_type": "audio-keyboard-response",
		"trial_index": 260,
		"time_elapsed": 653414,
		"internal_node_id": "0.0-3.0-1.208"
	},
	{
		"rt": 1459,
		"stimulus": "../audio/72-6-fem.mp3",
		"response": " ",
		"word": "em",
		"trial_type": "audio-keyboard-response",
		"trial_index": 261,
		"time_elapsed": 655158,
		"internal_node_id": "0.0-3.0-1.209"
	},
	{
		"rt": 2440,
		"stimulus": "../audio/72-7-fem.mp3",
		"response": " ",
		"word": "dinheiro.",
		"trial_type": "audio-keyboard-response",
		"trial_index": 262,
		"time_elapsed": 657878,
		"internal_node_id": "0.0-3.0-1.210"
	},
	{
		"rt": null,
		"stimulus": "<span style= \"font-size:30px; font-family: monospace\">+</span>",
		"response": null,
		"trial_part": "fixation",
		"trial_type": "html-keyboard-response",
		"trial_index": 263,
		"time_elapsed": 659148,
		"internal_node_id": "0.0-3.0-0.211-0.211"
	},
	{
		"rt": 1061,
		"stimulus": "../audio/73-1-masc.mp3",
		"response": " ",
		"word": "O",
		"trial_type": "audio-keyboard-response",
		"trial_index": 264,
		"time_elapsed": 660502,
		"internal_node_id": "0.0-3.0-1.211"
	},
	{
		"rt": 1200,
		"stimulus": "../audio/73-2-masc.mp3",
		"response": " ",
		"word": "cliente",
		"trial_type": "audio-keyboard-response",
		"trial_index": 265,
		"time_elapsed": 661974,
		"internal_node_id": "0.0-3.0-1.212"
	},
	{
		"rt": 1040,
		"stimulus": "../audio/73-3-masc.mp3",
		"response": " ",
		"word": "era",
		"trial_type": "audio-keyboard-response",
		"trial_index": 266,
		"time_elapsed": 663286,
		"internal_node_id": "0.0-3.0-1.213"
	},
	{
		"rt": 1909,
		"stimulus": "../audio/73-4-masc.mp3",
		"response": " ",
		"word": "um",
		"trial_type": "audio-keyboard-response",
		"trial_index": 267,
		"time_elapsed": 665478,
		"internal_node_id": "0.0-3.0-1.214"
	},
	{
		"rt": 1429,
		"stimulus": "../audio/73-5-masc.mp3",
		"response": " ",
		"word": "homem",
		"trial_type": "audio-keyboard-response",
		"trial_index": 268,
		"time_elapsed": 667174,
		"internal_node_id": "0.0-3.0-1.215"
	},
	{
		"rt": 1251,
		"stimulus": "../audio/73-6-masc.mp3",
		"response": " ",
		"word": "muito",
		"trial_type": "audio-keyboard-response",
		"trial_index": 269,
		"time_elapsed": 668710,
		"internal_node_id": "0.0-3.0-1.216"
	},
	{
		"rt": 1619,
		"stimulus": "../audio/73-7-masc.mp3",
		"response": " ",
		"word": "educado.",
		"trial_type": "audio-keyboard-response",
		"trial_index": 270,
		"time_elapsed": 670598,
		"internal_node_id": "0.0-3.0-1.217"
	},
	{
		"rt": null,
		"stimulus": "<span style= \"font-size:30px; font-family: monospace\">+</span>",
		"response": null,
		"trial_part": "fixation",
		"trial_type": "html-keyboard-response",
		"trial_index": 271,
		"time_elapsed": 671873,
		"internal_node_id": "0.0-3.0-0.218-0.218"
	},
	{
		"rt": 952,
		"stimulus": "../audio/71-1-fem.mp3",
		"response": " ",
		"word": "Minhas",
		"trial_type": "audio-keyboard-response",
		"trial_index": 272,
		"time_elapsed": 673110,
		"internal_node_id": "0.0-3.0-1.218"
	},
	{
		"rt": 1221,
		"stimulus": "../audio/71-2-fem.mp3",
		"response": " ",
		"word": "comidas",
		"trial_type": "audio-keyboard-response",
		"trial_index": 273,
		"time_elapsed": 674630,
		"internal_node_id": "0.0-3.0-1.219"
	},
	{
		"rt": 1411,
		"stimulus": "../audio/71-3-fem.mp3",
		"response": " ",
		"word": "favoritas",
		"trial_type": "audio-keyboard-response",
		"trial_index": 274,
		"time_elapsed": 676311,
		"internal_node_id": "0.0-3.0-1.220"
	},
	{
		"rt": 1099,
		"stimulus": "../audio/71-4-fem.mp3",
		"response": " ",
		"word": "são",
		"trial_type": "audio-keyboard-response",
		"trial_index": 275,
		"time_elapsed": 677686,
		"internal_node_id": "0.0-3.0-1.221"
	},
	{
		"rt": 1381,
		"stimulus": "../audio/71-5-fem.mp3",
		"response": " ",
		"word": "morango",
		"trial_type": "audio-keyboard-response",
		"trial_index": 276,
		"time_elapsed": 679350,
		"internal_node_id": "0.0-3.0-1.222"
	},
	{
		"rt": 960,
		"stimulus": "../audio/71-6-fem.mp3",
		"response": " ",
		"word": "e",
		"trial_type": "audio-keyboard-response",
		"trial_index": 277,
		"time_elapsed": 680583,
		"internal_node_id": "0.0-3.0-1.223"
	},
	{
		"rt": 1280,
		"stimulus": "../audio/71-7-fem.mp3",
		"response": " ",
		"word": "uva.",
		"trial_type": "audio-keyboard-response",
		"trial_index": 278,
		"time_elapsed": 682134,
		"internal_node_id": "0.0-3.0-1.224"
	},
	{
		"rt": null,
		"stimulus": "<span style= \"font-size:30px; font-family: monospace\">+</span>",
		"response": null,
		"trial_part": "fixation",
		"trial_type": "html-keyboard-response",
		"trial_index": 279,
		"time_elapsed": 683412,
		"internal_node_id": "0.0-3.0-0.225-0.225"
	},
	{
		"rt": 1091,
		"stimulus": "../audio/75-1-fem.mp3",
		"response": " ",
		"word": "Só",
		"trial_type": "audio-keyboard-response",
		"trial_index": 280,
		"time_elapsed": 684774,
		"internal_node_id": "0.0-3.0-1.225"
	},
	{
		"rt": 1291,
		"stimulus": "../audio/75-2-fem.mp3",
		"response": " ",
		"word": "existe",
		"trial_type": "audio-keyboard-response",
		"trial_index": 281,
		"time_elapsed": 686343,
		"internal_node_id": "0.0-3.0-1.226"
	},
	{
		"rt": 909,
		"stimulus": "../audio/75-3-fem.mp3",
		"response": " ",
		"word": "uma",
		"trial_type": "audio-keyboard-response",
		"trial_index": 282,
		"time_elapsed": 687526,
		"internal_node_id": "0.0-3.0-1.227"
	},
	{
		"rt": 1040,
		"stimulus": "../audio/75-4-fem.mp3",
		"response": " ",
		"word": "pessoa",
		"trial_type": "audio-keyboard-response",
		"trial_index": 283,
		"time_elapsed": 688838,
		"internal_node_id": "0.0-3.0-1.228"
	},
	{
		"rt": 1560,
		"stimulus": "../audio/75-5-fem.mp3",
		"response": " ",
		"word": "canhota",
		"trial_type": "audio-keyboard-response",
		"trial_index": 284,
		"time_elapsed": 690678,
		"internal_node_id": "0.0-3.0-1.229"
	},
	{
		"rt": 1109,
		"stimulus": "../audio/75-6-fem.mp3",
		"response": " ",
		"word": "nesta",
		"trial_type": "audio-keyboard-response",
		"trial_index": 285,
		"time_elapsed": 692054,
		"internal_node_id": "0.0-3.0-1.230"
	},
	{
		"rt": 2240,
		"stimulus": "../audio/75-7-fem.mp3",
		"response": " ",
		"word": "cidade.",
		"trial_type": "audio-keyboard-response",
		"trial_index": 286,
		"time_elapsed": 694566,
		"internal_node_id": "0.0-3.0-1.231"
	},
	{
		"rt": 9392,
		"stimulus": "<span style=\"font-size:25px; font-family: monospace\">Só existe uma pessoa canhota na cidade?</span>",
		"response": "s",
		"question": "Só existe uma pessoa canhota na cidade?",
		"answer": "null",
		"trial": "exp-sent",
		"trial_type": "html-keyboard-response",
		"trial_index": 287,
		"time_elapsed": 704217,
		"internal_node_id": "0.0-3.0-2.231-0.231",
		"accuracy": false
	},
	{
		"rt": null,
		"stimulus": "<span style= \"font-size:30px; font-family: monospace\">+</span>",
		"response": null,
		"trial_part": "fixation",
		"trial_type": "html-keyboard-response",
		"trial_index": 288,
		"time_elapsed": 705736,
		"internal_node_id": "0.0-3.0-0.232-0.232"
	},
	{
		"rt": 1931,
		"stimulus": "../audio/14-1-fem.mp3",
		"response": " ",
		"word": "O",
		"trial_type": "audio-keyboard-response",
		"trial_index": 289,
		"time_elapsed": 707944,
		"internal_node_id": "0.0-3.0-1.232"
	},
	{
		"rt": 1381,
		"stimulus": "../audio/14-2-fem.mp3",
		"response": " ",
		"word": "cachorro",
		"trial_type": "audio-keyboard-response",
		"trial_index": 290,
		"time_elapsed": 709625,
		"internal_node_id": "0.0-3.0-1.233"
	},
	{
		"rt": 840,
		"stimulus": "../audio/14-3-fem.mp3",
		"response": " ",
		"word": "é",
		"trial_type": "audio-keyboard-response",
		"trial_index": 291,
		"time_elapsed": 710745,
		"internal_node_id": "0.0-3.0-1.234"
	},
	{
		"rt": 1069,
		"stimulus": "../audio/14-4-fem.mp3",
		"response": " ",
		"word": "muito",
		"trial_type": "audio-keyboard-response",
		"trial_index": 292,
		"time_elapsed": 712089,
		"internal_node_id": "0.0-3.0-1.235"
	},
	{
		"rt": 1141,
		"stimulus": "../audio/14-5-fem.mp3",
		"response": " ",
		"word": "fiel",
		"trial_type": "audio-keyboard-response",
		"trial_index": 293,
		"time_elapsed": 713513,
		"internal_node_id": "0.0-3.0-1.236"
	},
	{
		"rt": 859,
		"stimulus": "../audio/14-6-fem.mp3",
		"response": " ",
		"word": "a",
		"trial_type": "audio-keyboard-response",
		"trial_index": 294,
		"time_elapsed": 714649,
		"internal_node_id": "0.0-3.0-1.237"
	},
	{
		"rt": 1331,
		"stimulus": "../audio/14-7-fem.mp3",
		"response": " ",
		"word": "seus",
		"trial_type": "audio-keyboard-response",
		"trial_index": 295,
		"time_elapsed": 716265,
		"internal_node_id": "0.0-3.0-1.238"
	},
	{
		"rt": 1200,
		"stimulus": "../audio/14-8-fem.mp3",
		"response": " ",
		"word": "donos.",
		"trial_type": "audio-keyboard-response",
		"trial_index": 296,
		"time_elapsed": 717737,
		"internal_node_id": "0.0-3.0-1.239"
	},
	{
		"rt": null,
		"stimulus": "<span style= \"font-size:30px; font-family: monospace\">+</span>",
		"response": null,
		"trial_part": "fixation",
		"trial_type": "html-keyboard-response",
		"trial_index": 297,
		"time_elapsed": 719004,
		"internal_node_id": "0.0-3.0-0.240-0.240"
	},
	{
		"rt": 741,
		"stimulus": "../audio/12-1-fem.mp3",
		"response": " ",
		"word": "O",
		"trial_type": "audio-keyboard-response",
		"trial_index": 298,
		"time_elapsed": 720025,
		"internal_node_id": "0.0-3.0-1.240"
	},
	{
		"rt": 1000,
		"stimulus": "../audio/12-2-fem.mp3",
		"response": " ",
		"word": "dia",
		"trial_type": "audio-keyboard-response",
		"trial_index": 299,
		"time_elapsed": 721305,
		"internal_node_id": "0.0-3.0-1.241"
	},
	{
		"rt": 1309,
		"stimulus": "../audio/12-3-fem.mp3",
		"response": " ",
		"word": "estava",
		"trial_type": "audio-keyboard-response",
		"trial_index": 300,
		"time_elapsed": 722904,
		"internal_node_id": "0.0-3.0-1.242"
	},
	{
		"rt": 1149,
		"stimulus": "../audio/12-4-fem.mp3",
		"response": " ",
		"word": "quente,",
		"trial_type": "audio-keyboard-response",
		"trial_index": 301,
		"time_elapsed": 724345,
		"internal_node_id": "0.0-3.0-1.243"
	},
	{
		"rt": 1229,
		"stimulus": "../audio/12-5-fem.mp3",
		"response": " ",
		"word": "tranquilo",
		"trial_type": "audio-keyboard-response",
		"trial_index": 302,
		"time_elapsed": 725849,
		"internal_node_id": "0.0-3.0-1.244"
	},
	{
		"rt": 1149,
		"stimulus": "../audio/12-6-fem.mp3",
		"response": " ",
		"word": "e",
		"trial_type": "audio-keyboard-response",
		"trial_index": 303,
		"time_elapsed": 727257,
		"internal_node_id": "0.0-3.0-1.245"
	},
	{
		"rt": 2371,
		"stimulus": "../audio/12-7-fem.mp3",
		"response": " ",
		"word": "ensolarado.",
		"trial_type": "audio-keyboard-response",
		"trial_index": 304,
		"time_elapsed": 729913,
		"internal_node_id": "0.0-3.0-1.246"
	},
	{
		"rt": null,
		"stimulus": "<span style= \"font-size:30px; font-family: monospace\">+</span>",
		"response": null,
		"trial_part": "fixation",
		"trial_type": "html-keyboard-response",
		"trial_index": 305,
		"time_elapsed": 731174,
		"internal_node_id": "0.0-3.0-0.247-0.247"
	},
	{
		"rt": 1200,
		"stimulus": "../audio/11-1-masc.mp3",
		"response": " ",
		"word": "Elas",
		"trial_type": "audio-keyboard-response",
		"trial_index": 306,
		"time_elapsed": 732649,
		"internal_node_id": "0.0-3.0-1.247"
	},
	{
		"rt": 1211,
		"stimulus": "../audio/11-2-masc.mp3",
		"response": " ",
		"word": "gostam",
		"trial_type": "audio-keyboard-response",
		"trial_index": 307,
		"time_elapsed": 734137,
		"internal_node_id": "0.0-3.0-1.248"
	},
	{
		"rt": 1040,
		"stimulus": "../audio/11-3-masc.mp3",
		"response": " ",
		"word": "muito",
		"trial_type": "audio-keyboard-response",
		"trial_index": 308,
		"time_elapsed": 735465,
		"internal_node_id": "0.0-3.0-1.249"
	},
	{
		"rt": 920,
		"stimulus": "../audio/11-4-masc.mp3",
		"response": " ",
		"word": "de",
		"trial_type": "audio-keyboard-response",
		"trial_index": 309,
		"time_elapsed": 736665,
		"internal_node_id": "0.0-3.0-1.250"
	},
	{
		"rt": 2491,
		"stimulus": "../audio/11-5-masc.mp3",
		"response": " ",
		"word": "aritmética",
		"trial_type": "audio-keyboard-response",
		"trial_index": 310,
		"time_elapsed": 739433,
		"internal_node_id": "0.0-3.0-1.251"
	},
	{
		"rt": 829,
		"stimulus": "../audio/11-6-masc.mp3",
		"response": " ",
		"word": "e",
		"trial_type": "audio-keyboard-response",
		"trial_index": 311,
		"time_elapsed": 740536,
		"internal_node_id": "0.0-3.0-1.252"
	},
	{
		"rt": 1051,
		"stimulus": "../audio/11-7-masc.mp3",
		"response": " ",
		"word": "de",
		"trial_type": "audio-keyboard-response",
		"trial_index": 312,
		"time_elapsed": 741865,
		"internal_node_id": "0.0-3.0-1.253"
	},
	{
		"rt": 2208,
		"stimulus": "../audio/11-8-masc.mp3",
		"response": " ",
		"word": "leitura.",
		"trial_type": "audio-keyboard-response",
		"trial_index": 313,
		"time_elapsed": 744361,
		"internal_node_id": "0.0-3.0-1.254"
	},
	{
		"rt": null,
		"stimulus": "<span style= \"font-size:30px; font-family: monospace\">+</span>",
		"response": null,
		"trial_part": "fixation",
		"trial_type": "html-keyboard-response",
		"trial_index": 314,
		"time_elapsed": 745634,
		"internal_node_id": "0.0-3.0-0.255-0.255"
	},
	{
		"rt": 941,
		"stimulus": "../audio/13-1-masc.mp3",
		"response": " ",
		"word": "Para",
		"trial_type": "audio-keyboard-response",
		"trial_index": 315,
		"time_elapsed": 746856,
		"internal_node_id": "0.0-3.0-1.255"
	},
	{
		"rt": 1011,
		"stimulus": "../audio/13-2-masc.mp3",
		"response": " ",
		"word": "mim",
		"trial_type": "audio-keyboard-response",
		"trial_index": 316,
		"time_elapsed": 748137,
		"internal_node_id": "0.0-3.0-1.256"
	},
	{
		"rt": 1040,
		"stimulus": "../audio/13-3-masc.mp3",
		"response": " ",
		"word": "é",
		"trial_type": "audio-keyboard-response",
		"trial_index": 317,
		"time_elapsed": 749465,
		"internal_node_id": "0.0-3.0-1.257"
	},
	{
		"rt": 1189,
		"stimulus": "../audio/13-4-masc.mp3",
		"response": " ",
		"word": "muito",
		"trial_type": "audio-keyboard-response",
		"trial_index": 318,
		"time_elapsed": 750937,
		"internal_node_id": "0.0-3.0-1.258"
	},
	{
		"rt": 1411,
		"stimulus": "../audio/13-5-masc.mp3",
		"response": " ",
		"word": "difícil",
		"trial_type": "audio-keyboard-response",
		"trial_index": 319,
		"time_elapsed": 752633,
		"internal_node_id": "0.0-3.0-1.259"
	},
	{
		"rt": 1240,
		"stimulus": "../audio/13-6-masc.mp3",
		"response": " ",
		"word": "acordar",
		"trial_type": "audio-keyboard-response",
		"trial_index": 320,
		"time_elapsed": 754136,
		"internal_node_id": "0.0-3.0-1.260"
	},
	{
		"rt": 1851,
		"stimulus": "../audio/13-7-masc.mp3",
		"response": " ",
		"word": "cedo.",
		"trial_type": "audio-keyboard-response",
		"trial_index": 321,
		"time_elapsed": 756265,
		"internal_node_id": "0.0-3.0-1.261"
	},
	{
		"rt": null,
		"stimulus": "<span style= \"font-size:30px; font-family: monospace\">+</span>",
		"response": null,
		"trial_part": "fixation",
		"trial_type": "html-keyboard-response",
		"trial_index": 322,
		"time_elapsed": 757532,
		"internal_node_id": "0.0-3.0-0.262-0.262"
	},
	{
		"rt": 901,
		"stimulus": "../audio/15-1-fem.mp3",
		"response": " ",
		"word": "Meu",
		"trial_type": "audio-keyboard-response",
		"trial_index": 323,
		"time_elapsed": 758697,
		"internal_node_id": "0.0-3.0-1.262"
	},
	{
		"rt": 1251,
		"stimulus": "../audio/15-2-fem.mp3",
		"response": " ",
		"word": "primo",
		"trial_type": "audio-keyboard-response",
		"trial_index": 324,
		"time_elapsed": 760217,
		"internal_node_id": "0.0-3.0-1.263"
	},
	{
		"rt": 960,
		"stimulus": "../audio/15-3-fem.mp3",
		"response": " ",
		"word": "é",
		"trial_type": "audio-keyboard-response",
		"trial_index": 325,
		"time_elapsed": 761465,
		"internal_node_id": "0.0-3.0-1.264"
	},
	{
		"rt": 811,
		"stimulus": "../audio/15-4-fem.mp3",
		"response": " ",
		"word": "um",
		"trial_type": "audio-keyboard-response",
		"trial_index": 326,
		"time_elapsed": 762553,
		"internal_node_id": "0.0-3.0-1.265"
	},
	{
		"rt": 1080,
		"stimulus": "../audio/15-5-fem.mp3",
		"response": " ",
		"word": "grande",
		"trial_type": "audio-keyboard-response",
		"trial_index": 327,
		"time_elapsed": 763912,
		"internal_node_id": "0.0-3.0-1.266"
	},
	{
		"rt": 1400,
		"stimulus": "../audio/15-6-fem.mp3",
		"response": " ",
		"word": "vendedor",
		"trial_type": "audio-keyboard-response",
		"trial_index": 328,
		"time_elapsed": 765575,
		"internal_node_id": "0.0-3.0-1.267"
	},
	{
		"rt": 931,
		"stimulus": "../audio/15-7-fem.mp3",
		"response": " ",
		"word": "de",
		"trial_type": "audio-keyboard-response",
		"trial_index": 329,
		"time_elapsed": 766791,
		"internal_node_id": "0.0-3.0-1.268"
	},
	{
		"rt": 1360,
		"stimulus": "../audio/15-8-fem.mp3",
		"response": " ",
		"word": "carros.",
		"trial_type": "audio-keyboard-response",
		"trial_index": 330,
		"time_elapsed": 768423,
		"internal_node_id": "0.0-3.0-1.269"
	},
	{
		"rt": 28460,
		"stimulus": "<span style=\"font-size:25px; font-family: monospace\">O primo é um vendedor de carros?</span>",
		"response": "s",
		"question": "O primo é um vendedor de carros?",
		"answer": "null",
		"trial": "exp-sent",
		"trial_type": "html-keyboard-response",
		"trial_index": 331,
		"time_elapsed": 797144,
		"internal_node_id": "0.0-3.0-2.269-0.269",
		"accuracy": false
	},
	{
		"rt": null,
		"stimulus": "<span style= \"font-size:30px; font-family: monospace\">+</span>",
		"response": null,
		"trial_part": "fixation",
		"trial_type": "html-keyboard-response",
		"trial_index": 332,
		"time_elapsed": 798654,
		"internal_node_id": "0.0-3.0-0.270-0.270"
	},
	{
		"rt": 2061,
		"stimulus": "../audio/01-1-masc.mp3",
		"response": " ",
		"word": "O",
		"trial_type": "audio-keyboard-response",
		"trial_index": 333,
		"time_elapsed": 800967,
		"internal_node_id": "0.0-3.0-1.270"
	},
	{
		"rt": 2221,
		"stimulus": "../audio/01-2-masc.mp3",
		"response": " ",
		"word": "menino",
		"trial_type": "audio-keyboard-response",
		"trial_index": 334,
		"time_elapsed": 803479,
		"internal_node_id": "0.0-3.0-1.271"
	},
	{
		"rt": 1901,
		"stimulus": "../audio/01-3-masc.mp3",
		"response": " ",
		"word": "derrubou",
		"trial_type": "audio-keyboard-response",
		"trial_index": 335,
		"time_elapsed": 805687,
		"internal_node_id": "0.0-3.0-1.272"
	},
	{
		"rt": 1179,
		"stimulus": "../audio/01-4-masc.mp3",
		"response": " ",
		"word": "a",
		"trial_type": "audio-keyboard-response",
		"trial_index": 336,
		"time_elapsed": 807144,
		"internal_node_id": "0.0-3.0-1.273"
	},
	{
		"rt": 1600,
		"stimulus": "../audio/01-5-masc.mp3",
		"response": " ",
		"word": "guitarra",
		"trial_type": "audio-keyboard-response",
		"trial_index": 337,
		"time_elapsed": 809031,
		"internal_node_id": "0.0-3.0-1.274"
	},
	{
		"rt": 931,
		"stimulus": "../audio/01-6-masc.mp3",
		"response": " ",
		"word": "no",
		"trial_type": "audio-keyboard-response",
		"trial_index": 338,
		"time_elapsed": 810231,
		"internal_node_id": "0.0-3.0-1.275"
	},
	{
		"rt": 1080,
		"stimulus": "../audio/01-7-masc.mp3",
		"response": " ",
		"word": "chão.",
		"trial_type": "audio-keyboard-response",
		"trial_index": 339,
		"time_elapsed": 811575,
		"internal_node_id": "0.0-3.0-1.276"
	},
	{
		"rt": null,
		"stimulus": "<span style= \"font-size:30px; font-family: monospace\">+</span>",
		"response": null,
		"trial_part": "fixation",
		"trial_type": "html-keyboard-response",
		"trial_index": 340,
		"time_elapsed": 812863,
		"internal_node_id": "0.0-3.0-0.277-0.277"
	},
	{
		"rt": 1400,
		"stimulus": "../audio/04-1-masc.mp3",
		"response": " ",
		"word": "Duzentos",
		"trial_type": "audio-keyboard-response",
		"trial_index": 341,
		"time_elapsed": 814535,
		"internal_node_id": "0.0-3.0-1.277"
	},
	{
		"rt": 1019,
		"stimulus": "../audio/04-2-masc.mp3",
		"response": " ",
		"word": "carros",
		"trial_type": "audio-keyboard-response",
		"trial_index": 342,
		"time_elapsed": 815831,
		"internal_node_id": "0.0-3.0-1.278"
	},
	{
		"rt": 1101,
		"stimulus": "../audio/04-3-masc.mp3",
		"response": " ",
		"word": "passaram",
		"trial_type": "audio-keyboard-response",
		"trial_index": 343,
		"time_elapsed": 817207,
		"internal_node_id": "0.0-3.0-1.279"
	},
	{
		"rt": 979,
		"stimulus": "../audio/04-4-masc.mp3",
		"response": " ",
		"word": "pela",
		"trial_type": "audio-keyboard-response",
		"trial_index": 344,
		"time_elapsed": 818455,
		"internal_node_id": "0.0-3.0-1.280"
	},
	{
		"rt": 1019,
		"stimulus": "../audio/04-5-masc.mp3",
		"response": " ",
		"word": "ponte",
		"trial_type": "audio-keyboard-response",
		"trial_index": 345,
		"time_elapsed": 819735,
		"internal_node_id": "0.0-3.0-1.281"
	},
	{
		"rt": 1011,
		"stimulus": "../audio/04-6-masc.mp3",
		"response": " ",
		"word": "hoje",
		"trial_type": "audio-keyboard-response",
		"trial_index": 346,
		"time_elapsed": 821031,
		"internal_node_id": "0.0-3.0-1.282"
	},
	{
		"rt": 829,
		"stimulus": "../audio/04-7-masc.mp3",
		"response": " ",
		"word": "de",
		"trial_type": "audio-keyboard-response",
		"trial_index": 347,
		"time_elapsed": 822135,
		"internal_node_id": "0.0-3.0-1.283"
	},
	{
		"rt": 1568,
		"stimulus": "../audio/04-8-masc.mp3",
		"response": " ",
		"word": "tarde.",
		"trial_type": "audio-keyboard-response",
		"trial_index": 348,
		"time_elapsed": 823975,
		"internal_node_id": "0.0-3.0-1.284"
	},
	{
		"rt": null,
		"stimulus": "<span style= \"font-size:30px; font-family: monospace\">+</span>",
		"response": null,
		"trial_part": "fixation",
		"trial_type": "html-keyboard-response",
		"trial_index": 349,
		"time_elapsed": 825262,
		"internal_node_id": "0.0-3.0-0.285-0.285"
	},
	{
		"rt": 792,
		"stimulus": "../audio/03-1-masc.mp3",
		"response": " ",
		"word": "O",
		"trial_type": "audio-keyboard-response",
		"trial_index": 350,
		"time_elapsed": 826325,
		"internal_node_id": "0.0-3.0-1.285"
	},
	{
		"rt": 1149,
		"stimulus": "../audio/03-2-masc.mp3",
		"response": " ",
		"word": "coelho",
		"trial_type": "audio-keyboard-response",
		"trial_index": 351,
		"time_elapsed": 827749,
		"internal_node_id": "0.0-3.0-1.286"
	},
	{
		"rt": 861,
		"stimulus": "../audio/03-3-masc.mp3",
		"response": " ",
		"word": "foi",
		"trial_type": "audio-keyboard-response",
		"trial_index": 352,
		"time_elapsed": 828884,
		"internal_node_id": "0.0-3.0-1.287"
	},
	{
		"rt": 979,
		"stimulus": "../audio/03-4-masc.mp3",
		"response": " ",
		"word": "bastante",
		"trial_type": "audio-keyboard-response",
		"trial_index": 353,
		"time_elapsed": 830132,
		"internal_node_id": "0.0-3.0-1.288"
	},
	{
		"rt": 1352,
		"stimulus": "../audio/03-5-masc.mp3",
		"response": " ",
		"word": "dócil",
		"trial_type": "audio-keyboard-response",
		"trial_index": 354,
		"time_elapsed": 831764,
		"internal_node_id": "0.0-3.0-1.289"
	},
	{
		"rt": 829,
		"stimulus": "../audio/03-6-masc.mp3",
		"response": " ",
		"word": "com",
		"trial_type": "audio-keyboard-response",
		"trial_index": 355,
		"time_elapsed": 832868,
		"internal_node_id": "0.0-3.0-1.290"
	},
	{
		"rt": 909,
		"stimulus": "../audio/03-7-masc.mp3",
		"response": " ",
		"word": "as",
		"trial_type": "audio-keyboard-response",
		"trial_index": 356,
		"time_elapsed": 834068,
		"internal_node_id": "0.0-3.0-1.291"
	},
	{
		"rt": 1709,
		"stimulus": "../audio/03-8-masc.mp3",
		"response": " ",
		"word": "crianças.",
		"trial_type": "audio-keyboard-response",
		"trial_index": 357,
		"time_elapsed": 836052,
		"internal_node_id": "0.0-3.0-1.292"
	},
	{
		"rt": null,
		"stimulus": "<span style= \"font-size:30px; font-family: monospace\">+</span>",
		"response": null,
		"trial_part": "fixation",
		"trial_type": "html-keyboard-response",
		"trial_index": 358,
		"time_elapsed": 837310,
		"internal_node_id": "0.0-3.0-0.293-0.293"
	},
	{
		"rt": 760,
		"stimulus": "../audio/02-2-fem.mp3",
		"response": " ",
		"word": "Havia",
		"trial_type": "audio-keyboard-response",
		"trial_index": 359,
		"time_elapsed": 838340,
		"internal_node_id": "0.0-3.0-1.293"
	},
	{
		"rt": 1029,
		"stimulus": "../audio/02-2-fem.mp3",
		"response": " ",
		"word": "um",
		"trial_type": "audio-keyboard-response",
		"trial_index": 360,
		"time_elapsed": 839620,
		"internal_node_id": "0.0-3.0-1.294"
	},
	{
		"rt": 960,
		"stimulus": "../audio/02-3-fem.mp3",
		"response": " ",
		"word": "cheiro",
		"trial_type": "audio-keyboard-response",
		"trial_index": 361,
		"time_elapsed": 840852,
		"internal_node_id": "0.0-3.0-1.295"
	},
	{
		"rt": 771,
		"stimulus": "../audio/02-4-fem.mp3",
		"response": " ",
		"word": "de",
		"trial_type": "audio-keyboard-response",
		"trial_index": 362,
		"time_elapsed": 841908,
		"internal_node_id": "0.0-3.0-1.296"
	},
	{
		"rt": 1371,
		"stimulus": "../audio/02-5-fem.mp3",
		"response": " ",
		"word": "gasolina",
		"trial_type": "audio-keyboard-response",
		"trial_index": 363,
		"time_elapsed": 843540,
		"internal_node_id": "0.0-3.0-1.297"
	},
	{
		"rt": 832,
		"stimulus": "../audio/02-6-fem.mp3",
		"response": " ",
		"word": "na",
		"trial_type": "audio-keyboard-response",
		"trial_index": 364,
		"time_elapsed": 844644,
		"internal_node_id": "0.0-3.0-1.298"
	},
	{
		"rt": 1240,
		"stimulus": "../audio/02-7-fem.mp3",
		"response": " ",
		"word": "garagem.",
		"trial_type": "audio-keyboard-response",
		"trial_index": 365,
		"time_elapsed": 846165,
		"internal_node_id": "0.0-3.0-1.299"
	},
	{
		"rt": null,
		"stimulus": "<span style= \"font-size:30px; font-family: monospace\">+</span>",
		"response": null,
		"trial_part": "fixation",
		"trial_type": "html-keyboard-response",
		"trial_index": 366,
		"time_elapsed": 847439,
		"internal_node_id": "0.0-3.0-0.300-0.300"
	},
	{
		"rt": 819,
		"stimulus": "../audio/05-1-masc.mp3",
		"response": " ",
		"word": "A",
		"trial_type": "audio-keyboard-response",
		"trial_index": 367,
		"time_elapsed": 848533,
		"internal_node_id": "0.0-3.0-1.300"
	},
	{
		"rt": 1120,
		"stimulus": "../audio/05-2-masc.mp3",
		"response": " ",
		"word": "vendedora",
		"trial_type": "audio-keyboard-response",
		"trial_index": 368,
		"time_elapsed": 849941,
		"internal_node_id": "0.0-3.0-1.301"
	},
	{
		"rt": 992,
		"stimulus": "../audio/05-3-masc.mp3",
		"response": " ",
		"word": "ajudou",
		"trial_type": "audio-keyboard-response",
		"trial_index": 369,
		"time_elapsed": 851204,
		"internal_node_id": "0.0-3.0-1.302"
	},
	{
		"rt": 760,
		"stimulus": "../audio/05-4-masc.mp3",
		"response": " ",
		"word": "um",
		"trial_type": "audio-keyboard-response",
		"trial_index": 370,
		"time_elapsed": 852245,
		"internal_node_id": "0.0-3.0-1.303"
	},
	{
		"rt": 1000,
		"stimulus": "../audio/05-5-masc.mp3",
		"response": " ",
		"word": "turista",
		"trial_type": "audio-keyboard-response",
		"trial_index": 371,
		"time_elapsed": 853524,
		"internal_node_id": "0.0-3.0-1.304"
	},
	{
		"rt": 880,
		"stimulus": "../audio/05-6-masc.mp3",
		"response": " ",
		"word": "na",
		"trial_type": "audio-keyboard-response",
		"trial_index": 372,
		"time_elapsed": 854676,
		"internal_node_id": "0.0-3.0-1.305"
	},
	{
		"rt": 1029,
		"stimulus": "../audio/05-7-masc.mp3",
		"response": " ",
		"word": "loja.",
		"trial_type": "audio-keyboard-response",
		"trial_index": 373,
		"time_elapsed": 855989,
		"internal_node_id": "0.0-3.0-1.306"
	},
	{
		"rt": 6485,
		"stimulus": "<span style=\"font-size:25px; font-family: monospace\">A vendedora ajudou um turista?</span>",
		"response": "s",
		"question": "A vendedora ajudou um turista?",
		"answer": "null",
		"trial": "exp-sent",
		"trial_type": "html-keyboard-response",
		"trial_index": 374,
		"time_elapsed": 862725,
		"internal_node_id": "0.0-3.0-2.306-0.306",
		"accuracy": false
	},
	{
		"rt": null,
		"stimulus": "<span style= \"font-size:30px; font-family: monospace\">+</span>",
		"response": null,
		"trial_part": "fixation",
		"trial_type": "html-keyboard-response",
		"trial_index": 375,
		"time_elapsed": 864249,
		"internal_node_id": "0.0-3.0-0.307-0.307"
	},
	{
		"rt": 1461,
		"stimulus": "../audio/48-1-fem.mp3",
		"response": " ",
		"word": "Ela",
		"trial_type": "audio-keyboard-response",
		"trial_index": 376,
		"time_elapsed": 866004,
		"internal_node_id": "0.0-3.0-1.307"
	},
	{
		"rt": 2211,
		"stimulus": "../audio/48-2-fem.mp3",
		"response": " ",
		"word": "come",
		"trial_type": "audio-keyboard-response",
		"trial_index": 377,
		"time_elapsed": 868484,
		"internal_node_id": "0.0-3.0-1.308"
	},
	{
		"rt": 1501,
		"stimulus": "../audio/48-3-fem.mp3",
		"response": " ",
		"word": "feijão",
		"trial_type": "audio-keyboard-response",
		"trial_index": 378,
		"time_elapsed": 870277,
		"internal_node_id": "0.0-3.0-1.309"
	},
	{
		"rt": 920,
		"stimulus": "../audio/48-4-fem.mp3",
		"response": " ",
		"word": "com",
		"trial_type": "audio-keyboard-response",
		"trial_index": 379,
		"time_elapsed": 871508,
		"internal_node_id": "0.0-3.0-1.310"
	},
	{
		"rt": 1491,
		"stimulus": "../audio/48-5-fem.mp3",
		"response": " ",
		"word": "arroz",
		"trial_type": "audio-keyboard-response",
		"trial_index": 380,
		"time_elapsed": 873269,
		"internal_node_id": "0.0-3.0-1.311"
	},
	{
		"rt": 1451,
		"stimulus": "../audio/48-6-fem.mp3",
		"response": " ",
		"word": "todos",
		"trial_type": "audio-keyboard-response",
		"trial_index": 381,
		"time_elapsed": 874980,
		"internal_node_id": "0.0-3.0-1.312"
	},
	{
		"rt": 920,
		"stimulus": "../audio/48-7-fem.mp3",
		"response": " ",
		"word": "os",
		"trial_type": "audio-keyboard-response",
		"trial_index": 382,
		"time_elapsed": 876180,
		"internal_node_id": "0.0-3.0-1.313"
	},
	{
		"rt": 7491,
		"stimulus": "../audio/48-8-fem.mp3",
		"response": " ",
		"word": "dias.",
		"trial_type": "audio-keyboard-response",
		"trial_index": 383,
		"time_elapsed": 883957,
		"internal_node_id": "0.0-3.0-1.314"
	},
	{
		"rt": null,
		"stimulus": "<span style= \"font-size:30px; font-family: monospace\">+</span>",
		"response": null,
		"trial_part": "fixation",
		"trial_type": "html-keyboard-response",
		"trial_index": 384,
		"time_elapsed": 885229,
		"internal_node_id": "0.0-3.0-0.315-0.315"
	},
	{
		"rt": 939,
		"stimulus": "../audio/49-1-fem.mp3",
		"response": " ",
		"word": "Eu",
		"trial_type": "audio-keyboard-response",
		"trial_index": 385,
		"time_elapsed": 886454,
		"internal_node_id": "0.0-3.0-1.315"
	},
	{
		"rt": 920,
		"stimulus": "../audio/49-2-fem.mp3",
		"response": " ",
		"word": "quero",
		"trial_type": "audio-keyboard-response",
		"trial_index": 386,
		"time_elapsed": 887654,
		"internal_node_id": "0.0-3.0-1.316"
	},
	{
		"rt": 811,
		"stimulus": "../audio/49-3-fem.mp3",
		"response": " ",
		"word": "um",
		"trial_type": "audio-keyboard-response",
		"trial_index": 387,
		"time_elapsed": 888742,
		"internal_node_id": "0.0-3.0-1.317"
	},
	{
		"rt": 1251,
		"stimulus": "../audio/49-4-fem.mp3",
		"response": " ",
		"word": "lanche",
		"trial_type": "audio-keyboard-response",
		"trial_index": 388,
		"time_elapsed": 890262,
		"internal_node_id": "0.0-3.0-1.318"
	},
	{
		"rt": 800,
		"stimulus": "../audio/49-5-fem.mp3",
		"response": " ",
		"word": "duplo",
		"trial_type": "audio-keyboard-response",
		"trial_index": 389,
		"time_elapsed": 891350,
		"internal_node_id": "0.0-3.0-1.319"
	},
	{
		"rt": 909,
		"stimulus": "../audio/49-6-fem.mp3",
		"response": " ",
		"word": "e",
		"trial_type": "audio-keyboard-response",
		"trial_index": 390,
		"time_elapsed": 892533,
		"internal_node_id": "0.0-3.0-1.320"
	},
	{
		"rt": 848,
		"stimulus": "../audio/49-7-fem.mp3",
		"response": " ",
		"word": "um",
		"trial_type": "audio-keyboard-response",
		"trial_index": 391,
		"time_elapsed": 893653,
		"internal_node_id": "0.0-3.0-1.321"
	},
	{
		"rt": 1099,
		"stimulus": "../audio/49-8-fem.mp3",
		"response": " ",
		"word": "suco.",
		"trial_type": "audio-keyboard-response",
		"trial_index": 392,
		"time_elapsed": 895029,
		"internal_node_id": "0.0-3.0-1.322"
	},
	{
		"rt": null,
		"stimulus": "<span style= \"font-size:30px; font-family: monospace\">+</span>",
		"response": null,
		"trial_part": "fixation",
		"trial_type": "html-keyboard-response",
		"trial_index": 393,
		"time_elapsed": 896300,
		"internal_node_id": "0.0-3.0-0.323-0.323"
	},
	{
		"rt": 760,
		"stimulus": "../audio/47-1-fem.mp3",
		"response": " ",
		"word": "O",
		"trial_type": "audio-keyboard-response",
		"trial_index": 394,
		"time_elapsed": 897333,
		"internal_node_id": "0.0-3.0-1.323"
	},
	{
		"rt": 1112,
		"stimulus": "../audio/47-2-fem.mp3",
		"response": " ",
		"word": "tio",
		"trial_type": "audio-keyboard-response",
		"trial_index": 395,
		"time_elapsed": 898726,
		"internal_node_id": "0.0-3.0-1.324"
	},
	{
		"rt": 1371,
		"stimulus": "../audio/47-3-fem.mp3",
		"response": " ",
		"word": "recusou",
		"trial_type": "audio-keyboard-response",
		"trial_index": 396,
		"time_elapsed": 900358,
		"internal_node_id": "0.0-3.0-1.325"
	},
	{
		"rt": 1589,
		"stimulus": "../audio/47-4-fem.mp3",
		"response": " ",
		"word": "a",
		"trial_type": "audio-keyboard-response",
		"trial_index": 397,
		"time_elapsed": 902213,
		"internal_node_id": "0.0-3.0-1.326"
	},
	{
		"rt": 2488,
		"stimulus": "../audio/47-5-fem.mp3",
		"response": " ",
		"word": "sobremesa",
		"trial_type": "audio-keyboard-response",
		"trial_index": 398,
		"time_elapsed": 904981,
		"internal_node_id": "0.0-3.0-1.327"
	},
	{
		"rt": 861,
		"stimulus": "../audio/47-6-fem.mp3",
		"response": " ",
		"word": "no",
		"trial_type": "audio-keyboard-response",
		"trial_index": 399,
		"time_elapsed": 906117,
		"internal_node_id": "0.0-3.0-1.328"
	},
	{
		"rt": 2200,
		"stimulus": "../audio/47-7-fem.mp3",
		"response": " ",
		"word": "almoço.",
		"trial_type": "audio-keyboard-response",
		"trial_index": 400,
		"time_elapsed": 908598,
		"internal_node_id": "0.0-3.0-1.329"
	},
	{
		"rt": null,
		"stimulus": "<span style= \"font-size:30px; font-family: monospace\">+</span>",
		"response": null,
		"trial_part": "fixation",
		"trial_type": "html-keyboard-response",
		"trial_index": 401,
		"time_elapsed": 909861,
		"internal_node_id": "0.0-3.0-0.330-0.330"
	},
	{
		"rt": 3520,
		"stimulus": "../audio/46-1-masc.mp3",
		"response": " ",
		"word": "Meu",
		"trial_type": "audio-keyboard-response",
		"trial_index": 402,
		"time_elapsed": 913653,
		"internal_node_id": "0.0-3.0-1.330"
	},
	{
		"rt": 1461,
		"stimulus": "../audio/46-2-masc.mp3",
		"response": " ",
		"word": "primo",
		"trial_type": "audio-keyboard-response",
		"trial_index": 403,
		"time_elapsed": 915398,
		"internal_node_id": "0.0-3.0-1.331"
	},
	{
		"rt": 2421,
		"stimulus": "../audio/46-3-masc.mp3",
		"response": " ",
		"word": "estava",
		"trial_type": "audio-keyboard-response",
		"trial_index": 404,
		"time_elapsed": 918118,
		"internal_node_id": "0.0-3.0-1.332"
	},
	{
		"rt": 1179,
		"stimulus": "../audio/46-4-masc.mp3",
		"response": " ",
		"word": "muito",
		"trial_type": "audio-keyboard-response",
		"trial_index": 405,
		"time_elapsed": 919574,
		"internal_node_id": "0.0-3.0-1.333"
	},
	{
		"rt": 2392,
		"stimulus": "../audio/46-5-masc.mp3",
		"response": " ",
		"word": "deprimido",
		"trial_type": "audio-keyboard-response",
		"trial_index": 406,
		"time_elapsed": 922246,
		"internal_node_id": "0.0-3.0-1.334"
	},
	{
		"rt": 829,
		"stimulus": "../audio/46-6-masc.mp3",
		"response": " ",
		"word": "no",
		"trial_type": "audio-keyboard-response",
		"trial_index": 407,
		"time_elapsed": 923350,
		"internal_node_id": "0.0-3.0-1.335"
	},
	{
		"rt": 16768,
		"stimulus": "../audio/46-7-masc.mp3",
		"response": " ",
		"word": "inverno.",
		"trial_type": "audio-keyboard-response",
		"trial_index": 408,
		"time_elapsed": 940422,
		"internal_node_id": "0.0-3.0-1.336"
	},
	{
		"rt": null,
		"stimulus": "<span style= \"font-size:30px; font-family: monospace\">+</span>",
		"response": null,
		"trial_part": "fixation",
		"trial_type": "html-keyboard-response",
		"trial_index": 409,
		"time_elapsed": 941700,
		"internal_node_id": "0.0-3.0-0.337-0.337"
	},
	{
		"rt": 789,
		"stimulus": "../audio/50-1-masc.mp3",
		"response": " ",
		"word": "O",
		"trial_type": "audio-keyboard-response",
		"trial_index": 410,
		"time_elapsed": 942773,
		"internal_node_id": "0.0-3.0-1.337"
	},
	{
		"rt": 1091,
		"stimulus": "../audio/50-2-masc.mp3",
		"response": " ",
		"word": "pássaro",
		"trial_type": "audio-keyboard-response",
		"trial_index": 411,
		"time_elapsed": 944149,
		"internal_node_id": "0.0-3.0-1.338"
	},
	{
		"rt": 1069,
		"stimulus": "../audio/50-3-masc.mp3",
		"response": " ",
		"word": "fugiu",
		"trial_type": "audio-keyboard-response",
		"trial_index": 412,
		"time_elapsed": 945493,
		"internal_node_id": "0.0-3.0-1.339"
	},
	{
		"rt": 779,
		"stimulus": "../audio/50-4-masc.mp3",
		"response": " ",
		"word": "da",
		"trial_type": "audio-keyboard-response",
		"trial_index": 413,
		"time_elapsed": 946543,
		"internal_node_id": "0.0-3.0-1.340"
	},
	{
		"rt": 1160,
		"stimulus": "../audio/50-5-masc.mp3",
		"response": " ",
		"word": "gaiola",
		"trial_type": "audio-keyboard-response",
		"trial_index": 414,
		"time_elapsed": 947983,
		"internal_node_id": "0.0-3.0-1.341"
	},
	{
		"rt": 800,
		"stimulus": "../audio/50-6-masc.mp3",
		"response": " ",
		"word": "pela",
		"trial_type": "audio-keyboard-response",
		"trial_index": 415,
		"time_elapsed": 949056,
		"internal_node_id": "0.0-3.0-1.342"
	},
	{
		"rt": 1232,
		"stimulus": "../audio/50-7-masc.mp3",
		"response": " ",
		"word": "portinhola.",
		"trial_type": "audio-keyboard-response",
		"trial_index": 416,
		"time_elapsed": 950560,
		"internal_node_id": "0.0-3.0-1.343"
	},
	{
		"rt": 30688,
		"stimulus": "<span style=\"font-size:25px; font-family: monospace\">O pássaro fugiu da gaiola?</span>",
		"response": "n",
		"question": "O pássaro fugiu da gaiola?",
		"answer": "null",
		"trial": "exp-sent",
		"trial_type": "html-keyboard-response",
		"trial_index": 417,
		"time_elapsed": 981504,
		"internal_node_id": "0.0-3.0-2.343-0.343",
		"accuracy": false
	},
	{
		"rt": null,
		"stimulus": "<span style= \"font-size:30px; font-family: monospace\">+</span>",
		"response": null,
		"trial_part": "fixation",
		"trial_type": "html-keyboard-response",
		"trial_index": 418,
		"time_elapsed": 983006,
		"internal_node_id": "0.0-3.0-0.344-0.344"
	},
	{
		"rt": 1560,
		"stimulus": "../audio/58-1-masc.mp3",
		"response": " ",
		"word": "Havia",
		"trial_type": "audio-keyboard-response",
		"trial_index": 419,
		"time_elapsed": 984815,
		"internal_node_id": "0.0-3.0-1.344"
	},
	{
		"rt": 1480,
		"stimulus": "../audio/58-2-masc.mp3",
		"response": " ",
		"word": "apenas",
		"trial_type": "audio-keyboard-response",
		"trial_index": 420,
		"time_elapsed": 986575,
		"internal_node_id": "0.0-3.0-1.345"
	},
	{
		"rt": 1000,
		"stimulus": "../audio/58-3-masc.mp3",
		"response": " ",
		"word": "um",
		"trial_type": "audio-keyboard-response",
