"view_history","rt","trial_type","trial_index","time_elapsed","internal_node_id","stimulus","response","trial_part","word","question","answer","trial","accuracy"
"[{""page_index"":0,""viewing_time"":3052},{""page_index"":1,""viewing_time"":2977}]","6029","instructions","0","6030","0.0-0.0","","","","","","","",""
"","null","html-keyboard-response","1","7156","0.0-1.0-0.0-0.0","<span style= ""font-size:30px; font-family: monospace"">+</span>","null","fixation","","","","",""
"","9949","audio-keyboard-response","2","17709","0.0-1.0-1.0","../audio/prac-question-1-1.mp3"," ","","O","","","",""
"","1619","audio-keyboard-response","3","19597","0.0-1.0-1.1","../audio/prac-question-1-2.mp3"," ","","dia","","","",""
"","1429","audio-keyboard-response","4","21292","0.0-1.0-1.2","../audio/prac-question-1-3.mp3"," ","","estará","","","",""
"","829","audio-keyboard-response","5","22396","0.0-1.0-1.3","../audio/prac-question-1-4.mp3"," ","","cheio","","","",""
"","979","audio-keyboard-response","6","23628","0.0-1.0-1.4","../audio/prac-question-1-5.mp3"," ","","de","","","",""
"","1069","audio-keyboard-response","7","24957","0.0-1.0-1.5","../audio/prac-question-1-6.mp3"," ","","nuvens","","","",""
"","1008","audio-keyboard-response","8","26237","0.0-1.0-1.6","../audio/prac-question-1-7.mp3"," ","","hoje.","","","",""
"","null","html-keyboard-response","9","27512","0.0-1.0-0.7-0.7","<span style= ""font-size:30px; font-family: monospace"">+</span>","null","fixation","","","","",""
"","1048","audio-keyboard-response","10","28829","0.0-1.0-1.7","../audio/prac-question-2-1.mp3"," ","","A","","","",""
"","1179","audio-keyboard-response","11","30268","0.0-1.0-1.8","../audio/prac-question-2-2.mp3"," ","","caneca","","","",""
"","1069","audio-keyboard-response","12","31596","0.0-1.0-1.9","../audio/prac-question-2-3.mp3"," ","","colorida","","","",""
"","1008","audio-keyboard-response","13","32877","0.0-1.0-1.10","../audio/prac-question-2-4.mp3"," ","","caiu","","","",""
"","909","audio-keyboard-response","14","34045","0.0-1.0-1.11","../audio/prac-question-2-5.mp3"," ","","da","","","",""
"","931","audio-keyboard-response","15","35244","0.0-1.0-1.12","../audio/prac-question-2-6.mp3"," ","","mesa","","","",""
"","712","audio-keyboard-response","16","36220","0.0-1.0-1.13","../audio/prac-question-2-7.mp3"," ","","de","","","",""
"","1091","audio-keyboard-response","17","37564","0.0-1.0-1.14","../audio/prac-question-2-8.mp3"," ","","jantar.","","","",""
"","6549","html-keyboard-response","18","44364","0.0-1.0-2.14-0.14","<span style=""font-size:25px; font-family: monospace"">A caneca era colorida?</span>","s","","","A caneca era colorida?","null","prac-sent","false"
"[{""page_index"":0,""viewing_time"":12372}]","12372","instructions","19","57252","0.0-2.0","","","","","","","",""
"","null","html-keyboard-response","20","58361","0.0-3.0-0.0-0.0","<span style= ""font-size:30px; font-family: monospace"">+</span>","null","fixation","","","","",""
"","2840","audio-keyboard-response","21","61483","0.0-3.0-1.0","../audio/77-1-fem.mp3"," ","","A","","","",""
"","1360","audio-keyboard-response","22","63147","0.0-3.0-1.1","../audio/77-2-fem.mp3"," ","","criança","","","",""
"","1088","audio-keyboard-response","23","64508","0.0-3.0-1.2","../audio/77-3-fem.mp3"," ","","ficou","","","",""
"","2080","audio-keyboard-response","24","66907","0.0-3.0-1.3","../audio/77-4-fem.mp3"," ","","muito","","","",""
"","1051","audio-keyboard-response","25","68252","0.0-3.0-1.4","../audio/77-5-fem.mp3"," ","","feliz","","","",""
"","779","audio-keyboard-response","26","69308","0.0-3.0-1.5","../audio/77-6-fem.mp3"," ","","com","","","",""
"","880","audio-keyboard-response","27","70459","0.0-3.0-1.6","../audio/77-7-fem.mp3"," ","","o","","","",""
"","1021","audio-keyboard-response","28","71772","0.0-3.0-1.7","../audio/77-8-fem.mp3"," ","","brinquedo.","","","",""
"","null","html-keyboard-response","29","73044","0.0-3.0-0.8-0.8","<span style= ""font-size:30px; font-family: monospace"">+</span>","null","fixation","","","","",""
"","1000","audio-keyboard-response","30","74347","0.0-3.0-1.8","../audio/78-1-masc.mp3"," ","","Eles","","","",""
"","840","audio-keyboard-response","31","75467","0.0-3.0-1.9","../audio/78-2-masc.mp3"," ","","trazem","","","",""
"","861","audio-keyboard-response","32","76619","0.0-3.0-1.10","../audio/78-3-masc.mp3"," ","","um","","","",""
"","1059","audio-keyboard-response","33","77963","0.0-3.0-1.11","../audio/78-4-masc.mp3"," ","","fato","","","",""
"","2029","audio-keyboard-response","34","80284","0.0-3.0-1.12","../audio/78-5-masc.mp3"," ","","urgente","","","",""
"","1139","audio-keyboard-response","35","81723","0.0-3.0-1.13","../audio/78-6-masc.mp3"," ","","todos","","","",""
"","1219","audio-keyboard-response","36","83227","0.0-3.0-1.14","../audio/78-7-masc.mp3"," ","","os","","","",""
"","3800","audio-keyboard-response","37","87340","0.0-3.0-1.15","../audio/78-8-masc.mp3"," ","","dias.","","","",""
"","null","html-keyboard-response","38","88616","0.0-3.0-0.16-0.16","<span style= ""font-size:30px; font-family: monospace"">+</span>","null","fixation","","","","",""
"","1619","audio-keyboard-response","39","90555","0.0-3.0-1.16","../audio/76-1-masc.mp3"," ","","O","","","",""
"","15768","audio-keyboard-response","40","106636","0.0-3.0-1.17","../audio/76-2-masc.mp3"," ","","bisavô","","","",""
"","1411","audio-keyboard-response","41","108332","0.0-3.0-1.18","../audio/76-3-masc.mp3"," ","","comprou","","","",""
"","1080","audio-keyboard-response","42","109692","0.0-3.0-1.19","../audio/76-4-masc.mp3"," ","","um","","","",""
"","1459","audio-keyboard-response","43","111484","0.0-3.0-1.20","../audio/76-5-masc.mp3"," ","","ralador","","","",""
"","4280","audio-keyboard-response","44","116027","0.0-3.0-1.21","../audio/76-6-masc.mp3"," ","","de","","","",""
"","1291","audio-keyboard-response","45","117612","0.0-3.0-1.22","../audio/76-7-masc.mp3"," ","","queijo.","","","",""
"","null","html-keyboard-response","46","118869","0.0-3.0-0.23-0.23","<span style= ""font-size:30px; font-family: monospace"">+</span>","null","fixation","","","","",""
"","789","audio-keyboard-response","47","119932","0.0-3.0-1.23","../audio/79-1-fem.mp3"," ","","A","","","",""
"","760","audio-keyboard-response","48","120972","0.0-3.0-1.24","../audio/79-2-fem.mp3"," ","","médica","","","",""
"","811","audio-keyboard-response","49","122060","0.0-3.0-1.25","../audio/79-3-fem.mp3"," ","","verificou","","","",""
"","819","audio-keyboard-response","50","123164","0.0-3.0-1.26","../audio/79-4-fem.mp3"," ","","a","","","",""
"","992","audio-keyboard-response","51","124460","0.0-3.0-1.27","../audio/79-5-fem.mp3"," ","","gengiva","","","",""
"","829","audio-keyboard-response","52","125564","0.0-3.0-1.28","../audio/79-6-fem.mp3"," ","","por","","","",""
"","901","audio-keyboard-response","53","126732","0.0-3.0-1.29","../audio/79-7-fem.mp3"," ","","último.","","","",""
"","null","html-keyboard-response","54","127992","0.0-3.0-0.30-0.30","<span style= ""font-size:30px; font-family: monospace"">+</span>","null","fixation","","","","",""
"","720","audio-keyboard-response","55","129036","0.0-3.0-1.30","../audio/80-1-masc.mp3"," ","","Meu","","","",""
"","752","audio-keyboard-response","56","130060","0.0-3.0-1.31","../audio/80-2-masc.mp3"," ","","primo","","","",""
"","819","audio-keyboard-response","57","131164","0.0-3.0-1.32","../audio/80-3-masc.mp3"," ","","conheceu","","","",""
"","859","audio-keyboard-response","58","132316","0.0-3.0-1.33","../audio/80-4-masc.mp3"," ","","um","","","",""
"","1101","audio-keyboard-response","59","133692","0.0-3.0-1.34","../audio/80-5-masc.mp3"," ","","jovem","","","",""
"","1000","audio-keyboard-response","60","134972","0.0-3.0-1.35","../audio/80-6-masc.mp3"," ","","amável","","","",""
"","680","audio-keyboard-response","61","136012","0.0-3.0-1.36","../audio/80-7-masc.mp3"," ","","e","","","",""
"","760","audio-keyboard-response","62","137052","0.0-3.0-1.37","../audio/80-8-masc.mp3"," ","","confiante.","","","",""
"","12572","html-keyboard-response","63","149884","0.0-3.0-2.37-0.37","<span style=""font-size:25px; font-family: monospace"">O primo conheceu um jovem irritante?</span>","n","","","O primo conheceu um jovem irritante?","null","exp-sent","false"
"","null","html-keyboard-response","64","151398","0.0-3.0-0.38-0.38","<span style= ""font-size:30px; font-family: monospace"">+</span>","null","fixation","","","","",""
"","789","audio-keyboard-response","65","152492","0.0-3.0-1.38","../audio/62-1-fem.mp3"," ","","As","","","",""
"","1139","audio-keyboard-response","66","153915","0.0-3.0-1.39","../audio/62-2-fem.mp3"," ","","artesãs","","","",""
"","1181","audio-keyboard-response","67","155372","0.0-3.0-1.40","../audio/62-3-fem.mp3"," ","","gostam","","","",""
"","3291","audio-keyboard-response","68","158939","0.0-3.0-1.41","../audio/62-4-fem.mp3"," ","","de","","","",""
"","1080","audio-keyboard-response","69","160364","0.0-3.0-1.42","../audio/62-5-fem.mp3"," ","","maquiagem","","","",""
"","1000","audio-keyboard-response","70","161627","0.0-3.0-1.43","../audio/62-6-fem.mp3"," ","","e","","","",""
"","1008","audio-keyboard-response","71","162988","0.0-3.0-1.44","../audio/62-7-fem.mp3"," ","","de","","","",""
"","1352","audio-keyboard-response","72","164619","0.0-3.0-1.45","../audio/62-8-fem.mp3"," ","","crochê.","","","",""
"","null","html-keyboard-response","73","165879","0.0-3.0-0.46-0.46","<span style= ""font-size:30px; font-family: monospace"">+</span>","null","fixation","","","","",""
"","971","audio-keyboard-response","74","167403","0.0-3.0-1.46","../audio/64-1-masc.mp3"," ","","O","","","",""
"","1171","audio-keyboard-response","75","168859","0.0-3.0-1.47","../audio/64-2-masc.mp3"," ","","dia","","","",""
"","1048","audio-keyboard-response","76","170395","0.0-3.0-1.48","../audio/64-3-masc.mp3"," ","","começou","","","",""
"","949","audio-keyboard-response","77","171627","0.0-3.0-1.49","../audio/64-4-masc.mp3"," ","","com","","","",""
"","1181","audio-keyboard-response","78","173179","0.0-3.0-1.50","../audio/64-5-masc.mp3"," ","","garoa","","","",""
"","1240","audio-keyboard-response","79","174699","0.0-3.0-1.51","../audio/64-6-masc.mp3"," ","","gelada","","","",""
"","1011","audio-keyboard-response","80","175979","0.0-3.0-1.52","../audio/64-7-masc.mp3"," ","","e","","","",""
"","1048","audio-keyboard-response","81","177307","0.0-3.0-1.53","../audio/64-8-masc.mp3"," ","","leve.","","","",""
"","null","html-keyboard-response","82","178560","0.0-3.0-0.54-0.54","<span style= ""font-size:30px; font-family: monospace"">+</span>","null","fixation","","","","",""
"","469","audio-keyboard-response","83","179307","0.0-3.0-1.54","../audio/61-1-fem.mp3"," ","","Aquele","","","",""
"","1080","audio-keyboard-response","84","180667","0.0-3.0-1.55","../audio/61-2-fem.mp3"," ","","senhor","","","",""
"","728","audio-keyboard-response","85","181675","0.0-3.0-1.56","../audio/61-3-fem.mp3"," ","","é","","","",""
"","891","audio-keyboard-response","86","182923","0.0-3.0-1.57","../audio/61-4-fem.mp3"," ","","muito","","","",""
"","949","audio-keyboard-response","87","184171","0.0-3.0-1.58","../audio/61-5-fem.mp3"," ","","sovina","","","",""
"","949","audio-keyboard-response","88","185387","0.0-3.0-1.59","../audio/61-6-fem.mp3"," ","","e","","","",""
"","1600","audio-keyboard-response","89","187323","0.0-3.0-1.60","../audio/61-7-fem.mp3"," ","","inflexível.","","","",""
"","null","html-keyboard-response","90","188586","0.0-3.0-0.61-0.61","<span style= ""font-size:30px; font-family: monospace"">+</span>","null","fixation","","","","",""
"","1109","audio-keyboard-response","91","189995","0.0-3.0-1.61","../audio/63-1-masc.mp3"," ","","A","","","",""
"","1061","audio-keyboard-response","92","191339","0.0-3.0-1.62","../audio/63-2-masc.mp3"," ","","chuva","","","",""
"","949","audio-keyboard-response","93","192571","0.0-3.0-1.63","../audio/63-3-masc.mp3"," ","","entrou","","","",""
"","971","audio-keyboard-response","94","193851","0.0-3.0-1.64","../audio/63-4-masc.mp3"," ","","pela","","","",""
"","1128","audio-keyboard-response","95","195307","0.0-3.0-1.65","../audio/63-5-masc.mp3"," ","","abertura","","","",""
"","901","audio-keyboard-response","96","196491","0.0-3.0-1.66","../audio/63-6-masc.mp3"," ","","na","","","",""
"","1200","audio-keyboard-response","97","197963","0.0-3.0-1.67","../audio/63-7-masc.mp3"," ","","janela.","","","",""
"","null","html-keyboard-response","98","199227","0.0-3.0-0.68-0.68","<span style= ""font-size:30px; font-family: monospace"">+</span>","null","fixation","","","","",""
"","501","audio-keyboard-response","99","200011","0.0-3.0-1.68","../audio/65-1-fem.mp3"," ","","O","","","",""
"","899","audio-keyboard-response","100","201195","0.0-3.0-1.69","../audio/65-2-fem.mp3"," ","","fantasma","","","",""
"","960","audio-keyboard-response","101","202427","0.0-3.0-1.70","../audio/65-3-fem.mp3"," ","","veio","","","",""
"","1008","audio-keyboard-response","102","203707","0.0-3.0-1.71","../audio/65-4-fem.mp3"," ","","da","","","",""
"","1000","audio-keyboard-response","103","204987","0.0-3.0-1.72","../audio/65-5-fem.mp3"," ","","escuridão","","","",""
"","1128","audio-keyboard-response","104","206476","0.0-3.0-1.73","../audio/65-6-fem.mp3"," ","","do","","","",""
"","1211","audio-keyboard-response","105","207979","0.0-3.0-1.74","../audio/65-7-fem.mp3"," ","","armário.","","","",""
"","10922","html-keyboard-response","106","219163","0.0-3.0-2.74-0.74","<span style=""font-size:25px; font-family: monospace"">O fantasma veio da escuridão do armário?</span>","s","","","O fantasma veio da escuridão do armário?","null","exp-sent","false"
"","null","html-keyboard-response","107","220665","0.0-3.0-0.75-0.75","<span style= ""font-size:30px; font-family: monospace"">+</span>","null","fixation","","","","",""
"","701","audio-keyboard-response","108","221659","0.0-3.0-1.75","../audio/24-1-fem.mp3"," ","","As","","","",""
"","811","audio-keyboard-response","109","222763","0.0-3.0-1.76","../audio/24-2-fem.mp3"," ","","crianças","","","",""
"","1069","audio-keyboard-response","110","224123","0.0-3.0-1.77","../audio/24-3-fem.mp3"," ","","vão","","","",""
"","1021","audio-keyboard-response","111","225419","0.0-3.0-1.78","../audio/24-4-fem.mp3"," ","","ao","","","",""
"","1328","audio-keyboard-response","112","227035","0.0-3.0-1.79","../audio/24-5-fem.mp3"," ","","cinema","","","",""
"","821","audio-keyboard-response","113","228139","0.0-3.0-1.80","../audio/24-6-fem.mp3"," ","","mais","","","",""
"","899","audio-keyboard-response","114","229307","0.0-3.0-1.81","../audio/24-7-fem.mp3"," ","","tarde.","","","",""
"","null","html-keyboard-response","115","230565","0.0-3.0-0.82-0.82","<span style= ""font-size:30px; font-family: monospace"">+</span>","null","fixation","","","","",""
"","1269","audio-keyboard-response","116","232187","0.0-3.0-1.82","../audio/23-1-fem.mp3"," ","","Português","","","",""
"","821","audio-keyboard-response","117","233291","0.0-3.0-1.83","../audio/23-2-fem.mp3"," ","","é","","","",""
"","909","audio-keyboard-response","118","234475","0.0-3.0-1.84","../audio/23-3-fem.mp3"," ","","um","","","",""
"","1000","audio-keyboard-response","119","235803","0.0-3.0-1.85","../audio/23-4-fem.mp3"," ","","assunto","","","",""
"","989","audio-keyboard-response","120","237163","0.0-3.0-1.86","../audio/23-5-fem.mp3"," ","","elementar","","","",""
"","880","audio-keyboard-response","121","238347","0.0-3.0-1.87","../audio/23-6-fem.mp3"," ","","para","","","",""
"","1019","audio-keyboard-response","122","239643","0.0-3.0-1.88","../audio/23-7-fem.mp3"," ","","os","","","",""
"","941","audio-keyboard-response","123","240859","0.0-3.0-1.89","../audio/23-8-fem.mp3"," ","","alunos.","","","",""
"","null","html-keyboard-response","124","242119","0.0-3.0-0.90-0.90","<span style= ""font-size:30px; font-family: monospace"">+</span>","null","fixation","","","","",""
"","1109","audio-keyboard-response","125","243515","0.0-3.0-1.90","../audio/21-1-masc.mp3"," ","","Precisamos","","","",""
"","832","audio-keyboard-response","126","244619","0.0-3.0-1.91","../audio/21-2-masc.mp3"," ","","de","","","",""
"","960","audio-keyboard-response","127","245867","0.0-3.0-1.92","../audio/21-3-masc.mp3"," ","","paciência","","","",""
"","1240","audio-keyboard-response","128","247387","0.0-3.0-1.93","../audio/21-4-masc.mp3"," ","","e","","","",""
"","1259","audio-keyboard-response","129","248923","0.0-3.0-1.94","../audio/21-5-masc.mp3"," ","","bondade","","","",""
"","1331","audio-keyboard-response","130","250539","0.0-3.0-1.95","../audio/21-6-masc.mp3"," ","","para","","","",""
"","979","audio-keyboard-response","131","251803","0.0-3.0-1.96","../audio/21-7-masc.mp3"," ","","um","","","",""
"","1019","audio-keyboard-response","132","253115","0.0-3.0-1.97","../audio/21-8-masc.mp3"," ","","mundo","","","",""
"","960","audio-keyboard-response","133","254363","0.0-3.0-1.98","../audio/21-9-masc.mp3"," ","","melhor.","","","",""
"","null","html-keyboard-response","134","255616","0.0-3.0-0.99-0.99","<span style= ""font-size:30px; font-family: monospace"">+</span>","null","fixation","","","","",""
"","1069","audio-keyboard-response","135","256971","0.0-3.0-1.99","../audio/22-1-fem.mp3"," ","","Eu","","","",""
"","1088","audio-keyboard-response","136","258347","0.0-3.0-1.100","../audio/22-2-fem.mp3"," ","","detesto","","","",""
"","960","audio-keyboard-response","137","259595","0.0-3.0-1.101","../audio/22-3-fem.mp3"," ","","fumaça","","","",""
"","869","audio-keyboard-response","138","260747","0.0-3.0-1.102","../audio/22-4-fem.mp3"," ","","de","","","",""
"","1048","audio-keyboard-response","139","262075","0.0-3.0-1.103","../audio/22-5-fem.mp3"," ","","cachimbo","","","",""
"","891","audio-keyboard-response","140","263243","0.0-3.0-1.104","../audio/22-6-fem.mp3"," ","","e","","","",""
"","931","audio-keyboard-response","141","264459","0.0-3.0-1.105","../audio/22-7-fem.mp3"," ","","de","","","",""
"","931","audio-keyboard-response","142","265723","0.0-3.0-1.106","../audio/22-8-fem.mp3"," ","","cigarro.","","","",""
"","null","html-keyboard-response","143","266994","0.0-3.0-0.107-0.107","<span style= ""font-size:30px; font-family: monospace"">+</span>","null","fixation","","","","",""
"","99","audio-keyboard-response","144","267387","0.0-3.0-1.107","../audio/25-1-fem.mp3"," ","","Ela","","","",""
"","909","audio-keyboard-response","145","268603","0.0-3.0-1.108","../audio/25-2-fem.mp3"," ","","faz","","","",""
"","829","audio-keyboard-response","146","269723","0.0-3.0-1.109","../audio/25-3-fem.mp3"," ","","tanto","","","",""
"","469","audio-keyboard-response","147","270475","0.0-3.0-1.110","../audio/25-4-fem.mp3"," ","","cabelo","","","",""
"","880","audio-keyboard-response","148","271643","0.0-3.0-1.111","../audio/25-5-fem.mp3"," ","","liso","","","",""
"","779","audio-keyboard-response","149","272715","0.0-3.0-1.112","../audio/25-6-fem.mp3"," ","","quanto","","","",""
"","728","audio-keyboard-response","150","273755","0.0-3.0-1.113","../audio/25-7-fem.mp3"," ","","cacheado.","","","",""
"","7575","html-keyboard-response","151","281595","0.0-3.0-2.113-0.113","<span style=""font-size:25px; font-family: monospace"">Ela só faz cabelo cacheado?</span>","n","","","Ela só faz cabelo cacheado?","null","exp-sent","false"
"","null","html-keyboard-response","152","283112","0.0-3.0-0.114-0.114","<span style= ""font-size:30px; font-family: monospace"">+</span>","null","fixation","","","","",""
"","848","audio-keyboard-response","153","284235","0.0-3.0-1.114","../audio/59-1-masc.mp3"," ","","O","","","",""
"","1131","audio-keyboard-response","154","285643","0.0-3.0-1.115","../audio/59-2-masc.mp3"," ","","carteiro","","","",""
"","949","audio-keyboard-response","155","286875","0.0-3.0-1.116","../audio/59-3-masc.mp3"," ","","fez","","","",""
"","909","audio-keyboard-response","156","288075","0.0-3.0-1.117","../audio/59-4-masc.mp3"," ","","uma","","","",""
"","1440","audio-keyboard-response","157","289803","0.0-3.0-1.118","../audio/59-5-masc.mp3"," ","","tentativa","","","",""
"","880","audio-keyboard-response","158","290955","0.0-3.0-1.119","../audio/59-6-masc.mp3"," ","","de","","","",""
"","1120","audio-keyboard-response","159","292363","0.0-3.0-1.120","../audio/59-7-masc.mp3"," ","","entrega.","","","",""
"","null","html-keyboard-response","160","293630","0.0-3.0-0.121-0.121","<span style= ""font-size:30px; font-family: monospace"">+</span>","null","fixation","","","","",""
"","1261","audio-keyboard-response","161","295179","0.0-3.0-1.121","../audio/57-1-fem.mp3"," ","","O","","","",""
"","1189","audio-keyboard-response","162","296651","0.0-3.0-1.122","../audio/57-2-fem.mp3"," ","","capitão","","","",""
"","1451","audio-keyboard-response","163","298379","0.0-3.0-1.123","../audio/57-3-fem.mp3"," ","","deu","","","",""
"","1109","audio-keyboard-response","164","299771","0.0-3.0-1.124","../audio/57-4-fem.mp3"," ","","uma","","","",""
"","1512","audio-keyboard-response","165","301579","0.0-3.0-1.125","../audio/57-5-fem.mp3"," ","","instrução","","","",""
"","1509","audio-keyboard-response","166","303371","0.0-3.0-1.126","../audio/57-6-fem.mp3"," ","","para","","","",""
"","899","audio-keyboard-response","167","304555","0.0-3.0-1.127","../audio/57-7-fem.mp3"," ","","as","","","",""
"","819","audio-keyboard-response","168","305787","0.0-3.0-1.128","../audio/57-8-fem.mp3"," ","","pessoas.","","","",""
"","null","html-keyboard-response","169","307053","0.0-3.0-0.129-0.129","<span style= ""font-size:30px; font-family: monospace"">+</span>","null","fixation","","","","",""
"","1168","audio-keyboard-response","170","308507","0.0-3.0-1.129","../audio/58-1-masc.mp3"," ","","Havia","","","",""
"","549","audio-keyboard-response","171","309371","0.0-3.0-1.130","../audio/58-2-masc.mp3"," ","","apenas","","","",""
"","1069","audio-keyboard-response","172","310715","0.0-3.0-1.131","../audio/58-3-masc.mp3"," ","","um","","","",""
"","1208","audio-keyboard-response","173","312235","0.0-3.0-1.132","../audio/58-4-masc.mp3"," ","","último","","","",""
"","1189","audio-keyboard-response","174","313691","0.0-3.0-1.133","../audio/58-5-masc.mp3"," ","","herdeiro","","","",""
"","928","audio-keyboard-response","175","314907","0.0-3.0-1.134","../audio/58-6-masc.mp3"," ","","do","","","",""
"","851","audio-keyboard-response","176","316043","0.0-3.0-1.135","../audio/58-7-masc.mp3"," ","","dinheiro.","","","",""
"","null","html-keyboard-response","177","317323","0.0-3.0-0.136-0.136","<span style= ""font-size:30px; font-family: monospace"">+</span>","null","fixation","","","","",""
"","51","audio-keyboard-response","178","317659","0.0-3.0-1.136","../audio/56-1-fem.mp3"," ","","A","","","",""
"","979","audio-keyboard-response","179","318907","0.0-3.0-1.137","../audio/56-2-fem.mp3"," ","","moça","","","",""
"","928","audio-keyboard-response","180","320107","0.0-3.0-1.138","../audio/56-3-fem.mp3"," ","","foi","","","",""
"","779","audio-keyboard-response","181","321163","0.0-3.0-1.139","../audio/56-4-fem.mp3"," ","","à","","","",""
"","1080","audio-keyboard-response","182","322539","0.0-3.0-1.140","../audio/56-5-fem.mp3"," ","","agência","","","",""
"","1040","audio-keyboard-response","183","323915","0.0-3.0-1.141","../audio/56-6-fem.mp3"," ","","bancária","","","",""
"","1051","audio-keyboard-response","184","325243","0.0-3.0-1.142","../audio/56-7-fem.mp3"," ","","ontem","","","",""
"","971","audio-keyboard-response","185","326491","0.0-3.0-1.143","../audio/56-8-fem.mp3"," ","","de","","","",""
"","981","audio-keyboard-response","186","327739","0.0-3.0-1.144","../audio/56-9-fem.mp3"," ","","tarde.","","","",""
"","null","html-keyboard-response","187","329004","0.0-3.0-0.145-0.145","<span style= ""font-size:30px; font-family: monospace"">+</span>","null","fixation","","","","",""
"","200","audio-keyboard-response","188","329499","0.0-3.0-1.145","../audio/60-1-masc.mp3"," ","","Ondas","","","",""
"","960","audio-keyboard-response","189","330747","0.0-3.0-1.146","../audio/60-2-masc.mp3"," ","","têm","","","",""
"","960","audio-keyboard-response","190","331979","0.0-3.0-1.147","../audio/60-3-masc.mp3"," ","","um","","","",""
"","1240","audio-keyboard-response","191","333515","0.0-3.0-1.148","../audio/60-4-masc.mp3"," ","","impacto","","","",""
"","1421","audio-keyboard-response","192","335211","0.0-3.0-1.149","../audio/60-5-masc.mp3"," ","","destrutivo","","","",""
"","979","audio-keyboard-response","193","336475","0.0-3.0-1.150","../audio/60-6-masc.mp3"," ","","no","","","",""
"","1051","audio-keyboard-response","194","337819","0.0-3.0-1.151","../audio/60-7-masc.mp3"," ","","litoral.","","","",""
"","9731","html-keyboard-response","195","347803","0.0-3.0-2.151-0.151","<span style=""font-size:25px; font-family: monospace"">Ondas têm um impacto destrutivo?</span>","s","","","Ondas têm um impacto destrutivo?","null","exp-sent","false"
"","null","html-keyboard-response","196","349320","0.0-3.0-0.152-0.152","<span style= ""font-size:30px; font-family: monospace"">+</span>","null","fixation","","","","",""
"","789","audio-keyboard-response","197","350410","0.0-3.0-1.152","../audio/01-1-fem.mp3"," ","","O","","","",""
"","1171","audio-keyboard-response","198","351850","0.0-3.0-1.153","../audio/01-2-fem.mp3"," ","","menino","","","",""
"","309","audio-keyboard-response","199","352442","0.0-3.0-1.154","../audio/01-3-fem.mp3"," ","","derrubou","","","",""
"","880","audio-keyboard-response","200","353610","0.0-3.0-1.155","../audio/01-4-fem.mp3"," ","","a","","","",""
"","1109","audio-keyboard-response","201","355002","0.0-3.0-1.156","../audio/01-5-fem.mp3"," ","","guitarra","","","",""
"","869","audio-keyboard-response","202","356154","0.0-3.0-1.157","../audio/01-6-fem.mp3"," ","","no","","","",""
"","1029","audio-keyboard-response","203","357466","0.0-3.0-1.158","../audio/01-7-fem.mp3"," ","","chão.","","","",""
"","null","html-keyboard-response","204","358725","0.0-3.0-0.159-0.159","<span style= ""font-size:30px; font-family: monospace"">+</span>","null","fixation","","","","",""
"","1181","audio-keyboard-response","205","360170","0.0-3.0-1.159","../audio/02-2-masc.mp3"," ","","Havia","","","",""
"","1008","audio-keyboard-response","206","361434","0.0-3.0-1.160","../audio/02-2-masc.mp3"," ","","um","","","",""
"","1011","audio-keyboard-response","207","362698","0.0-3.0-1.161","../audio/02-3-masc.mp3"," ","","cheiro","","","",""
"","869","audio-keyboard-response","208","363834","0.0-3.0-1.162","../audio/02-4-masc.mp3"," ","","de","","","",""
"","869","audio-keyboard-response","209","364970","0.0-3.0-1.163","../audio/02-5-masc.mp3"," ","","gasolina","","","",""
"","920","audio-keyboard-response","210","366154","0.0-3.0-1.164","../audio/02-6-masc.mp3"," ","","na","","","",""
"","869","audio-keyboard-response","211","367290","0.0-3.0-1.165","../audio/02-7-masc.mp3"," ","","garagem.","","","",""
"","null","html-keyboard-response","212","368563","0.0-3.0-0.166-0.166","<span style= ""font-size:30px; font-family: monospace"">+</span>","null","fixation","","","","",""
"","1181","audio-keyboard-response","213","370010","0.0-3.0-1.166","../audio/04-1-masc.mp3"," ","","Duzentos","","","",""
"","912","audio-keyboard-response","214","371178","0.0-3.0-1.167","../audio/04-2-masc.mp3"," ","","carros","","","",""
"","971","audio-keyboard-response","215","372410","0.0-3.0-1.168","../audio/04-3-masc.mp3"," ","","passaram","","","",""
"","941","audio-keyboard-response","216","373610","0.0-3.0-1.169","../audio/04-4-masc.mp3"," ","","pela","","","",""
"","992","audio-keyboard-response","217","374858","0.0-3.0-1.170","../audio/04-5-masc.mp3"," ","","ponte","","","",""
"","1080","audio-keyboard-response","218","376202","0.0-3.0-1.171","../audio/04-6-masc.mp3"," ","","hoje","","","",""
"","960","audio-keyboard-response","219","377418","0.0-3.0-1.172","../audio/04-7-masc.mp3"," ","","de","","","",""
"","1040","audio-keyboard-response","220","378730","0.0-3.0-1.173","../audio/04-8-masc.mp3"," ","","tarde.","","","",""
"","null","html-keyboard-response","221","380008","0.0-3.0-0.174-0.174","<span style= ""font-size:30px; font-family: monospace"">+</span>","null","fixation","","","","",""
"","509","audio-keyboard-response","222","380794","0.0-3.0-1.174","../audio/03-1-fem.mp3"," ","","O","","","",""
"","869","audio-keyboard-response","223","381930","0.0-3.0-1.175","../audio/03-2-fem.mp3"," ","","coelho","","","",""
"","789","audio-keyboard-response","224","382986","0.0-3.0-1.176","../audio/03-3-fem.mp3"," ","","foi","","","",""
"","1131","audio-keyboard-response","225","384378","0.0-3.0-1.177","../audio/03-4-fem.mp3"," ","","bastante","","","",""
"","1011","audio-keyboard-response","226","385642","0.0-3.0-1.178","../audio/03-5-fem.mp3"," ","","dócil","","","",""
"","1019","audio-keyboard-response","227","386922","0.0-3.0-1.179","../audio/03-6-fem.mp3"," ","","com","","","",""
"","981","audio-keyboard-response","228","388170","0.0-3.0-1.180","../audio/03-7-fem.mp3"," ","","as","","","",""
"","1120","audio-keyboard-response","229","389546","0.0-3.0-1.181","../audio/03-8-fem.mp3"," ","","crianças.","","","",""
"","null","html-keyboard-response","230","390809","0.0-3.0-0.182-0.182","<span style= ""font-size:30px; font-family: monospace"">+</span>","null","fixation","","","","",""
"","160","audio-keyboard-response","231","391226","0.0-3.0-1.182","../audio/05-1-masc.mp3"," ","","A","","","",""
"","1269","audio-keyboard-response","232","392762","0.0-3.0-1.183","../audio/05-2-masc.mp3"," ","","vendedora","","","",""
"","1088","audio-keyboard-response","233","394106","0.0-3.0-1.184","../audio/05-3-masc.mp3"," ","","ajudou","","","",""
"","1269","audio-keyboard-response","234","395642","0.0-3.0-1.185","../audio/05-4-masc.mp3"," ","","um","","","",""
"","1272","audio-keyboard-response","235","397178","0.0-3.0-1.186","../audio/05-5-masc.mp3"," ","","turista","","","",""
"","1051","audio-keyboard-response","236","398490","0.0-3.0-1.187","../audio/05-6-masc.mp3"," ","","na","","","",""
"","1000","audio-keyboard-response","237","399754","0.0-3.0-1.188","../audio/05-7-masc.mp3"," ","","loja.","","","",""
"","4984","html-keyboard-response","238","405002","0.0-3.0-2.188-0.188","<span style=""font-size:25px; font-family: monospace"">A vendedora ajudou um turista?</span>","s","","","A vendedora ajudou um turista?","null","exp-sent","false"
"","null","html-keyboard-response","239","406509","0.0-3.0-0.189-0.189","<span style= ""font-size:30px; font-family: monospace"">+</span>","null","fixation","","","","",""
"","811","audio-keyboard-response","240","407610","0.0-3.0-1.189","../audio/53-1-masc.mp3"," ","","O","","","",""
"","1141","audio-keyboard-response","241","409019","0.0-3.0-1.190","../audio/53-2-masc.mp3"," ","","médico","","","",""
"","989","audio-keyboard-response","242","410283","0.0-3.0-1.191","../audio/53-3-masc.mp3"," ","","foi","","","",""
"","1069","audio-keyboard-response","243","411626","0.0-3.0-1.192","../audio/53-4-masc.mp3"," ","","bastante","","","",""
"","888","audio-keyboard-response","244","412795","0.0-3.0-1.193","../audio/53-5-masc.mp3"," ","","preciso","","","",""
"","1021","audio-keyboard-response","245","414090","0.0-3.0-1.194","../audio/53-6-masc.mp3"," ","","durante","","","",""
"","1019","audio-keyboard-response","246","415386","0.0-3.0-1.195","../audio/53-7-masc.mp3"," ","","a","","","",""
"","1101","audio-keyboard-response","247","416779","0.0-3.0-1.196","../audio/53-8-masc.mp3"," ","","cirurgia.","","","",""
"","null","html-keyboard-response","248","418047","0.0-3.0-0.197-0.197","<span style= ""font-size:30px; font-family: monospace"">+</span>","null","fixation","","","","",""
"","1051","audio-keyboard-response","249","419371","0.0-3.0-1.197","../audio/54-1-masc.mp3"," ","","Estou","","","",""
"","909","audio-keyboard-response","250","420571","0.0-3.0-1.198","../audio/54-2-masc.mp3"," ","","com","","","",""
"","811","audio-keyboard-response","251","421659","0.0-3.0-1.199","../audio/54-3-masc.mp3"," ","","medo","","","",""
"","968","audio-keyboard-response","252","422907","0.0-3.0-1.200","../audio/54-4-masc.mp3"," ","","da","","","",""
"","1008","audio-keyboard-response","253","424187","0.0-3.0-1.201","../audio/54-5-masc.mp3"," ","","atual","","","",""
"","1069","audio-keyboard-response","254","425546","0.0-3.0-1.202","../audio/54-6-masc.mp3"," ","","organização","","","",""
"","1040","audio-keyboard-response","255","426859","0.0-3.0-1.203","../audio/54-7-masc.mp3"," ","","do","","","",""
"","1059","audio-keyboard-response","256","428203","0.0-3.0-1.204","../audio/54-8-masc.mp3"," ","","país.","","","",""
"","null","html-keyboard-response","257","429466","0.0-3.0-0.205-0.205","<span style= ""font-size:30px; font-family: monospace"">+</span>","null","fixation","","","","",""
"","8","audio-keyboard-response","258","429754","0.0-3.0-1.205","../audio/51-1-fem.mp3"," ","","Suco","","","",""
"","931","audio-keyboard-response","259","430971","0.0-3.0-1.206","../audio/51-2-fem.mp3"," ","","de","","","",""
"","888","audio-keyboard-response","260","432155","0.0-3.0-1.207","../audio/51-3-fem.mp3"," ","","acerola","","","",""
"","1051","audio-keyboard-response","261","433499","0.0-3.0-1.208","../audio/51-4-fem.mp3"," ","","é","","","",""
"","1080","audio-keyboard-response","262","434874","0.0-3.0-1.209","../audio/51-5-fem.mp3"," ","","azedo","","","",""
"","968","audio-keyboard-response","263","436106","0.0-3.0-1.210","../audio/51-6-fem.mp3"," ","","e","","","",""
"","1080","audio-keyboard-response","264","437451","0.0-3.0-1.211","../audio/51-7-fem.mp3"," ","","até","","","",""
"","1019","audio-keyboard-response","265","438762","0.0-3.0-1.212","../audio/51-8-fem.mp3"," ","","barato.","","","",""
"","null","html-keyboard-response","266","440030","0.0-3.0-0.213-0.213","<span style= ""font-size:30px; font-family: monospace"">+</span>","null","fixation","","","","",""
"","1109","audio-keyboard-response","267","441483","0.0-3.0-1.213","../audio/52-1-masc.mp3"," ","","Às","","","",""
"","829","audio-keyboard-response","268","442586","0.0-3.0-1.214","../audio/52-2-masc.mp3"," ","","vezes","","","",""
"","869","audio-keyboard-response","269","443755","0.0-3.0-1.215","../audio/52-3-masc.mp3"," ","","eu","","","",""
"","840","audio-keyboard-response","270","444907","0.0-3.0-1.216","../audio/52-4-masc.mp3"," ","","tenho","","","",""
"","1088","audio-keyboard-response","271","446267","0.0-3.0-1.217","../audio/52-5-masc.mp3"," ","","azia","","","",""
"","1032","audio-keyboard-response","272","447579","0.0-3.0-1.218","../audio/52-6-masc.mp3"," ","","depois","","","",""
"","920","audio-keyboard-response","273","448779","0.0-3.0-1.219","../audio/52-7-masc.mp3"," ","","da","","","",""
"","1059","audio-keyboard-response","274","450123","0.0-3.0-1.220","../audio/52-8-masc.mp3"," ","","janta.","","","",""
"","null","html-keyboard-response","275","451383","0.0-3.0-0.221-0.221","<span style= ""font-size:30px; font-family: monospace"">+</span>","null","fixation","","","","",""
"","168","audio-keyboard-response","276","451835","0.0-3.0-1.221","../audio/55-1-fem.mp3"," ","","O","","","",""
"","1021","audio-keyboard-response","277","453131","0.0-3.0-1.222","../audio/55-2-fem.mp3"," ","","insulto","","","",""
"","1368","audio-keyboard-response","278","454795","0.0-3.0-1.223","../audio/55-3-fem.mp3"," ","","recente","","","",""
"","1240","audio-keyboard-response","279","456315","0.0-3.0-1.224","../audio/55-4-fem.mp3"," ","","causou","","","",""
"","909","audio-keyboard-response","280","457515","0.0-3.0-1.225","../audio/55-5-fem.mp3"," ","","indignação","","","",""
"","1160","audio-keyboard-response","281","458955","0.0-3.0-1.226","../audio/55-6-fem.mp3"," ","","em","","","",""
"","1051","audio-keyboard-response","282","460283","0.0-3.0-1.227","../audio/55-7-fem.mp3"," ","","todos.","","","",""
"","11865","html-keyboard-response","283","472410","0.0-3.0-2.227-0.227","<span style=""font-size:25px; font-family: monospace"">O insulto causou calmaria?</span>","n","","","O insulto causou calmaria?","null","exp-sent","false"
"","null","html-keyboard-response","284","473931","0.0-3.0-0.228-0.228","<span style= ""font-size:30px; font-family: monospace"">+</span>","null","fixation","","","","",""
"","219","audio-keyboard-response","285","474426","0.0-3.0-1.228","../audio/26-1-masc.mp3"," ","","Amanhã","","","",""
"","1069","audio-keyboard-response","286","475770","0.0-3.0-1.229","../audio/26-2-masc.mp3"," ","","temos","","","",""
"","1091","audio-keyboard-response","287","477130","0.0-3.0-1.230","../audio/26-3-masc.mp3"," ","","festa","","","",""
"","1069","audio-keyboard-response","288","478474","0.0-3.0-1.231","../audio/26-4-masc.mp3"," ","","na","","","",""
"","1139","audio-keyboard-response","289","479882","0.0-3.0-1.232","../audio/26-5-masc.mp3"," ","","piscina","","","",""
"","1080","audio-keyboard-response","290","481242","0.0-3.0-1.233","../audio/26-6-masc.mp3"," ","","o","","","",""
"","1029","audio-keyboard-response","291","482554","0.0-3.0-1.234","../audio/26-7-masc.mp3"," ","","dia","","","",""
"","1109","audio-keyboard-response","292","483946","0.0-3.0-1.235","../audio/26-8-masc.mp3"," ","","todo.","","","",""
"","null","html-keyboard-response","293","485215","0.0-3.0-0.236-0.236","<span style= ""font-size:30px; font-family: monospace"">+</span>","null","fixation","","","","",""
"","1061","audio-keyboard-response","294","486570","0.0-3.0-1.236","../audio/29-1-masc.mp3"," ","","Hoje","","","",""
"","909","audio-keyboard-response","295","487770","0.0-3.0-1.237","../audio/29-2-masc.mp3"," ","","vamos","","","",""
"","939","audio-keyboard-response","296","488986","0.0-3.0-1.238","../audio/29-3-masc.mp3"," ","","fazer","","","",""
"","821","audio-keyboard-response","297","490090","0.0-3.0-1.239","../audio/29-4-masc.mp3"," ","","uma","","","",""
"","979","audio-keyboard-response","298","491354","0.0-3.0-1.240","../audio/29-5-masc.mp3"," ","","atividade","","","",""
"","1139","audio-keyboard-response","299","492762","0.0-3.0-1.241","../audio/29-6-masc.mp3"," ","","sobre","","","",""
"","989","audio-keyboard-response","300","494042","0.0-3.0-1.242","../audio/29-7-masc.mp3"," ","","fauna","","","",""
"","1051","audio-keyboard-response","301","495562","0.0-3.0-1.243","../audio/29-8-masc.mp3"," ","","marinha.","","","",""
"","null","html-keyboard-response","302","496822","0.0-3.0-0.244-0.244","<span style= ""font-size:30px; font-family: monospace"">+</span>","null","fixation","","","","",""
"","1080","audio-keyboard-response","303","498186","0.0-3.0-1.244","../audio/27-1-masc.mp3"," ","","O","","","",""
"","981","audio-keyboard-response","304","499450","0.0-3.0-1.245","../audio/27-2-masc.mp3"," ","","dinheiro","","","",""
"","1061","audio-keyboard-response","305","500778","0.0-3.0-1.246","../audio/27-3-masc.mp3"," ","","chegou","","","",""
"","1128","audio-keyboard-response","306","502186","0.0-3.0-1.247","../audio/27-4-masc.mp3"," ","","à","","","",""
"","1120","audio-keyboard-response","307","503578","0.0-3.0-1.248","../audio/27-5-masc.mp3"," ","","elite","","","",""
"","989","audio-keyboard-response","308","504874","0.0-3.0-1.249","../audio/27-6-masc.mp3"," ","","deste","","","",""
"","1189","audio-keyboard-response","309","506362","0.0-3.0-1.250","../audio/27-7-masc.mp3"," ","","país.","","","",""
"","null","html-keyboard-response","310","507616","0.0-3.0-0.251-0.251","<span style= ""font-size:30px; font-family: monospace"">+</span>","null","fixation","","","","",""
"","680","audio-keyboard-response","311","508569","0.0-3.0-1.251","../audio/28-1-fem.mp3"," ","","O","","","",""
"","709","audio-keyboard-response","312","509562","0.0-3.0-1.252","../audio/28-2-fem.mp3"," ","","time","","","",""
"","949","audio-keyboard-response","313","510794","0.0-3.0-1.253","../audio/28-3-fem.mp3"," ","","quer","","","",""
"","848","audio-keyboard-response","314","511946","0.0-3.0-1.254","../audio/28-4-fem.mp3"," ","","a","","","",""
"","861","audio-keyboard-response","315","513130","0.0-3.0-1.255","../audio/28-5-fem.mp3"," ","","vitória","","","",""
"","891","audio-keyboard-response","316","514298","0.0-3.0-1.256","../audio/28-6-fem.mp3"," ","","no","","","",""
"","920","audio-keyboard-response","317","515562","0.0-3.0-1.257","../audio/28-7-fem.mp3"," ","","jogo","","","",""
"","941","audio-keyboard-response","318","516778","0.0-3.0-1.258","../audio/28-8-fem.mp3"," ","","de","","","",""
"","819","audio-keyboard-response","319","517946","0.0-3.0-1.259","../audio/28-9-fem.mp3"," ","","vôlei.","","","",""
"","null","html-keyboard-response","320","519200","0.0-3.0-0.260-0.260","<span style= ""font-size:30px; font-family: monospace"">+</span>","null","fixation","","","","",""
"","981","audio-keyboard-response","321","520458","0.0-3.0-1.260","../audio/30-1-masc.mp3"," ","","O","","","",""
"","840","audio-keyboard-response","322","521578","0.0-3.0-1.261","../audio/30-2-masc.mp3"," ","","funcionário","","","",""
"","1320","audio-keyboard-response","323","523178","0.0-3.0-1.262","../audio/30-3-masc.mp3"," ","","entregou","","","",""
"","909","audio-keyboard-response","324","524362","0.0-3.0-1.263","../audio/30-4-masc.mp3"," ","","o","","","",""
"","1091","audio-keyboard-response","325","525722","0.0-3.0-1.264","../audio/30-5-masc.mp3"," ","","restante","","","",""
"","989","audio-keyboard-response","326","526986","0.0-3.0-1.265","../audio/30-6-masc.mp3"," ","","do","","","",""
"","960","audio-keyboard-response","327","528218","0.0-3.0-1.266","../audio/30-7-masc.mp3"," ","","dinheiro.","","","",""
"","30624","html-keyboard-response","328","559098","0.0-3.0-2.266-0.266","<span style=""font-size:25px; font-family: monospace"">O funcionário entregou o contrato?</span>","n","","","O funcionário entregou o contrato?","null","exp-sent","false"
"","null","html-keyboard-response","329","560599","0.0-3.0-0.267-0.267","<span style= ""font-size:30px; font-family: monospace"">+</span>","null","fixation","","","","",""
"","891","audio-keyboard-response","330","561753","0.0-3.0-1.267","../audio/48-1-masc.mp3"," ","","Ela","","","",""
"","899","audio-keyboard-response","331","562937","0.0-3.0-1.268","../audio/48-2-masc.mp3"," ","","come","","","",""
"","960","audio-keyboard-response","332","564185","0.0-3.0-1.269","../audio/48-3-masc.mp3"," ","","feijão","","","",""
"","829","audio-keyboard-response","333","565289","0.0-3.0-1.270","../audio/48-4-masc.mp3"," ","","com","","","",""
"","928","audio-keyboard-response","334","566489","0.0-3.0-1.271","../audio/48-5-masc.mp3"," ","","arroz","","","",""
"","971","audio-keyboard-response","335","567737","0.0-3.0-1.272","../audio/48-6-masc.mp3"," ","","todos","","","",""
"","920","audio-keyboard-response","336","568969","0.0-3.0-1.273","../audio/48-7-masc.mp3"," ","","os","","","",""
"","859","audio-keyboard-response","337","570137","0.0-3.0-1.274","../audio/48-8-masc.mp3"," ","","dias.","","","",""
"","null","html-keyboard-response","338","571401","0.0-3.0-0.275-0.275","<span style= ""font-size:30px; font-family: monospace"">+</span>","null","fixation","","","","",""
"","840","audio-keyboard-response","339","572617","0.0-3.0-1.275","../audio/49-1-fem.mp3"," ","","Eu","","","",""
"","832","audio-keyboard-response","340","573753","0.0-3.0-1.276","../audio/49-2-fem.mp3"," ","","quero","","","",""
"","771","audio-keyboard-response","341","574857","0.0-3.0-1.277","../audio/49-3-fem.mp3"," ","","um","","","",""
"","891","audio-keyboard-response","342","576025","0.0-3.0-1.278","../audio/49-4-fem.mp3"," ","","lanche","","","",""
"","1040","audio-keyboard-response","343","577337","0.0-3.0-1.279","../audio/49-5-fem.mp3"," ","","duplo","","","",""
"","891","audio-keyboard-response","344","578505","0.0-3.0-1.280","../audio/49-6-fem.mp3"," ","","e","","","",""
"","789","audio-keyboard-response","345","579577","0.0-3.0-1.281","../audio/49-7-fem.mp3"," ","","um","","","",""
"","811","audio-keyboard-response","346","580681","0.0-3.0-1.282","../audio/49-8-fem.mp3"," ","","suco.","","","",""
"","null","html-keyboard-response","347","581941","0.0-3.0-0.283-0.283","<span style= ""font-size:30px; font-family: monospace"">+</span>","null","fixation","","","","",""
"","1051","audio-keyboard-response","348","583321","0.0-3.0-1.283","../audio/47-1-masc.mp3"," ","","O","","","",""
"","709","audio-keyboard-response","349","584329","0.0-3.0-1.284","../audio/47-2-masc.mp3"," ","","tio","","","",""
"","709","audio-keyboard-response","350","585337","0.0-3.0-1.285","../audio/47-3-masc.mp3"," ","","recusou","","","",""
"","880","audio-keyboard-response","351","586489","0.0-3.0-1.286","../audio/47-4-masc.mp3"," ","","a","","","",""
"","992","audio-keyboard-response","352","587754","0.0-3.0-1.287","../audio/47-5-masc.mp3"," ","","sobremesa","","","",""
"","979","audio-keyboard-response","353","589017","0.0-3.0-1.288","../audio/47-6-masc.mp3"," ","","no","","","",""
"","1059","audio-keyboard-response","354","590409","0.0-3.0-1.289","../audio/47-7-masc.mp3"," ","","almoço.","","","",""
"","null","html-keyboard-response","355","591667","0.0-3.0-0.290-0.290","<span style= ""font-size:30px; font-family: monospace"">+</span>","null","fixation","","","","",""
"","509","audio-keyboard-response","356","592457","0.0-3.0-1.290","../audio/46-1-fem.mp3"," ","","Meu","","","",""
"","880","audio-keyboard-response","357","593609","0.0-3.0-1.291","../audio/46-2-fem.mp3"," ","","primo","","","",""
"","973","audio-keyboard-response","358","594874","0.0-3.0-1.292","../audio/46-3-fem.mp3"," ","","estava","","","",""
"","1029","audio-keyboard-response","359","596185","0.0-3.0-1.293","../audio/46-4-fem.mp3"," ","","muito","","","",""
"","1139","audio-keyboard-response","360","597609","0.0-3.0-1.294","../audio/46-5-fem.mp3"," ","","deprimido","","","",""
"","1011","audio-keyboard-response","361","598937","0.0-3.0-1.295","../audio/46-6-fem.mp3"," ","","no","","","",""
"","909","audio-keyboard-response","362","600137","0.0-3.0-1.296","../audio/46-7-fem.mp3"," ","","inverno.","","","",""
"","null","html-keyboard-response","363","601397","0.0-3.0-0.297-0.297","<span style= ""font-size:30px; font-family: monospace"">+</span>","null","fixation","","","","",""
"","981","audio-keyboard-response","364","602665","0.0-3.0-1.297","../audio/50-1-fem.mp3"," ","","O","","","",""
"","1000","audio-keyboard-response","365","603945","0.0-3.0-1.298","../audio/50-2-fem.mp3"," ","","pássaro","","","",""
"","829","audio-keyboard-response","366","605049","0.0-3.0-1.299","../audio/50-3-fem.mp3"," ","","fugiu","","","",""
"","880","audio-keyboard-response","367","606201","0.0-3.0-1.300","../audio/50-4-fem.mp3"," ","","da","","","",""
"","851","audio-keyboard-response","368","607337","0.0-3.0-1.301","../audio/50-5-fem.mp3"," ","","gaiola","","","",""
"","789","audio-keyboard-response","369","608409","0.0-3.0-1.302","../audio/50-6-fem.mp3"," ","","pela","","","",""
"","981","audio-keyboard-response","370","609673","0.0-3.0-1.303","../audio/50-7-fem.mp3"," ","","portinhola.","","","",""
"","9512","html-keyboard-response","371","619450","0.0-3.0-2.303-0.303","<span style=""font-size:25px; font-family: monospace"">O pássaro fugiu da gaiola?</span>","n","","","O pássaro fugiu da gaiola?","null","exp-sent","false"
"","null","html-keyboard-response","372","620964","0.0-3.0-0.304-0.304","<span style= ""font-size:30px; font-family: monospace"">+</span>","null","fixation","","","","",""
"","291","audio-keyboard-response","373","621562","0.0-3.0-1.304","../audio/44-1-masc.mp3"," ","","Meus","","","",""
"","1309","audio-keyboard-response","374","623146","0.0-3.0-1.305","../audio/44-2-masc.mp3"," ","","irmãos","","","",""
"","1661","audio-keyboard-response","375","625082","0.0-3.0-1.306","../audio/44-3-masc.mp3"," ","","brigam","","","",""
"","1152","audio-keyboard-response","376","626522","0.0-3.0-1.307","../audio/44-4-masc.mp3"," ","","por","","","",""
"","1280","audio-keyboard-response","377","628090","0.0-3.0-1.308","../audio/44-5-masc.mp3"," ","","bobagem","","","",""
"","1091","audio-keyboard-response","378","629466","0.0-3.0-1.309","../audio/44-6-masc.mp3"," ","","todos","","","",""
"","851","audio-keyboard-response","379","630585","0.0-3.0-1.310","../audio/44-7-masc.mp3"," ","","os","","","",""
"","1219","audio-keyboard-response","380","632090","0.0-3.0-1.311","../audio/44-8-masc.mp3"," ","","dias.","","","",""
"","null","html-keyboard-response","381","633355","0.0-3.0-0.312-0.312","<span style= ""font-size:30px; font-family: monospace"">+</span>","null","fixation","","","","",""
"","1320","audio-keyboard-response","382","634953","0.0-3.0-1.312","../audio/43-1-fem.mp3"," ","","Eu","","","",""
"","1160","audio-keyboard-response","383","636394","0.0-3.0-1.313","../audio/43-2-fem.mp3"," ","","achei","","","",""
"","920","audio-keyboard-response","384","637594","0.0-3.0-1.314","../audio/43-3-fem.mp3"," ","","um","","","",""
"","1109","audio-keyboard-response","385","638986","0.0-3.0-1.315","../audio/43-4-fem.mp3"," ","","colchão","","","",""
"","960","audio-keyboard-response","386","640217","0.0-3.0-1.316","../audio/43-5-fem.mp3"," ","","velho","","","",""
"","731","audio-keyboard-response","387","641306","0.0-3.0-1.317","../audio/43-6-fem.mp3"," ","","e","","","",""
"","1011","audio-keyboard-response","388","642602","0.0-3.0-1.318","../audio/43-7-fem.mp3"," ","","imundo","","","",""
"","899","audio-keyboard-response","389","643769","0.0-3.0-1.319","../audio/43-8-fem.mp3"," ","","na","","","",""
"","1021","audio-keyboard-response","390","645066","0.0-3.0-1.320","../audio/43-9-fem.mp3"," ","","casa.","","","",""
"","null","html-keyboard-response","391","646333","0.0-3.0-0.321-0.321","<span style= ""font-size:30px; font-family: monospace"">+</span>","null","fixation","","","","",""
"","1029","audio-keyboard-response","392","647657","0.0-3.0-1.321","../audio/42-1-masc.mp3"," ","","Eu","","","",""
"","869","audio-keyboard-response","393","648809","0.0-3.0-1.322","../audio/42-2-masc.mp3"," ","","fui","","","",""
"","848","audio-keyboard-response","394","649929","0.0-3.0-1.323","../audio/42-3-masc.mp3"," ","","a","","","",""
"","749","audio-keyboard-response","395","650970","0.0-3.0-1.324","../audio/42-4-masc.mp3"," ","","uma","","","",""
"","811","audio-keyboard-response","396","652058","0.0-3.0-1.325","../audio/42-5-masc.mp3"," ","","loja","","","",""
"","741","audio-keyboard-response","397","653114","0.0-3.0-1.326","../audio/42-6-masc.mp3"," ","","de","","","",""
"","928","audio-keyboard-response","398","654329","0.0-3.0-1.327","../audio/42-7-masc.mp3"," ","","móveis","","","",""
"","840","audio-keyboard-response","399","655450","0.0-3.0-1.328","../audio/42-8-masc.mp3"," ","","no","","","",""
"","920","audio-keyboard-response","400","656634","0.0-3.0-1.329","../audio/42-9-masc.mp3"," ","","bairro.","","","",""
"","null","html-keyboard-response","401","657906","0.0-3.0-0.330-0.330","<span style= ""font-size:30px; font-family: monospace"">+</span>","null","fixation","","","","",""
"","571","audio-keyboard-response","402","658762","0.0-3.0-1.330","../audio/41-1-masc.mp3"," ","","A","","","",""
"","941","audio-keyboard-response","403","659994","0.0-3.0-1.331","../audio/41-2-masc.mp3"," ","","novela","","","",""
"","880","audio-keyboard-response","404","661146","0.0-3.0-1.332","../audio/41-3-masc.mp3"," ","","falava","","","",""
"","952","audio-keyboard-response","405","662362","0.0-3.0-1.333","../audio/41-4-masc.mp3"," ","","de","","","",""
"","1032","audio-keyboard-response","406","663721","0.0-3.0-1.334","../audio/41-5-masc.mp3"," ","","paixão","","","",""
"","968","audio-keyboard-response","407","664969","0.0-3.0-1.335","../audio/41-6-masc.mp3"," ","","e","","","",""
"","920","audio-keyboard-response","408","666169","0.0-3.0-1.336","../audio/41-7-masc.mp3"," ","","comédia.","","","",""
"","null","html-keyboard-response","409","667440","0.0-3.0-0.337-0.337","<span style= ""font-size:30px; font-family: monospace"">+</span>","null","fixation","","","","",""
"","91","audio-keyboard-response","410","667817","0.0-3.0-1.337","../audio/45-1-fem.mp3"," ","","O","","","",""
"","981","audio-keyboard-response","411","669081","0.0-3.0-1.338","../audio/45-2-fem.mp3"," ","","homem","","","",""
"","952","audio-keyboard-response","412","670313","0.0-3.0-1.339","../audio/45-3-fem.mp3"," ","","pagou","","","",""
"","928","audio-keyboard-response","413","671529","0.0-3.0-1.340","../audio/45-4-fem.mp3"," ","","o","","","",""
"","1069","audio-keyboard-response","414","672890","0.0-3.0-1.341","../audio/45-5-fem.mp3"," ","","aluguel","","","",""
"","840","audio-keyboard-response","415","673994","0.0-3.0-1.342","../audio/45-6-fem.mp3"," ","","com","","","",""
"","811","audio-keyboard-response","416","675145","0.0-3.0-1.343","../audio/45-7-fem.mp3"," ","","atraso.","","","",""
"","29486","html-keyboard-response","417","704889","0.0-3.0-2.343-0.343","<span style=""font-size:25px; font-family: monospace"">O homem pagou o aluguel em dia?</span>","n","","","O homem pagou o aluguel em dia?","null","exp-sent","false"
"","null","html-keyboard-response","418","706391","0.0-3.0-0.344-0.344","<span style= ""font-size:30px; font-family: monospace"">+</span>","null","fixation","","","","",""
"","1472","audio-keyboard-response","419","708137","0.0-3.0-1.344","../audio/17-1-masc.mp3"," ","","Falaram","","","",""
"","1059","audio-keyboard-response","420","709481","0.0-3.0-1.345","../audio/17-2-masc.mp3"," ","","da","","","",""
"","1040","audio-keyboard-response","421","710793","0.0-3.0-1.346","../audio/17-3-masc.mp3"," ","","lei","","","",""
"","981","audio-keyboard-response","422","712057","0.0-3.0-1.347","../audio/17-4-masc.mp3"," ","","no","","","",""
"","1200","audio-keyboard-response","423","713545","0.0-3.0-1.348","../audio/17-5-masc.mp3"," ","","ministério","","","",""
"","1328","audio-keyboard-response","424","715145","0.0-3.0-1.349","../audio/17-6-masc.mp3"," ","","diversas","","","",""
"","1240","audio-keyboard-response","425","716665","0.0-3.0-1.350","../audio/17-7-masc.mp3"," ","","vezes.","","","",""
"","null","html-keyboard-response","426","717929","0.0-3.0-0.351-0.351","<span style= ""font-size:30px; font-family: monospace"">+</span>","null","fixation","","","","",""
"","141","audio-keyboard-response","427","718409","0.0-3.0-1.351","../audio/16-1-fem.mp3"," ","","Eu","","","",""
"","1411","audio-keyboard-response","428","720089","0.0-3.0-1.352","../audio/16-2-fem.mp3"," ","","nunca","","","",""
"","1168","audio-keyboard-response","429","721545","0.0-3.0-1.353","../audio/16-3-fem.mp3"," ","","conheci","","","",""
"","981","audio-keyboard-response","430","722809","0.0-3.0-1.354","../audio/16-4-fem.mp3"," ","","um","","","",""
"","1371","audio-keyboard-response","431","724457","0.0-3.0-1.355","../audio/16-5-fem.mp3"," ","","general","","","",""
"","939","audio-keyboard-response","432","725673","0.0-3.0-1.356","../audio/16-6-fem.mp3"," ","","do","","","",""
"","1141","audio-keyboard-response","433","727097","0.0-3.0-1.357","../audio/16-7-fem.mp3"," ","","exército.","","","",""
"","null","html-keyboard-response","434","728367","0.0-3.0-0.358-0.358","<span style= ""font-size:30px; font-family: monospace"">+</span>","null","fixation","","","","",""
"","992","audio-keyboard-response","435","729657","0.0-3.0-1.358","../audio/18-1-masc.mp3"," ","","O","","","",""
"","659","audio-keyboard-response","436","730601","0.0-3.0-1.359","../audio/18-2-masc.mp3"," ","","enredo","","","",""
"","1181","audio-keyboard-response","437","732057","0.0-3.0-1.360","../audio/18-3-masc.mp3"," ","","traz","","","",""
"","1101","audio-keyboard-response","438","733449","0.0-3.0-1.361","../audio/18-4-masc.mp3"," ","","um","","","",""
"","1131","audio-keyboard-response","439","734857","0.0-3.0-1.362","../audio/18-5-masc.mp3"," ","","dragão","","","",""
"","1000","audio-keyboard-response","440","736137","0.0-3.0-1.363","../audio/18-6-masc.mp3"," ","","forte","","","",""
"","960","audio-keyboard-response","441","737369","0.0-3.0-1.364","../audio/18-7-masc.mp3"," ","","e","","","",""
"","1179","audio-keyboard-response","442","738825","0.0-3.0-1.365","../audio/18-8-masc.mp3"," ","","solitário.","","","",""
"","null","html-keyboard-response","443","740079","0.0-3.0-0.366-0.366","<span style= ""font-size:30px; font-family: monospace"">+</span>","null","fixation","","","","",""
"","979","audio-keyboard-response","444","741385","0.0-3.0-1.366","../audio/19-1-fem.mp3"," ","","O","","","",""
"","931","audio-keyboard-response","445","742617","0.0-3.0-1.367","../audio/19-2-fem.mp3"," ","","menino","","","",""
"","989","audio-keyboard-response","446","743881","0.0-3.0-1.368","../audio/19-3-fem.mp3"," ","","ganhou","","","",""
"","1000","audio-keyboard-response","447","745161","0.0-3.0-1.369","../audio/19-4-fem.mp3"," ","","uma","","","",""
"","1000","audio-keyboard-response","448","746473","0.0-3.0-1.370","../audio/19-5-fem.mp3"," ","","bala","","","",""
"","971","audio-keyboard-response","449","747721","0.0-3.0-1.371","../audio/19-6-fem.mp3"," ","","depois","","","",""
"","829","audio-keyboard-response","450","748841","0.0-3.0-1.372","../audio/19-7-fem.mp3"," ","","do","","","",""
"","800","audio-keyboard-response","451","749929","0.0-3.0-1.373","../audio/19-8-fem.mp3"," ","","almoço.","","","",""
"","null","html-keyboard-response","452","751210","0.0-3.0-0.374-0.374","<span style= ""font-size:30px; font-family: monospace"">+</span>","null","fixation","","","","",""
"","549","audio-keyboard-response","453","752073","0.0-3.0-1.374","../audio/20-1-masc.mp3"," ","","O","","","",""
"","1051","audio-keyboard-response","454","753401","0.0-3.0-1.375","../audio/20-2-masc.mp3"," ","","colega","","","",""
"","989","audio-keyboard-response","455","754681","0.0-3.0-1.376","../audio/20-3-masc.mp3"," ","","parecia","","","",""
"","1000","audio-keyboard-response","456","755961","0.0-3.0-1.377","../audio/20-4-masc.mp3"," ","","muito","","","",""
"","1011","audio-keyboard-response","457","757257","0.0-3.0-1.378","../audio/20-5-masc.mp3"," ","","gripado","","","",""
"","960","audio-keyboard-response","458","758489","0.0-3.0-1.379","../audio/20-6-masc.mp3"," ","","no","","","",""
"","928","audio-keyboard-response","459","759705","0.0-3.0-1.380","../audio/20-7-masc.mp3"," ","","dia","","","",""
"","920","audio-keyboard-response","460","760905","0.0-3.0-1.381","../audio/20-8-masc.mp3"," ","","anterior.","","","",""
"","8855","html-keyboard-response","461","770024","0.0-3.0-2.381-0.381","<span style=""font-size:25px; font-family: monospace"">O colega parecia muito gripado?</span>","s","","","O colega parecia muito gripado?","null","exp-sent","false"
"","null","html-keyboard-response","462","771530","0.0-3.0-0.382-0.382","<span style= ""font-size:30px; font-family: monospace"">+</span>","null","fixation","","","","",""
"","779","audio-keyboard-response","463","772585","0.0-3.0-1.382","../audio/13-1-masc.mp3"," ","","Para","","","",""
"","1019","audio-keyboard-response","464","773881","0.0-3.0-1.383","../audio/13-2-masc.mp3"," ","","mim","","","",""
"","949","audio-keyboard-response","465","775161","0.0-3.0-1.384","../audio/13-3-masc.mp3"," ","","é","","","",""
"","1219","audio-keyboard-response","466","776665","0.0-3.0-1.385","../audio/13-4-masc.mp3"," ","","muito","","","",""
"","1301","audio-keyboard-response","467","778249","0.0-3.0-1.386","../audio/13-5-masc.mp3"," ","","difícil","","","",""
"","1131","audio-keyboard-response","468","779657","0.0-3.0-1.387","../audio/13-6-masc.mp3"," ","","acordar","","","",""
"","1120","audio-keyboard-response","469","781049","0.0-3.0-1.388","../audio/13-7-masc.mp3"," ","","cedo.","","","",""
"","null","html-keyboard-response","470","782300","0.0-3.0-0.389-0.389","<span style= ""font-size:30px; font-family: monospace"">+</span>","null","fixation","","","","",""
"","1139","audio-keyboard-response","471","783785","0.0-3.0-1.389","../audio/11-1-fem.mp3"," ","","Elas","","","",""
"","1080","audio-keyboard-response","472","785161","0.0-3.0-1.390","../audio/11-2-fem.mp3"," ","","gostam","","","",""
"","1048","audio-keyboard-response","473","786665","0.0-3.0-1.391","../audio/11-3-fem.mp3"," ","","muito","","","",""
"","739","audio-keyboard-response","474","787721","0.0-3.0-1.392","../audio/11-4-fem.mp3"," ","","de","","","",""
"","1029","audio-keyboard-response","475","789064","0.0-3.0-1.393","../audio/11-5-fem.mp3"," ","","aritmética","","","",""
"","1200","audio-keyboard-response","476","790585","0.0-3.0-1.394","../audio/11-6-fem.mp3"," ","","e","","","",""
"","901","audio-keyboard-response","477","791769","0.0-3.0-1.395","../audio/11-7-fem.mp3"," ","","de","","","",""
"","1000","audio-keyboard-response","478","793048","0.0-3.0-1.396","../audio/11-8-fem.mp3"," ","","leitura.","","","",""
"","null","html-keyboard-response","479","794305","0.0-3.0-0.397-0.397","<span style= ""font-size:30px; font-family: monospace"">+</span>","null","fixation","","","","",""
"","912","audio-keyboard-response","480","795497","0.0-3.0-1.397","../audio/14-1-fem.mp3"," ","","O","","","",""
"","1000","audio-keyboard-response","481","796777","0.0-3.0-1.398","../audio/14-2-fem.mp3"," ","","cachorro","","","",""
"","888","audio-keyboard-response","482","797945","0.0-3.0-1.399","../audio/14-3-fem.mp3"," ","","é","","","",""
"","981","audio-keyboard-response","483","799209","0.0-3.0-1.400","../audio/14-4-fem.mp3"," ","","muito","","","",""
"","1008","audio-keyboard-response","484","800505","0.0-3.0-1.401","../audio/14-5-fem.mp3"," ","","fiel","","","",""
"","1040","audio-keyboard-response","485","801833","0.0-3.0-1.402","../audio/14-6-fem.mp3"," ","","a","","","",""
"","1400","audio-keyboard-response","486","803513","0.0-3.0-1.403","../audio/14-7-fem.mp3"," ","","seus","","","",""
"","1229","audio-keyboard-response","487","805049","0.0-3.0-1.404","../audio/14-8-fem.mp3"," ","","donos.","","","",""
"","null","html-keyboard-response","488","806316","0.0-3.0-0.405-0.405","<span style= ""font-size:30px; font-family: monospace"">+</span>","null","fixation","","","","",""
"","1251","audio-keyboard-response","489","807849","0.0-3.0-1.405","../audio/12-1-masc.mp3"," ","","O","","","",""
"","960","audio-keyboard-response","490","809081","0.0-3.0-1.406","../audio/12-2-masc.mp3"," ","","dia","","","",""
"","1139","audio-keyboard-response","491","810521","0.0-3.0-1.407","../audio/12-3-masc.mp3"," ","","estava","","","",""
"","1040","audio-keyboard-response","492","811849","0.0-3.0-1.408","../audio/12-4-masc.mp3"," ","","quente,","","","",""
"","1131","audio-keyboard-response","493","813257","0.0-3.0-1.409","../audio/12-5-masc.mp3"," ","","tranquilo","","","",""
"","1072","audio-keyboard-response","494","814617","0.0-3.0-1.410","../audio/12-6-masc.mp3"," ","","e","","","",""
"","1109","audio-keyboard-response","495","816009","0.0-3.0-1.411","../audio/12-7-masc.mp3"," ","","ensolarado.","","","",""
"","null","html-keyboard-response","496","817287","0.0-3.0-0.412-0.412","<span style= ""font-size:30px; font-family: monospace"">+</span>","null","fixation","","","","",""
"","181","audio-keyboard-response","497","817768","0.0-3.0-1.412","../audio/15-1-masc.mp3"," ","","Meu","","","",""
"","1149","audio-keyboard-response","498","819193","0.0-3.0-1.413","../audio/15-2-masc.mp3"," ","","primo","","","",""
"","1120","audio-keyboard-response","499","820697","0.0-3.0-1.414","../audio/15-3-masc.mp3"," ","","é","","","",""
"","1011","audio-keyboard-response","500","821993","0.0-3.0-1.415","../audio/15-4-masc.mp3"," ","","um","","","",""
"","1171","audio-keyboard-response","501","823449","0.0-3.0-1.416","../audio/15-5-masc.mp3"," ","","grande","","","",""
"","1179","audio-keyboard-response","502","824905","0.0-3.0-1.417","../audio/15-6-masc.mp3"," ","","vendedor","","","",""
"","941","audio-keyboard-response","503","826137","0.0-3.0-1.418","../audio/15-7-masc.mp3"," ","","de","","","",""
"","1120","audio-keyboard-response","504","827545","0.0-3.0-1.419","../audio/15-8-masc.mp3"," ","","carros.","","","",""
"","6110","html-keyboard-response","505","833913","0.0-3.0-2.419-0.419","<span style=""font-size:25px; font-family: monospace"">O primo é um vendedor de carros?</span>","s","","","O primo é um vendedor de carros?","null","exp-sent","false"
"","null","html-keyboard-response","506","835424","0.0-3.0-0.420-0.420","<span style= ""font-size:30px; font-family: monospace"">+</span>","null","fixation","","","","",""
"","1181","audio-keyboard-response","507","836889","0.0-3.0-1.420","../audio/67-1-fem.mp3"," ","","Minha","","","",""
"","1109","audio-keyboard-response","508","838265","0.0-3.0-1.421","../audio/67-2-fem.mp3"," ","","tia","","","",""
"","1229","audio-keyboard-response","509","839769","0.0-3.0-1.422","../audio/67-3-fem.mp3"," ","","comprou","","","",""
"","1000","audio-keyboard-response","510","841113","0.0-3.0-1.423","../audio/67-4-fem.mp3"," ","","um","","","",""
"","1109","audio-keyboard-response","511","842521","0.0-3.0-1.424","../audio/67-5-fem.mp3"," ","","cordão","","","",""
"","1011","audio-keyboard-response","512","843817","0.0-3.0-1.425","../audio/67-6-fem.mp3"," ","","para","","","",""
"","1011","audio-keyboard-response","513","845113","0.0-3.0-1.426","../audio/67-7-fem.mp3"," ","","o","","","",""
"","979","audio-keyboard-response","514","846393","0.0-3.0-1.427","../audio/67-8-fem.mp3"," ","","varal.","","","",""
"","null","html-keyboard-response","515","847657","0.0-3.0-0.428-0.428","<span style= ""font-size:30px; font-family: monospace"">+</span>","null","fixation","","","","",""
"","32","audio-keyboard-response","516","847977","0.0-3.0-1.428","../audio/68-1-fem.mp3"," ","","Meu","","","",""
"","960","audio-keyboard-response","517","849225","0.0-3.0-1.429","../audio/68-2-fem.mp3"," ","","irmão","","","",""
"","989","audio-keyboard-response","518","850505","0.0-3.0-1.430","../audio/68-3-fem.mp3"," ","","teve","","","",""
"","1149","audio-keyboard-response","519","851993","0.0-3.0-1.431","../audio/68-4-fem.mp3"," ","","um","","","",""
"","1539","audio-keyboard-response","520","853833","0.0-3.0-1.432","../audio/68-5-fem.mp3"," ","","noivado","","","",""
"","1272","audio-keyboard-response","521","855417","0.0-3.0-1.433","../audio/68-6-fem.mp3"," ","","longo","","","",""
"","1171","audio-keyboard-response","522","856889","0.0-3.0-1.434","../audio/68-7-fem.mp3"," ","","e","","","",""
"","1429","audio-keyboard-response","523","858633","0.0-3.0-1.435","../audio/68-8-fem.mp3"," ","","maravilhoso.","","","",""
"","null","html-keyboard-response","524","859910","0.0-3.0-0.436-0.436","<span style= ""font-size:30px; font-family: monospace"">+</span>","null","fixation","","","","",""
"","499","audio-keyboard-response","525","860713","0.0-3.0-1.436","../audio/66-1-fem.mp3"," ","","Não","","","",""
"","1200","audio-keyboard-response","526","862201","0.0-3.0-1.437","../audio/66-2-fem.mp3"," ","","gosto","","","",""
"","941","audio-keyboard-response","527","863417","0.0-3.0-1.438","../audio/66-3-fem.mp3"," ","","de","","","",""
"","1080","audio-keyboard-response","528","864777","0.0-3.0-1.439","../audio/66-4-fem.mp3"," ","","gente","","","",""
"","1299","audio-keyboard-response","529","866361","0.0-3.0-1.440","../audio/66-5-fem.mp3"," ","","egoísta","","","",""
"","1269","audio-keyboard-response","530","867913","0.0-3.0-1.441","../audio/66-6-fem.mp3"," ","","nem","","","",""
"","1419","audio-keyboard-response","531","869625","0.0-3.0-1.442","../audio/66-7-fem.mp3"," ","","chata.","","","",""
"","null","html-keyboard-response","532","870882","0.0-3.0-0.443-0.443","<span style= ""font-size:30px; font-family: monospace"">+</span>","null","fixation","","","","",""
"","251","audio-keyboard-response","533","871417","0.0-3.0-1.443","../audio/69-1-masc.mp3"," ","","A","","","",""
"","1251","audio-keyboard-response","534","872937","0.0-3.0-1.444","../audio/69-2-masc.mp3"," ","","loja","","","",""
"","1331","audio-keyboard-response","535","874537","0.0-3.0-1.445","../audio/69-3-masc.mp3"," ","","recebeu","","","",""
"","1219","audio-keyboard-response","536","876041","0.0-3.0-1.446","../audio/69-4-masc.mp3"," ","","uma","","","",""
"","899","audio-keyboard-response","537","877225","0.0-3.0-1.447","../audio/69-5-masc.mp3"," ","","poltrona","","","",""
"","1000","audio-keyboard-response","538","878505","0.0-3.0-1.448","../audio/69-6-masc.mp3"," ","","de","","","",""
"","941","audio-keyboard-response","539","879737","0.0-3.0-1.449","../audio/69-7-masc.mp3"," ","","couro","","","",""
"","1189","audio-keyboard-response","540","881225","0.0-3.0-1.450","../audio/69-8-masc.mp3"," ","","preto.","","","",""
"","null","html-keyboard-response","541","882478","0.0-3.0-0.451-0.451","<span style= ""font-size:30px; font-family: monospace"">+</span>","null","fixation","","","","",""
"","200","audio-keyboard-response","542","882969","0.0-3.0-1.451","../audio/70-1-fem.mp3"," ","","O","","","",""
"","1131","audio-keyboard-response","543","884377","0.0-3.0-1.452","../audio/70-2-fem.mp3"," ","","meu","","","",""
"","1059","audio-keyboard-response","544","885721","0.0-3.0-1.453","../audio/70-3-fem.mp3"," ","","filho","","","",""
"","981","audio-keyboard-response","545","886969","0.0-3.0-1.454","../audio/70-4-fem.mp3"," ","","tem","","","",""
"","1069","audio-keyboard-response","546","888329","0.0-3.0-1.455","../audio/70-5-fem.mp3"," ","","medo","","","",""
"","939","audio-keyboard-response","547","889545","0.0-3.0-1.456","../audio/70-6-fem.mp3"," ","","de","","","",""
"","1101","audio-keyboard-response","548","890937","0.0-3.0-1.457","../audio/70-7-fem.mp3"," ","","enguia","","","",""
"","909","audio-keyboard-response","549","892121","0.0-3.0-1.458","../audio/70-8-fem.mp3"," ","","e","","","",""
"","1109","audio-keyboard-response","550","893513","0.0-3.0-1.459","../audio/70-9-fem.mp3"," ","","beija-flor.","","","",""
"","19428","html-keyboard-response","551","913192","0.0-3.0-2.459-0.459","<span style=""font-size:25px; font-family: monospace"">O filho tem medo de tigre?</span>","s","","","O filho tem medo de tigre?","null","exp-sent","false"
"","null","html-keyboard-response","552","914708","0.0-3.0-0.460-0.460","<span style= ""font-size:30px; font-family: monospace"">+</span>","null","fixation","","","","",""
"","1000","audio-keyboard-response","553","915992","0.0-3.0-1.460","../audio/74-1-masc.mp3"," ","","Este","","","",""
"","1280","audio-keyboard-response","554","917544","0.0-3.0-1.461","../audio/74-2-masc.mp3"," ","","emprego","","","",""
"","1051","audio-keyboard-response","555","918872","0.0-3.0-1.462","../audio/74-3-masc.mp3"," ","","é","","","",""
"","1179","audio-keyboard-response","556","920344","0.0-3.0-1.463","../audio/74-4-masc.mp3"," ","","muito","","","",""
"","1371","audio-keyboard-response","557","921992","0.0-3.0-1.464","../audio/74-5-masc.mp3"," ","","cansativo","","","",""
"","891","audio-keyboard-response","558","923192","0.0-3.0-1.465","../audio/74-6-masc.mp3"," ","","a","","","",""
"","1229","audio-keyboard-response","559","924712","0.0-3.0-1.466","../audio/74-7-masc.mp3"," ","","longo","","","",""
"","1080","audio-keyboard-response","560","926072","0.0-3.0-1.467","../audio/74-8-masc.mp3"," ","","prazo.","","","",""
"","null","html-keyboard-response","561","927333","0.0-3.0-0.468-0.468","<span style= ""font-size:30px; font-family: monospace"">+</span>","null","fixation","","","","",""
"","1208","audio-keyboard-response","562","928904","0.0-3.0-1.468","../audio/72-1-masc.mp3"," ","","A","","","",""
"","1619","audio-keyboard-response","563","930792","0.0-3.0-1.469","../audio/72-2-masc.mp3"," ","","vencedora","","","",""
"","1491","audio-keyboard-response","564","932568","0.0-3.0-1.470","../audio/72-3-masc.mp3"," ","","recebeu","","","",""
"","1221","audio-keyboard-response","565","934057","0.0-3.0-1.471","../audio/72-4-masc.mp3"," ","","um","","","",""
"","1280","audio-keyboard-response","566","935609","0.0-3.0-1.472","../audio/72-5-masc.mp3"," ","","prêmio","","","",""
"","1440","audio-keyboard-response","567","937336","0.0-3.0-1.473","../audio/72-6-masc.mp3"," ","","em","","","",""
"","1269","audio-keyboard-response","568","938872","0.0-3.0-1.474","../audio/72-7-masc.mp3"," ","","dinheiro.","","","",""
"","null","html-keyboard-response","569","940128","0.0-3.0-0.475-0.475","<span style= ""font-size:30px; font-family: monospace"">+</span>","null","fixation","","","","",""
"","69","audio-keyboard-response","570","940472","0.0-3.0-1.475","../audio/71-1-fem.mp3"," ","","Minhas","","","",""
"","1291","audio-keyboard-response","571","942056","0.0-3.0-1.476","../audio/71-2-fem.mp3"," ","","comidas","","","",""
"","1219","audio-keyboard-response","572","943592","0.0-3.0-1.477","../audio/71-3-fem.mp3"," ","","favoritas","","","",""
"","1251","audio-keyboard-response","573","945128","0.0-3.0-1.478","../audio/71-4-fem.mp3"," ","","são","","","",""
"","1248","audio-keyboard-response","574","946664","0.0-3.0-1.479","../audio/71-5-fem.mp3"," ","","morango","","","",""
"","960","audio-keyboard-response","575","947896","0.0-3.0-1.480","../audio/71-6-fem.mp3"," ","","e","","","",""
"","1160","audio-keyboard-response","576","949336","0.0-3.0-1.481","../audio/71-7-fem.mp3"," ","","uva.","","","",""
"","null","html-keyboard-response","577","950609","0.0-3.0-0.482-0.482","<span style= ""font-size:30px; font-family: monospace"">+</span>","null","fixation","","","","",""
"","549","audio-keyboard-response","578","951448","0.0-3.0-1.482","../audio/73-1-masc.mp3"," ","","O","","","",""
"","1149","audio-keyboard-response","579","952888","0.0-3.0-1.483","../audio/73-2-masc.mp3"," ","","cliente","","","",""
"","1091","audio-keyboard-response","580","954248","0.0-3.0-1.484","../audio/73-3-masc.mp3"," ","","era","","","",""
"","949","audio-keyboard-response","581","955464","0.0-3.0-1.485","../audio/73-4-masc.mp3"," ","","um","","","",""
"","960","audio-keyboard-response","582","956696","0.0-3.0-1.486","../audio/73-5-masc.mp3"," ","","homem","","","",""
"","1200","audio-keyboard-response","583","958184","0.0-3.0-1.487","../audio/73-6-masc.mp3"," ","","muito","","","",""
"","1291","audio-keyboard-response","584","959768","0.0-3.0-1.488","../audio/73-7-masc.mp3"," ","","educado.","","","",""
"","null","html-keyboard-response","585","961025","0.0-3.0-0.489-0.489","<span style= ""font-size:30px; font-family: monospace"">+</span>","null","fixation","","","","",""
"","200","audio-keyboard-response","586","961512","0.0-3.0-1.489","../audio/75-1-masc.mp3"," ","","Só","","","",""
"","1331","audio-keyboard-response","587","963128","0.0-3.0-1.490","../audio/75-2-masc.mp3"," ","","existe","","","",""
"","1109","audio-keyboard-response","588","964521","0.0-3.0-1.491","../audio/75-3-masc.mp3"," ","","uma","","","",""
"","971","audio-keyboard-response","589","965768","0.0-3.0-1.492","../audio/75-4-masc.mp3"," ","","pessoa","","","",""
"","1139","audio-keyboard-response","590","967192","0.0-3.0-1.493","../audio/75-5-masc.mp3"," ","","canhota","","","",""
"","1040","audio-keyboard-response","591","968504","0.0-3.0-1.494","../audio/75-6-masc.mp3"," ","","nesta","","","",""
"","1019","audio-keyboard-response","592","969800","0.0-3.0-1.495","../audio/75-7-masc.mp3"," ","","cidade.","","","",""
"","9637","html-keyboard-response","593","979689","0.0-3.0-2.495-0.495","<span style=""font-size:25px; font-family: monospace"">Só existe uma pessoa canhota na cidade?</span>","s","","","Só existe uma pessoa canhota na cidade?","null","exp-sent","false"
"","null","html-keyboard-response","594","981209","0.0-3.0-0.496-0.496","<span style= ""font-size:30px; font-family: monospace"">+</span>","null","fixation","","","","",""
"","1011","audio-keyboard-response","595","982520","0.0-3.0-1.496","../audio/31-1-masc.mp3"," ","","O","","","",""
"","1149","audio-keyboard-response","596","983945","0.0-3.0-1.497","../audio/31-2-masc.mp3"," ","","padeiro","","","",""
"","931","audio-keyboard-response","597","985161","0.0-3.0-1.498","../audio/31-3-masc.mp3"," ","","usou","","","",""
"","880","audio-keyboard-response","598","986312","0.0-3.0-1.499","../audio/31-4-masc.mp3"," ","","a","","","",""
"","1000","audio-keyboard-response","599","987592","0.0-3.0-1.500","../audio/31-5-masc.mp3"," ","","balança","","","",""
"","800","audio-keyboard-response","600","988680","0.0-3.0-1.501","../audio/31-6-masc.mp3"," ","","o","","","",""
"","739","audio-keyboard-response","601","989705","0.0-3.0-1.502","../audio/31-7-masc.mp3"," ","","dia","","","",""
"","848","audio-keyboard-response","602","990824","0.0-3.0-1.503","../audio/31-8-masc.mp3"," ","","inteiro.","","","",""
"","null","html-keyboard-response","603","992080","0.0-3.0-0.504-0.504","<span style= ""font-size:30px; font-family: monospace"">+</span>","null","fixation","","","","",""
"","1139","audio-keyboard-response","604","993512","0.0-3.0-1.504","../audio/32-1-fem.mp3"," ","","A","","","",""
"","851","audio-keyboard-response","605","994632","0.0-3.0-1.505","../audio/32-2-fem.mp3"," ","","tia","","","",""
"","981","audio-keyboard-response","606","995929","0.0-3.0-1.506","../audio/32-3-fem.mp3"," ","","comprou","","","",""
"","800","audio-keyboard-response","607","997001","0.0-3.0-1.507","../audio/32-4-fem.mp3"," ","","um","","","",""
"","781","audio-keyboard-response","608","998057","0.0-3.0-1.508","../audio/32-5-fem.mp3"," ","","pilão","","","",""
"","859","audio-keyboard-response","609","999192","0.0-3.0-1.509","../audio/32-6-fem.mp3"," ","","para","","","",""
"","851","audio-keyboard-response","610","1000329","0.0-3.0-1.510","../audio/32-7-fem.mp3"," ","","a","","","",""
"","1008","audio-keyboard-response","611","1001625","0.0-3.0-1.511","../audio/32-8-fem.mp3"," ","","cozinha.","","","",""
"","null","html-keyboard-response","612","1002890","0.0-3.0-0.512-0.512","<span style= ""font-size:30px; font-family: monospace"">+</span>","null","fixation","","","","",""
"","1200","audio-keyboard-response","613","1004392","0.0-3.0-1.512","../audio/34-1-fem.mp3"," ","","Cobrança","","","",""
"","909","audio-keyboard-response","614","1005640","0.0-3.0-1.513","../audio/34-2-fem.mp3"," ","","excessiva","","","",""
"","771","audio-keyboard-response","615","1006697","0.0-3.0-1.514","../audio/34-3-fem.mp3"," ","","é","","","",""
"","859","audio-keyboard-response","616","1007833","0.0-3.0-1.515","../audio/34-4-fem.mp3"," ","","um","","","",""
"","949","audio-keyboard-response","617","1009144","0.0-3.0-1.516","../audio/34-5-fem.mp3"," ","","fardo","","","",""
"","840","audio-keyboard-response","618","1010264","0.0-3.0-1.517","../audio/34-6-fem.mp3"," ","","para","","","",""
"","741","audio-keyboard-response","619","1011289","0.0-3.0-1.518","../audio/34-7-fem.mp3"," ","","a","","","",""
"","909","audio-keyboard-response","620","1012472","0.0-3.0-1.519","../audio/34-8-fem.mp3"," ","","cabeça.","","","",""
"","null","html-keyboard-response","621","1013750","0.0-3.0-0.520-0.520","<span style= ""font-size:30px; font-family: monospace"">+</span>","null","fixation","","","","",""
"","1059","audio-keyboard-response","622","1015112","0.0-3.0-1.520","../audio/33-1-fem.mp3"," ","","Eles","","","",""
"","1152","audio-keyboard-response","623","1016536","0.0-3.0-1.521","../audio/33-2-fem.mp3"," ","","sabem","","","",""
"","819","audio-keyboard-response","624","1017641","0.0-3.0-1.522","../audio/33-3-fem.mp3"," ","","do","","","",""
"","821","audio-keyboard-response","625","1018728","0.0-3.0-1.523","../audio/33-4-fem.mp3"," ","","seu","","","",""
"","1011","audio-keyboard-response","626","1020041","0.0-3.0-1.524","../audio/33-5-fem.mp3"," ","","privilégio","","","",""
"","1149","audio-keyboard-response","627","1021465","0.0-3.0-1.525","../audio/33-6-fem.mp3"," ","","nessa","","","",""
"","979","audio-keyboard-response","628","1022712","0.0-3.0-1.526","../audio/33-7-fem.mp3"," ","","confusão.","","","",""
"","null","html-keyboard-response","629","1023979","0.0-3.0-0.527-0.527","<span style= ""font-size:30px; font-family: monospace"">+</span>","null","fixation","","","","",""
"","149","audio-keyboard-response","630","1024441","0.0-3.0-1.527","../audio/35-1-fem.mp3"," ","","A","","","",""
"","1459","audio-keyboard-response","631","1026184","0.0-3.0-1.528","../audio/35-2-fem.mp3"," ","","receita","","","",""
"","981","audio-keyboard-response","632","1027448","0.0-3.0-1.529","../audio/35-3-fem.mp3"," ","","para","","","",""
"","1029","audio-keyboard-response","633","1028761","0.0-3.0-1.530","../audio/35-4-fem.mp3"," ","","a","","","",""
"","1189","audio-keyboard-response","634","1030232","0.0-3.0-1.531","../audio/35-5-fem.mp3"," ","","preparação","","","",""
"","1069","audio-keyboard-response","635","1031625","0.0-3.0-1.532","../audio/35-6-fem.mp3"," ","","do","","","",""
"","1069","audio-keyboard-response","636","1032969","0.0-3.0-1.533","../audio/35-7-fem.mp3"," ","","bolo","","","",""
"","779","audio-keyboard-response","637","1034024","0.0-3.0-1.534","../audio/35-8-fem.mp3"," ","","é","","","",""
"","1051","audio-keyboard-response","638","1035352","0.0-3.0-1.535","../audio/35-9-fem.mp3"," ","","leve.","","","",""
"","8220","html-keyboard-response","639","1043832","0.0-3.0-2.535-0.535","<span style=""font-size:25px; font-family: monospace"">A receita do bolo é pesada?</span>","n","","","A receita do bolo é pesada?","null","exp-sent","false"
"","null","html-keyboard-response","640","1045335","0.0-3.0-0.536-0.536","<span style= ""font-size:30px; font-family: monospace"">+</span>","null","fixation","","","","",""
"","739","audio-keyboard-response","641","1046360","0.0-3.0-1.536","../audio/38-1-masc.mp3"," ","","A","","","",""
"","1091","audio-keyboard-response","642","1047736","0.0-3.0-1.537","../audio/38-2-masc.mp3"," ","","empresa","","","",""
"","912","audio-keyboard-response","643","1048936","0.0-3.0-1.538","../audio/38-3-masc.mp3"," ","","criou","","","",""
"","859","audio-keyboard-response","644","1050072","0.0-3.0-1.539","../audio/38-4-masc.mp3"," ","","a","","","",""
"","1189","audio-keyboard-response","645","1051544","0.0-3.0-1.540","../audio/38-5-masc.mp3"," ","","patente","","","",""
"","920","audio-keyboard-response","646","1052744","0.0-3.0-1.541","../audio/38-6-masc.mp3"," ","","da","","","",""
"","1189","audio-keyboard-response","647","1054280","0.0-3.0-1.542","../audio/38-7-masc.mp3"," ","","frigideira.","","","",""
"","null","html-keyboard-response","648","1055535","0.0-3.0-0.543-0.543","<span style= ""font-size:30px; font-family: monospace"">+</span>","null","fixation","","","","",""
"","1061","audio-keyboard-response","649","1056888","0.0-3.0-1.543","../audio/36-1-fem.mp3"," ","","Meu","","","",""
"","859","audio-keyboard-response","650","1058040","0.0-3.0-1.544","../audio/36-2-fem.mp3"," ","","tio","","","",""
"","960","audio-keyboard-response","651","1059288","0.0-3.0-1.545","../audio/36-3-fem.mp3"," ","","comprou","","","",""
"","768","audio-keyboard-response","652","1060344","0.0-3.0-1.546","../audio/36-4-fem.mp3"," ","","um","","","",""
"","968","audio-keyboard-response","653","1061624","0.0-3.0-1.547","../audio/36-5-fem.mp3"," ","","filtro","","","",""
"","859","audio-keyboard-response","654","1062760","0.0-3.0-1.548","../audio/36-6-fem.mp3"," ","","de","","","",""
"","1101","audio-keyboard-response","655","1064136","0.0-3.0-1.549","../audio/36-7-fem.mp3"," ","","água","","","",""
"","1109","audio-keyboard-response","656","1065512","0.0-3.0-1.550","../audio/36-8-fem.mp3"," ","","hoje","","","",""
"","1021","audio-keyboard-response","657","1066808","0.0-3.0-1.551","../audio/36-9-fem.mp3"," ","","cedo.","","","",""
"","null","html-keyboard-response","658","1068075","0.0-3.0-0.552-0.552","<span style= ""font-size:30px; font-family: monospace"">+</span>","null","fixation","","","","",""
"","869","audio-keyboard-response","659","1069240","0.0-3.0-1.552","../audio/37-1-masc.mp3"," ","","Eu","","","",""
"","981","audio-keyboard-response","660","1070488","0.0-3.0-1.553","../audio/37-2-masc.mp3"," ","","adoro","","","",""
"","960","audio-keyboard-response","661","1071736","0.0-3.0-1.554","../audio/37-3-masc.mp3"," ","","suco","","","",""
"","789","audio-keyboard-response","662","1072808","0.0-3.0-1.555","../audio/37-4-masc.mp3"," ","","de","","","",""
"","949","audio-keyboard-response","663","1074040","0.0-3.0-1.556","../audio/37-5-masc.mp3"," ","","manga","","","",""
"","981","audio-keyboard-response","664","1075288","0.0-3.0-1.557","../audio/37-6-masc.mp3"," ","","com","","","",""
"","1208","audio-keyboard-response","665","1076824","0.0-3.0-1.558","../audio/37-7-masc.mp3"," ","","hortelã.","","","",""
"","null","html-keyboard-response","666","1078103","0.0-3.0-0.559-0.559","<span style= ""font-size:30px; font-family: monospace"">+</span>","null","fixation","","","","",""
"","712","audio-keyboard-response","667","1079096","0.0-3.0-1.559","../audio/39-1-fem.mp3"," ","","O","","","",""
"","1061","audio-keyboard-response","668","1080488","0.0-3.0-1.560","../audio/39-2-fem.mp3"," ","","conselho","","","",""
"","869","audio-keyboard-response","669","1081624","0.0-3.0-1.561","../audio/39-3-fem.mp3"," ","","foi","","","",""
"","848","audio-keyboard-response","670","1082744","0.0-3.0-1.562","../audio/39-4-fem.mp3"," ","","muito","","","",""
"","971","audio-keyboard-response","671","1084008","0.0-3.0-1.563","../audio/39-5-fem.mp3"," ","","útil","","","",""
"","869","audio-keyboard-response","672","1085144","0.0-3.0-1.564","../audio/39-6-fem.mp3"," ","","para","","","",""
"","1051","audio-keyboard-response","673","1086471","0.0-3.0-1.565","../audio/39-7-fem.mp3"," ","","minha","","","",""
"","1139","audio-keyboard-response","674","1087911","0.0-3.0-1.566","../audio/39-8-fem.mp3"," ","","tia.","","","",""
"","null","html-keyboard-response","675","1089175","0.0-3.0-0.567-0.567","<span style= ""font-size:30px; font-family: monospace"">+</span>","null","fixation","","","","",""
"","211","audio-keyboard-response","676","1089672","0.0-3.0-1.567","../audio/40-1-masc.mp3"," ","","O","","","",""
"","1061","audio-keyboard-response","677","1091015","0.0-3.0-1.568","../audio/40-2-masc.mp3"," ","","jogo","","","",""
"","1048","audio-keyboard-response","678","1092344","0.0-3.0-1.569","../audio/40-3-masc.mp3"," ","","falava","","","",""
"","779","audio-keyboard-response","679","1093399","0.0-3.0-1.570","../audio/40-4-masc.mp3"," ","","de","","","",""
"","979","audio-keyboard-response","680","1094664","0.0-3.0-1.571","../audio/40-5-masc.mp3"," ","","fantasia","","","",""
"","1000","audio-keyboard-response","681","1095944","0.0-3.0-1.572","../audio/40-6-masc.mp3"," ","","e","","","",""
"","859","audio-keyboard-response","682","1097080","0.0-3.0-1.573","../audio/40-7-masc.mp3"," ","","de","","","",""
"","1051","audio-keyboard-response","683","1098408","0.0-3.0-1.574","../audio/40-8-masc.mp3"," ","","aventura.","","","",""
"","10258","html-keyboard-response","684","1108920","0.0-3.0-2.574-0.574","<span style=""font-size:25px; font-family: monospace"">O jogo tinha fantasia e aventura?</span>","s","","","O jogo tinha fantasia e aventura?","null","exp-sent","false"
"","null","html-keyboard-response","685","1110436","0.0-3.0-0.575-0.575","<span style= ""font-size:30px; font-family: monospace"">+</span>","null","fixation","","","","",""
"","1219","audio-keyboard-response","686","1111943","0.0-3.0-1.575","../audio/08-1-fem.mp3"," ","","A","","","",""
"","1251","audio-keyboard-response","687","1113591","0.0-3.0-1.576","../audio/08-2-fem.mp3"," ","","receita","","","",""
"","1072","audio-keyboard-response","688","1114935","0.0-3.0-1.577","../audio/08-3-fem.mp3"," ","","pede","","","",""
"","901","audio-keyboard-response","689","1116135","0.0-3.0-1.578","../audio/08-4-fem.mp3"," ","","um","","","",""
"","1139","audio-keyboard-response","690","1117543","0.0-3.0-1.579","../audio/08-5-fem.mp3"," ","","litro","","","",""
"","1008","audio-keyboard-response","691","1118824","0.0-3.0-1.580","../audio/08-6-fem.mp3"," ","","de","","","",""
"","1061","audio-keyboard-response","692","1120167","0.0-3.0-1.581","../audio/08-7-fem.mp3"," ","","leite","","","",""
"","1200","audio-keyboard-response","693","1121655","0.0-3.0-1.582","../audio/08-8-fem.mp3"," ","","integral.","","","",""
"","null","html-keyboard-response","694","1122926","0.0-3.0-0.583-0.583","<span style= ""font-size:30px; font-family: monospace"">+</span>","null","fixation","","","","",""
"","179","audio-keyboard-response","695","1123399","0.0-3.0-1.583","../audio/09-1-masc.mp3"," ","","O","","","",""
"","1291","audio-keyboard-response","696","1124967","0.0-3.0-1.584","../audio/09-2-masc.mp3"," ","","rapaz","","","",""
"","1240","audio-keyboard-response","697","1126487","0.0-3.0-1.585","../audio/09-3-masc.mp3"," ","","limpou","","","",""
"","1019","audio-keyboard-response","698","1127783","0.0-3.0-1.586","../audio/09-4-masc.mp3"," ","","o","","","",""
"","1000","audio-keyboard-response","699","1129079","0.0-3.0-1.587","../audio/09-5-masc.mp3"," ","","terreno","","","",""
"","1080","audio-keyboard-response","700","1130455","0.0-3.0-1.588","../audio/09-6-masc.mp3"," ","","com","","","",""
"","981","audio-keyboard-response","701","1131767","0.0-3.0-1.589","../audio/09-7-masc.mp3"," ","","uma","","","",""
"","960","audio-keyboard-response","702","1133047","0.0-3.0-1.590","../audio/09-8-masc.mp3"," ","","pá.","","","",""
"","null","html-keyboard-response","703","1134312","0.0-3.0-0.591-0.591","<span style= ""font-size:30px; font-family: monospace"">+</span>","null","fixation","","","","",""
"","389","audio-keyboard-response","704","1134999","0.0-3.0-1.591","../audio/06-1-fem.mp3"," ","","Ouvimos","","","",""
"","1261","audio-keyboard-response","705","1136535","0.0-3.0-1.592","../audio/06-2-fem.mp3"," ","","a","","","",""
"","1072","audio-keyboard-response","706","1137895","0.0-3.0-1.593","../audio/06-3-fem.mp3"," ","","fala","","","",""
"","1389","audio-keyboard-response","707","1139559","0.0-3.0-1.594","../audio/06-4-fem.mp3"," ","","do","","","",""
"","1349","audio-keyboard-response","708","1141223","0.0-3.0-1.595","../audio/06-5-fem.mp3"," ","","profeta","","","",""
"","1280","audio-keyboard-response","709","1142775","0.0-3.0-1.596","../audio/06-6-fem.mp3"," ","","no","","","",""
"","1139","audio-keyboard-response","710","1144183","0.0-3.0-1.597","../audio/06-7-fem.mp3"," ","","púlpito","","","",""
"","1141","audio-keyboard-response","711","1145607","0.0-3.0-1.598","../audio/06-8-fem.mp3"," ","","da","","","",""
"","1200","audio-keyboard-response","712","1147095","0.0-3.0-1.599","../audio/06-9-fem.mp3"," ","","igreja.","","","",""
"","null","html-keyboard-response","713","1148353","0.0-3.0-0.600-0.600","<span style= ""font-size:30px; font-family: monospace"">+</span>","null","fixation","","","","",""
"","400","audio-keyboard-response","714","1149031","0.0-3.0-1.600","../audio/07-1-masc.mp3"," ","","Meu","","","",""
"","1171","audio-keyboard-response","715","1150471","0.0-3.0-1.601","../audio/07-2-masc.mp3"," ","","filho","","","",""
"","968","audio-keyboard-response","716","1151703","0.0-3.0-1.602","../audio/07-3-masc.mp3"," ","","é","","","",""
"","1120","audio-keyboard-response","717","1153095","0.0-3.0-1.603","../audio/07-4-masc.mp3"," ","","muito","","","",""
"","1491","audio-keyboard-response","718","1154855","0.0-3.0-1.604","../audio/07-5-masc.mp3"," ","","responsável","","","",""
"","1069","audio-keyboard-response","719","1156199","0.0-3.0-1.605","../audio/07-6-masc.mp3"," ","","nos","","","",""
"","1160","audio-keyboard-response","720","1157639","0.0-3.0-1.606","../audio/07-7-masc.mp3"," ","","estudos.","","","",""
"","null","html-keyboard-response","721","1158908","0.0-3.0-0.607-0.607","<span style= ""font-size:30px; font-family: monospace"">+</span>","null","fixation","","","","",""
"","1232","audio-keyboard-response","722","1160695","0.0-3.0-1.607","../audio/10-1-masc.mp3"," ","","O","","","",""
"","1189","audio-keyboard-response","723","1162151","0.0-3.0-1.608","../audio/10-2-masc.mp3"," ","","pássaro","","","",""
"","1181","audio-keyboard-response","724","1163607","0.0-3.0-1.609","../audio/10-3-masc.mp3"," ","","azul","","","",""
"","1211","audio-keyboard-response","725","1165096","0.0-3.0-1.610","../audio/10-4-masc.mp3"," ","","estava","","","",""
"","1029","audio-keyboard-response","726","1166391","0.0-3.0-1.611","../audio/10-5-masc.mp3"," ","","vivo","","","",""
"","1000","audio-keyboard-response","727","1167671","0.0-3.0-1.612","../audio/10-6-masc.mp3"," ","","e","","","",""
"","1011","audio-keyboard-response","728","1168967","0.0-3.0-1.613","../audio/10-7-masc.mp3"," ","","em","","","",""
"","1179","audio-keyboard-response","729","1170423","0.0-3.0-1.614","../audio/10-8-masc.mp3"," ","","segurança.","","","",""
"","8187","html-keyboard-response","730","1178871","0.0-3.0-2.614-0.614","<span style=""font-size:25px; font-family: monospace"">O pássaro vermelho estava em segurança?</span>","s","","","O pássaro vermelho estava em segurança?","null","exp-sent","false"
"[{""page_index"":0,""viewing_time"":12415}]","12415","instructions","731","1191792","0.0-4.0","","","","","","","",""
