"view_history","rt","trial_type","trial_index","time_elapsed","internal_node_id","stimulus","response","class","status","answer","correct","trial","letters"
"[{""page_index"":0,""viewing_time"":8601}]","8601","instructions","0","8601","0.0-0.0","","","","","","","",""
"","null","html-keyboard-response","1","9205","0.0-1.0-0.0","+","null","","","","","",""
"","55539","html-keyboard-response","2","64744","0.0-1.0-1.0","daja","n","null","noncog","pseudo","N","prac","null"
"","null","html-keyboard-response","3","65246","0.0-1.0-0.1","+","null","","","","","",""
"","43562","html-keyboard-response","4","108809","0.0-1.0-1.1","crante","n","null","noncog","pseudo","N","prac","null"
"","null","html-keyboard-response","5","109309","0.0-1.0-0.2","+","null","","","","","",""
"","37291","html-keyboard-response","6","146601","0.0-1.0-1.2","chassi","n","null","cog","word","S","prac","null"
"","null","html-keyboard-response","7","147102","0.0-1.0-0.3","+","null","","","","","",""
"","37674","html-keyboard-response","8","184777","0.0-1.0-1.3","calmaria","n","null","noncog","word","S","prac","null"
"","null","html-keyboard-response","9","185278","0.0-1.0-0.4","+","null","","","","","",""
"","10666","html-keyboard-response","10","195945","0.0-1.0-1.4","órgão","s","null","noncog","word","S","prac","null"
"","null","html-keyboard-response","11","196446","0.0-1.0-0.5","+","null","","","","","",""
"","9978","html-keyboard-response","12","206425","0.0-1.0-1.5","plibar","n","null","noncog","pseudo","N","prac","null"
"","null","html-keyboard-response","13","206926","0.0-1.0-0.6","+","null","","","","","",""
"","9067","html-keyboard-response","14","215993","0.0-1.0-1.6","oliva","s","null","cog","word","S","prac","null"
"[{""page_index"":0,""viewing_time"":8280}]","8280","instructions","15","224273","0.0-2.0","","","","","","","",""
"","null","html-keyboard-response","16","224874","0.0-3.0-0.0","+","null","","","","","",""
"","4014","html-keyboard-response","17","228889","0.0-3.0-1.0","ótimo","s","a","noncog","word","S","exp","5"
"","null","html-keyboard-response","18","229390","0.0-3.0-0.1","+","null","","","","","",""
"","5291","html-keyboard-response","19","234681","0.0-3.0-1.1","nevela","s","null","noncog","pseudo","N","exp","null"
"","null","html-keyboard-response","20","235182","0.0-3.0-0.2","+","null","","","","","",""
"","4154","html-keyboard-response","21","239337","0.0-3.0-1.2","bagunceira","s","a","noncog","word","S","exp","10"
"","null","html-keyboard-response","22","239839","0.0-3.0-0.3","+","null","","","","","",""
"","9002","html-keyboard-response","23","248841","0.0-3.0-1.3","perdão","s","n","noncog","word","S","exp","6"
"","null","html-keyboard-response","24","249342","0.0-3.0-0.4","+","null","","","","","",""
"","11323","html-keyboard-response","25","260665","0.0-3.0-1.4","dacada","n","null","noncog","pseudo","N","exp","null"
"","null","html-keyboard-response","26","261166","0.0-3.0-0.5","+","null","","","","","",""
"","5450","html-keyboard-response","27","266617","0.0-3.0-1.5","fasdas","n","null","noncog","pseudo","N","exp","null"
"","null","html-keyboard-response","28","267118","0.0-3.0-0.6","+","null","","","","","",""
"","5162","html-keyboard-response","29","272280","0.0-3.0-1.6","animado","s","a","noncog","word","S","exp","7"
"","null","html-keyboard-response","30","272781","0.0-3.0-0.7","+","null","","","","","",""
"","3627","html-keyboard-response","31","276409","0.0-3.0-1.7","grátis","s","a","cog","word","S","exp","6"
"","null","html-keyboard-response","32","276909","0.0-3.0-0.8","+","null","","","","","",""
"","18523","html-keyboard-response","33","295433","0.0-3.0-1.8","dencosto","n","null","noncog","pseudo","N","exp","null"
"","null","html-keyboard-response","34","295934","0.0-3.0-0.9","+","null","","","","","",""
"","8347","html-keyboard-response","35","304281","0.0-3.0-1.9","bambu","s","n","cog","word","S","exp","5"
"","null","html-keyboard-response","36","304782","0.0-3.0-0.10","+","null","","","","","",""
"","25274","html-keyboard-response","37","330056","0.0-3.0-1.10","distraído","n","a","cog","word","S","exp","9"
"","null","html-keyboard-response","38","330557","0.0-3.0-0.11","+","null","","","","","",""
"","10571","html-keyboard-response","39","341128","0.0-3.0-1.11","avenas","n","null","noncog","pseudo","N","exp","null"
"","null","html-keyboard-response","40","341629","0.0-3.0-0.12","+","null","","","","","",""
"","3867","html-keyboard-response","41","345496","0.0-3.0-1.12","barco","s","n","cog","word","S","exp","5"
"","null","html-keyboard-response","42","345997","0.0-3.0-0.13","+","null","","","","","",""
"","4379","html-keyboard-response","43","350376","0.0-3.0-1.13","chorão","s","a","noncog","word","S","exp","6"
"","null","html-keyboard-response","44","350878","0.0-3.0-0.14","+","null","","","","","",""
"","7898","html-keyboard-response","45","358776","0.0-3.0-1.14","terdia","n","null","noncog","pseudo","N","exp","null"
"","null","html-keyboard-response","46","359277","0.0-3.0-0.15","+","null","","","","","",""
"","8698","html-keyboard-response","47","367976","0.0-3.0-1.15","refletir","n","v","cog","word","S","exp","8"
"","null","html-keyboard-response","48","368477","0.0-3.0-0.16","+","null","","","","","",""
"","5051","html-keyboard-response","49","373528","0.0-3.0-1.16","beima","n","null","noncog","pseudo","N","exp","null"
"","null","html-keyboard-response","50","374029","0.0-3.0-0.17","+","null","","","","","",""
"","4586","html-keyboard-response","51","378616","0.0-3.0-1.17","destino","n","n","cog","word","S","exp","7"
"","null","html-keyboard-response","52","379118","0.0-3.0-0.18","+","null","","","","","",""
"","9482","html-keyboard-response","53","388600","0.0-3.0-1.18","ronronar","n","v","cog","word","S","exp","8"
"","null","html-keyboard-response","54","389101","0.0-3.0-0.19","+","null","","","","","",""
"","7098","html-keyboard-response","55","396200","0.0-3.0-1.19","hedoru","n","null","noncog","pseudo","N","exp","null"
"","null","html-keyboard-response","56","396701","0.0-3.0-0.20","+","null","","","","","",""
"","5915","html-keyboard-response","57","402616","0.0-3.0-1.20","gruja","n","null","noncog","pseudo","N","exp","null"
"","null","html-keyboard-response","58","403124","0.0-3.0-0.21","+","null","","","","","",""
"","11220","html-keyboard-response","59","414344","0.0-3.0-1.21","ensuas","n","null","noncog","pseudo","N","exp","null"
"","null","html-keyboard-response","60","414845","0.0-3.0-0.22","+","null","","","","","",""
"","13723","html-keyboard-response","61","428569","0.0-3.0-1.22","nervoso","n","a","noncog","word","S","exp","7"
"","null","html-keyboard-response","62","429069","0.0-3.0-0.23","+","null","","","","","",""
"","4170","html-keyboard-response","63","433240","0.0-3.0-1.23","boreta","s","null","noncog","pseudo","N","exp","null"
"","null","html-keyboard-response","64","433742","0.0-3.0-0.24","+","null","","","","","",""
"","3434","html-keyboard-response","65","437176","0.0-3.0-1.24","cinema","s","n","cog","word","S","exp","6"
"","null","html-keyboard-response","66","437688","0.0-3.0-0.25","+","null","","","","","",""
"","7056","html-keyboard-response","67","444744","0.0-3.0-1.25","raspar","n","v","noncog","word","S","exp","6"
"","null","html-keyboard-response","68","445245","0.0-3.0-0.26","+","null","","","","","",""
"","16795","html-keyboard-response","69","462040","0.0-3.0-1.26","pneucania","n","null","noncog","pseudo","N","exp","null"
"","null","html-keyboard-response","70","462540","0.0-3.0-0.27","+","null","","","","","",""
"","3290","html-keyboard-response","71","465831","0.0-3.0-1.27","fogão","s","n","noncog","word","S","exp","5"
"","null","html-keyboard-response","72","466332","0.0-3.0-0.28","+","null","","","","","",""
"","5579","html-keyboard-response","73","471911","0.0-3.0-1.28","atapdar","n","null","noncog","pseudo","N","exp","null"
"","null","html-keyboard-response","74","472413","0.0-3.0-0.29","+","null","","","","","",""
"","3866","html-keyboard-response","75","476279","0.0-3.0-1.29","melão","s","n","cog","word","S","exp","5"
"","null","html-keyboard-response","76","476781","0.0-3.0-0.30","+","null","","","","","",""
"","12490","html-keyboard-response","77","489271","0.0-3.0-1.30","euorpa","n","null","noncog","pseudo","N","exp","null"
"","null","html-keyboard-response","78","489772","0.0-3.0-0.31","+","null","","","","","",""
"","12411","html-keyboard-response","79","502183","0.0-3.0-1.31","cirado","n","null","noncog","pseudo","N","exp","null"
"","null","html-keyboard-response","80","502684","0.0-3.0-0.32","+","null","","","","","",""
"","5435","html-keyboard-response","81","508119","0.0-3.0-1.32","usfiga","n","null","noncog","pseudo","N","exp","null"
"","null","html-keyboard-response","82","508620","0.0-3.0-0.33","+","null","","","","","",""
"","11962","html-keyboard-response","83","520583","0.0-3.0-1.33","enxerido","n","a","noncog","word","S","exp","8"
"","null","html-keyboard-response","84","521084","0.0-3.0-0.34","+","null","","","","","",""
"","3418","html-keyboard-response","85","524503","0.0-3.0-1.34","jantar","s","v","noncog","word","S","exp","6"
"","null","html-keyboard-response","86","525006","0.0-3.0-0.35","+","null","","","","","",""
"","5401","html-keyboard-response","87","530407","0.0-3.0-1.35","gertas","n","null","noncog","pseudo","N","exp","null"
"","null","html-keyboard-response","88","530909","0.0-3.0-0.36","+","null","","","","","",""
"","6858","html-keyboard-response","89","537767","0.0-3.0-1.36","rédesa","n","null","noncog","pseudo","N","exp","null"
"","null","html-keyboard-response","90","538268","0.0-3.0-0.37","+","null","","","","","",""
"","4747","html-keyboard-response","91","543016","0.0-3.0-1.37","instruído","s","a","noncog","word","S","exp","9"
"","null","html-keyboard-response","92","543516","0.0-3.0-0.38","+","null","","","","","",""
"","10267","html-keyboard-response","93","553783","0.0-3.0-1.38","disbrituir","n","null","noncog","pseudo","N","exp","null"
"","null","html-keyboard-response","94","554284","0.0-3.0-0.39","+","null","","","","","",""
"","11211","html-keyboard-response","95","565495","0.0-3.0-1.39","pimada","n","null","noncog","pseudo","N","exp","null"
"","null","html-keyboard-response","96","565996","0.0-3.0-0.40","+","null","","","","","",""
"","5083","html-keyboard-response","97","571079","0.0-3.0-1.40","cristal","s","n","cog","word","S","exp","7"
"","null","html-keyboard-response","98","571580","0.0-3.0-0.41","+","null","","","","","",""
"","11466","html-keyboard-response","99","583047","0.0-3.0-1.41","ejerro","n","null","noncog","pseudo","N","exp","null"
"","null","html-keyboard-response","100","583551","0.0-3.0-0.42","+","null","","","","","",""
"","18952","html-keyboard-response","101","602503","0.0-3.0-1.42","gordo","n","a","noncog","word","S","exp","5"
"","null","html-keyboard-response","102","603003","0.0-3.0-0.43","+","null","","","","","",""
"","2987","html-keyboard-response","103","605991","0.0-3.0-1.43","azul","s","n","noncog","word","S","exp","4"
"","null","html-keyboard-response","104","606492","0.0-3.0-0.44","+","null","","","","","",""
"","4570","html-keyboard-response","105","611063","0.0-3.0-1.44","pangos","n","null","noncog","pseudo","N","exp","null"
"","null","html-keyboard-response","106","611563","0.0-3.0-0.45","+","null","","","","","",""
"","4171","html-keyboard-response","107","615735","0.0-3.0-1.45","esprotiar","n","null","noncog","pseudo","N","exp","null"
"","null","html-keyboard-response","108","616235","0.0-3.0-0.46","+","null","","","","","",""
"","12347","html-keyboard-response","109","628583","0.0-3.0-1.46","deselegante","s","a","noncog","word","S","exp","11"
"","null","html-keyboard-response","110","629083","0.0-3.0-0.47","+","null","","","","","",""
"","11899","html-keyboard-response","111","640983","0.0-3.0-1.47","arranjar","n","v","cog","word","S","exp","8"
"","null","html-keyboard-response","112","641483","0.0-3.0-0.48","+","null","","","","","",""
"","10139","html-keyboard-response","113","651623","0.0-3.0-1.48","pantufa","s","n","cog","word","S","exp","7"
"","null","html-keyboard-response","114","652124","0.0-3.0-0.49","+","null","","","","","",""
"","8042","html-keyboard-response","115","660167","0.0-3.0-1.49","irratinte","n","null","noncog","pseudo","N","exp","null"
"","null","html-keyboard-response","116","660667","0.0-3.0-0.50","+","null","","","","","",""
"","5243","html-keyboard-response","117","665910","0.0-3.0-1.50","âgnulo","n","null","noncog","pseudo","N","exp","null"
"","null","html-keyboard-response","118","666418","0.0-3.0-0.51","+","null","","","","","",""
"","4532","html-keyboard-response","119","670950","0.0-3.0-1.51","lagras","n","null","noncog","pseudo","N","exp","null"
"","null","html-keyboard-response","120","671452","0.0-3.0-0.52","+","null","","","","","",""
"","4442","html-keyboard-response","121","675894","0.0-3.0-1.52","sanque","n","null","noncog","pseudo","N","exp","null"
"","null","html-keyboard-response","122","676396","0.0-3.0-0.53","+","null","","","","","",""
"","3690","html-keyboard-response","123","680086","0.0-3.0-1.53","hébies","n","null","noncog","pseudo","N","exp","null"
"","null","html-keyboard-response","124","680602","0.0-3.0-0.54","+","null","","","","","",""
"","8813","html-keyboard-response","125","689414","0.0-3.0-1.54","areia","n","n","noncog","word","S","exp","5"
"","null","html-keyboard-response","126","689916","0.0-3.0-0.55","+","null","","","","","",""
"","3786","html-keyboard-response","127","693702","0.0-3.0-1.55","abieso","n","null","noncog","pseudo","N","exp","null"
"","null","html-keyboard-response","128","694203","0.0-3.0-0.56","+","null","","","","","",""
"","7786","html-keyboard-response","129","701990","0.0-3.0-1.56","motre","n","null","noncog","pseudo","N","exp","null"
"","null","html-keyboard-response","130","702492","0.0-3.0-0.57","+","null","","","","","",""
"","4426","html-keyboard-response","131","706918","0.0-3.0-1.57","filosofia","s","n","cog","word","S","exp","9"
"","null","html-keyboard-response","132","707420","0.0-3.0-0.58","+","null","","","","","",""
"","6586","html-keyboard-response","133","714006","0.0-3.0-1.58","berquesa","n","null","noncog","pseudo","N","exp","null"
"","null","html-keyboard-response","134","714510","0.0-3.0-0.59","+","null","","","","","",""
"","8248","html-keyboard-response","135","722758","0.0-3.0-1.59","enxarto","n","null","noncog","pseudo","N","exp","null"
"","null","html-keyboard-response","136","723261","0.0-3.0-0.60","+","null","","","","","",""
"","5145","html-keyboard-response","137","728406","0.0-3.0-1.60","francês","s","a","cog","word","S","exp","7"
"","null","html-keyboard-response","138","728908","0.0-3.0-0.61","+","null","","","","","",""
"","5659","html-keyboard-response","139","734567","0.0-3.0-1.61","atitro","n","null","noncog","pseudo","N","exp","null"
"","null","html-keyboard-response","140","735068","0.0-3.0-0.62","+","null","","","","","",""
"","5706","html-keyboard-response","141","740775","0.0-3.0-1.62","cravo","s","n","noncog","word","S","exp","5"
"","null","html-keyboard-response","142","741276","0.0-3.0-0.63","+","null","","","","","",""
"","4171","html-keyboard-response","143","745447","0.0-3.0-1.63","esfoce","n","null","noncog","pseudo","N","exp","null"
"","null","html-keyboard-response","144","745948","0.0-3.0-0.64","+","null","","","","","",""
"","10763","html-keyboard-response","145","756711","0.0-3.0-1.64","fino","n","a","cog","word","S","exp","4"
"","null","html-keyboard-response","146","757212","0.0-3.0-0.65","+","null","","","","","",""
"","9355","html-keyboard-response","147","766567","0.0-3.0-1.65","morija","n","null","noncog","pseudo","N","exp","null"
"","null","html-keyboard-response","148","767072","0.0-3.0-0.66","+","null","","","","","",""
"","13607","html-keyboard-response","149","780679","0.0-3.0-1.66","protas","n","null","noncog","pseudo","N","exp","null"
"","null","html-keyboard-response","150","781181","0.0-3.0-0.67","+","null","","","","","",""
"","7338","html-keyboard-response","151","788518","0.0-3.0-1.67","garastia","n","null","noncog","pseudo","N","exp","null"
"","null","html-keyboard-response","152","789019","0.0-3.0-0.68","+","null","","","","","",""
"","12763","html-keyboard-response","153","801782","0.0-3.0-1.68","undivídio","n","null","noncog","pseudo","N","exp","null"
"","null","html-keyboard-response","154","802283","0.0-3.0-0.69","+","null","","","","","",""
"","7387","html-keyboard-response","155","809670","0.0-3.0-1.69","pitada","n","n","noncog","word","S","exp","6"
"","null","html-keyboard-response","156","810171","0.0-3.0-0.70","+","null","","","","","",""
"","3787","html-keyboard-response","157","813958","0.0-3.0-1.70","tio","s","n","noncog","word","S","exp","3"
"","null","html-keyboard-response","158","814467","0.0-3.0-0.71","+","null","","","","","",""
"","4499","html-keyboard-response","159","818966","0.0-3.0-1.71","pega-pega","s","n","noncog","word","S","exp","8"
"","null","html-keyboard-response","160","819467","0.0-3.0-0.72","+","null","","","","","",""
"","5850","html-keyboard-response","161","825318","0.0-3.0-1.72","revear","s","null","noncog","pseudo","N","exp","null"
"","null","html-keyboard-response","162","825819","0.0-3.0-0.73","+","null","","","","","",""
"","7115","html-keyboard-response","163","832934","0.0-3.0-1.73","prantal","s","null","noncog","pseudo","N","exp","null"
"","null","html-keyboard-response","164","833435","0.0-3.0-0.74","+","null","","","","","",""
"","9995","html-keyboard-response","165","843430","0.0-3.0-1.74","candifência","n","null","noncog","pseudo","N","exp","null"
"","null","html-keyboard-response","166","843931","0.0-3.0-0.75","+","null","","","","","",""
"","14090","html-keyboard-response","167","858022","0.0-3.0-1.75","plinta","n","null","noncog","pseudo","N","exp","null"
"","null","html-keyboard-response","168","858523","0.0-3.0-0.76","+","null","","","","","",""
"","7019","html-keyboard-response","169","865542","0.0-3.0-1.76","incomodar","s","v","noncog","word","S","exp","9"
"","null","html-keyboard-response","170","866043","0.0-3.0-0.77","+","null","","","","","",""
"","3467","html-keyboard-response","171","869510","0.0-3.0-1.77","civil","s","a","cog","word","S","exp","5"
"","null","html-keyboard-response","172","870012","0.0-3.0-0.78","+","null","","","","","",""
"","5690","html-keyboard-response","173","875702","0.0-3.0-1.78","livro","s","n","cog","word","S","exp","5"
"","null","html-keyboard-response","174","876203","0.0-3.0-0.79","+","null","","","","","",""
"","5067","html-keyboard-response","175","881270","0.0-3.0-1.79","carregar","s","v","noncog","word","S","exp","8"
"","null","html-keyboard-response","176","881771","0.0-3.0-0.80","+","null","","","","","",""
"","24379","html-keyboard-response","177","906150","0.0-3.0-1.80","ênclio","n","null","noncog","pseudo","N","exp","null"
"","null","html-keyboard-response","178","906664","0.0-3.0-0.81","+","null","","","","","",""
"","3598","html-keyboard-response","179","910262","0.0-3.0-1.81","morar","s","v","noncog","word","S","exp","5"
"","null","html-keyboard-response","180","910763","0.0-3.0-0.82","+","null","","","","","",""
"","4715","html-keyboard-response","181","915478","0.0-3.0-1.82","viver","s","v","cog","word","S","exp","5"
"","null","html-keyboard-response","182","915979","0.0-3.0-0.83","+","null","","","","","",""
"","5274","html-keyboard-response","183","921254","0.0-3.0-1.83","escumo","n","null","noncog","pseudo","N","exp","null"
"","null","html-keyboard-response","184","921755","0.0-3.0-0.84","+","null","","","","","",""
"","3290","html-keyboard-response","185","925045","0.0-3.0-1.84","filme","s","n","cog","word","S","exp","5"
"","null","html-keyboard-response","186","925547","0.0-3.0-0.85","+","null","","","","","",""
"","6058","html-keyboard-response","187","931606","0.0-3.0-1.85","dipata","n","null","noncog","pseudo","N","exp","null"
"","null","html-keyboard-response","188","932107","0.0-3.0-0.86","+","null","","","","","",""
"","3242","html-keyboard-response","189","935350","0.0-3.0-1.86","mal","s","a","cog","word","S","exp","3"
"","null","html-keyboard-response","190","935850","0.0-3.0-0.87","+","null","","","","","",""
"","8155","html-keyboard-response","191","944006","0.0-3.0-1.87","rovaz","n","null","noncog","pseudo","N","exp","null"
"","null","html-keyboard-response","192","944507","0.0-3.0-0.88","+","null","","","","","",""
"","6171","html-keyboard-response","193","950678","0.0-3.0-1.88","socorro","s","n","noncog","word","S","exp","7"
"","null","html-keyboard-response","194","951178","0.0-3.0-0.89","+","null","","","","","",""
"","3547","html-keyboard-response","195","954726","0.0-3.0-1.89","tartos","n","null","noncog","pseudo","N","exp","null"
"","null","html-keyboard-response","196","955227","0.0-3.0-0.90","+","null","","","","","",""
"","4858","html-keyboard-response","197","960086","0.0-3.0-1.90","mudança","s","n","noncog","word","S","exp","7"
"","null","html-keyboard-response","198","960586","0.0-3.0-0.91","+","null","","","","","",""
"","10235","html-keyboard-response","199","970822","0.0-3.0-1.91","ideisa","n","null","noncog","pseudo","N","exp","null"
"","null","html-keyboard-response","200","971322","0.0-3.0-0.92","+","null","","","","","",""
"","8218","html-keyboard-response","201","979541","0.0-3.0-1.92","agravar","n","v","cog","word","S","exp","7"
"","null","html-keyboard-response","202","980043","0.0-3.0-0.93","+","null","","","","","",""
"","4426","html-keyboard-response","203","984469","0.0-3.0-1.93","independente","s","a","noncog","word","S","exp","12"
"","null","html-keyboard-response","204","984970","0.0-3.0-0.94","+","null","","","","","",""
"","10891","html-keyboard-response","205","995862","0.0-3.0-1.94","reduzir","s","v","cog","word","S","exp","7"
"","null","html-keyboard-response","206","996363","0.0-3.0-0.95","+","null","","","","","",""
"","4298","html-keyboard-response","207","1000661","0.0-3.0-1.95","bachir","n","null","noncog","pseudo","N","exp","null"
"","null","html-keyboard-response","208","1001163","0.0-3.0-0.96","+","null","","","","","",""
"","6522","html-keyboard-response","209","1007685","0.0-3.0-1.96","uçar","n","null","noncog","pseudo","N","exp","null"
"","null","html-keyboard-response","210","1008186","0.0-3.0-0.97","+","null","","","","","",""
"","3676","html-keyboard-response","211","1011862","0.0-3.0-1.97","carro","s","n","noncog","word","S","exp","5"
"","null","html-keyboard-response","212","1012364","0.0-3.0-0.98","+","null","","","","","",""
"","7129","html-keyboard-response","213","1019493","0.0-3.0-1.98","afonher","n","null","noncog","pseudo","N","exp","null"
"","null","html-keyboard-response","214","1019994","0.0-3.0-0.99","+","null","","","","","",""
"","10859","html-keyboard-response","215","1030853","0.0-3.0-1.99","telefone","s","n","cog","word","S","exp","8"
"","null","html-keyboard-response","216","1031355","0.0-3.0-0.100","+","null","","","","","",""
"","285370","html-keyboard-response","217","1316726","0.0-3.0-1.100","sábio","n","n","noncog","word","S","exp","5"
"","null","html-keyboard-response","218","1317227","0.0-3.0-0.101","+","null","","","","","",""
"","5882","html-keyboard-response","219","1323109","0.0-3.0-1.101","oecano","n","null","noncog","pseudo","N","exp","null"
"","null","html-keyboard-response","220","1323611","0.0-3.0-0.102","+","null","","","","","",""
"","3866","html-keyboard-response","221","1327477","0.0-3.0-1.102","bandido","s","n","cog","word","S","exp","7"
"","null","html-keyboard-response","222","1327978","0.0-3.0-0.103","+","null","","","","","",""
"","7275","html-keyboard-response","223","1335253","0.0-3.0-1.103","pulmão","n","n","noncog","word","S","exp","6"
"","null","html-keyboard-response","224","1335754","0.0-3.0-0.104","+","null","","","","","",""
"","20282","html-keyboard-response","225","1356037","0.0-3.0-1.104","carona","s","n","noncog","word","S","exp","6"
"","null","html-keyboard-response","226","1356538","0.0-3.0-0.105","+","null","","","","","",""
"","6986","html-keyboard-response","227","1363525","0.0-3.0-1.105","tinta","s","n","cog","word","S","exp","5"
"","null","html-keyboard-response","228","1364026","0.0-3.0-0.106","+","null","","","","","",""
"","4458","html-keyboard-response","229","1368485","0.0-3.0-1.106","bancada","s","n","noncog","word","S","exp","7"
"","null","html-keyboard-response","230","1368986","0.0-3.0-0.107","+","null","","","","","",""
"","5546","html-keyboard-response","231","1374533","0.0-3.0-1.107","chato","s","n","noncog","word","S","exp","5"
"","null","html-keyboard-response","232","1375033","0.0-3.0-0.108","+","null","","","","","",""
"","24955","html-keyboard-response","233","1399988","0.0-3.0-1.108","multiplicar","s","v","cog","word","S","exp","11"
"","null","html-keyboard-response","234","1400489","0.0-3.0-0.109","+","null","","","","","",""
"","4474","html-keyboard-response","235","1404964","0.0-3.0-1.109","espinho","n","n","noncog","word","S","exp","7"
"","null","html-keyboard-response","236","1405465","0.0-3.0-0.110","+","null","","","","","",""
"","5739","html-keyboard-response","237","1411204","0.0-3.0-1.110","sustentar","n","v","noncog","word","S","exp","9"
"","null","html-keyboard-response","238","1411705","0.0-3.0-0.111","+","null","","","","","",""
"","3850","html-keyboard-response","239","1415556","0.0-3.0-1.111","tatear","n","v","cog","word","S","exp","6"
"","null","html-keyboard-response","240","1416057","0.0-3.0-0.112","+","null","","","","","",""
"","2987","html-keyboard-response","241","1419044","0.0-3.0-1.112","afual","n","null","noncog","pseudo","N","exp","null"
"","null","html-keyboard-response","242","1419545","0.0-3.0-0.113","+","null","","","","","",""
"","3306","html-keyboard-response","243","1422852","0.0-3.0-1.113","nome","s","n","cog","word","S","exp","4"
"","null","html-keyboard-response","244","1423353","0.0-3.0-0.114","+","null","","","","","",""
"","15450","html-keyboard-response","245","1438804","0.0-3.0-1.114","temperar","s","v","noncog","word","S","exp","8"
"","null","html-keyboard-response","246","1439304","0.0-3.0-0.115","+","null","","","","","",""
"","4235","html-keyboard-response","247","1443540","0.0-3.0-1.115","oricia","n","null","noncog","pseudo","N","exp","null"
"","null","html-keyboard-response","248","1444042","0.0-3.0-0.116","+","null","","","","","",""
"","4025","html-keyboard-response","249","1448068","0.0-3.0-1.116","burtos","n","null","noncog","pseudo","N","exp","null"
"","null","html-keyboard-response","250","1448572","0.0-3.0-0.117","+","null","","","","","",""
"","3096","html-keyboard-response","251","1451668","0.0-3.0-1.117","faínas","n","null","noncog","pseudo","N","exp","null"
"","null","html-keyboard-response","252","1452169","0.0-3.0-0.118","+","null","","","","","",""
"","5019","html-keyboard-response","253","1457188","0.0-3.0-1.118","parceter","n","null","noncog","pseudo","N","exp","null"
"","null","html-keyboard-response","254","1457701","0.0-3.0-0.119","+","null","","","","","",""
"","3759","html-keyboard-response","255","1461460","0.0-3.0-1.119","manfa","n","null","noncog","pseudo","N","exp","null"
"","null","html-keyboard-response","256","1461962","0.0-3.0-0.120","+","null","","","","","",""
"","5402","html-keyboard-response","257","1467364","0.0-3.0-1.120","casuas","n","null","noncog","pseudo","N","exp","null"
"","null","html-keyboard-response","258","1467864","0.0-3.0-0.121","+","null","","","","","",""
"","4539","html-keyboard-response","259","1472404","0.0-3.0-1.121","prenas","n","null","noncog","pseudo","N","exp","null"
"","null","html-keyboard-response","260","1472907","0.0-3.0-0.122","+","null","","","","","",""
"","3480","html-keyboard-response","261","1476388","0.0-3.0-1.122","nacional","s","a","cog","word","S","exp","8"
"","null","html-keyboard-response","262","1476889","0.0-3.0-0.123","+","null","","","","","",""
"","6043","html-keyboard-response","263","1482932","0.0-3.0-1.123","conjerto","s","null","noncog","pseudo","N","exp","null"
"","null","html-keyboard-response","264","1483434","0.0-3.0-0.124","+","null","","","","","",""
"","8650","html-keyboard-response","265","1492084","0.0-3.0-1.124","verceja","n","null","noncog","pseudo","N","exp","null"
"","null","html-keyboard-response","266","1492585","0.0-3.0-0.125","+","null","","","","","",""
"","8842","html-keyboard-response","267","1501428","0.0-3.0-1.125","quenzina","n","null","noncog","pseudo","N","exp","null"
"","null","html-keyboard-response","268","1501929","0.0-3.0-0.126","+","null","","","","","",""
"","3787","html-keyboard-response","269","1505716","0.0-3.0-1.126","drama","n","n","cog","word","S","exp","5"
"","null","html-keyboard-response","270","1506217","0.0-3.0-0.127","+","null","","","","","",""
"","3114","html-keyboard-response","271","1509332","0.0-3.0-1.127","trenos","n","null","noncog","pseudo","N","exp","null"
"","null","html-keyboard-response","272","1509834","0.0-3.0-0.128","+","null","","","","","",""
"","5722","html-keyboard-response","273","1515556","0.0-3.0-1.128","pritas","n","null","noncog","pseudo","N","exp","null"
"","null","html-keyboard-response","274","1516057","0.0-3.0-0.129","+","null","","","","","",""
"","5098","html-keyboard-response","275","1521156","0.0-3.0-1.129","nivelado","n","a","cog","word","S","exp","8"
"","null","html-keyboard-response","276","1521657","0.0-3.0-0.130","+","null","","","","","",""
"","4730","html-keyboard-response","277","1526388","0.0-3.0-1.130","mania","n","n","cog","word","S","exp","5"
"","null","html-keyboard-response","278","1526889","0.0-3.0-0.131","+","null","","","","","",""
"","8411","html-keyboard-response","279","1535300","0.0-3.0-1.131","liso","n","n","noncog","word","S","exp","4"
"","null","html-keyboard-response","280","1535801","0.0-3.0-0.132","+","null","","","","","",""
"","7227","html-keyboard-response","281","1543028","0.0-3.0-1.132","montanha","s","n","cog","word","S","exp","8"
"","null","html-keyboard-response","282","1543529","0.0-3.0-0.133","+","null","","","","","",""
"","3723","html-keyboard-response","283","1547252","0.0-3.0-1.133","aivões","n","null","noncog","pseudo","N","exp","null"
"","null","html-keyboard-response","284","1547754","0.0-3.0-0.134","+","null","","","","","",""
"","2906","html-keyboard-response","285","1550660","0.0-3.0-1.134","papai","s","n","cog","word","S","exp","5"
"","null","html-keyboard-response","286","1551161","0.0-3.0-0.135","+","null","","","","","",""
"","6091","html-keyboard-response","287","1557252","0.0-3.0-1.135","sintonizar","n","v","noncog","word","S","exp","10"
"","null","html-keyboard-response","288","1557754","0.0-3.0-0.136","+","null","","","","","",""
"","2922","html-keyboard-response","289","1560676","0.0-3.0-1.136","espaço","s","n","cog","word","S","exp","6"
"","null","html-keyboard-response","290","1561177","0.0-3.0-0.137","+","null","","","","","",""
"","3995","html-keyboard-response","291","1565172","0.0-3.0-1.137","glória","s","n","cog","word","S","exp","6"
"","null","html-keyboard-response","292","1565674","0.0-3.0-0.138","+","null","","","","","",""
"","1370","html-keyboard-response","293","1567044","0.0-3.0-1.138","liberal","n","a","cog","word","S","exp","7"
"","null","html-keyboard-response","294","1567545","0.0-3.0-0.139","+","null","","","","","",""
"","5867","html-keyboard-response","295","1573412","0.0-3.0-1.139","espionar","s","v","cog","word","S","exp","8"
"","null","html-keyboard-response","296","1573914","0.0-3.0-0.140","+","null","","","","","",""
"","5514","html-keyboard-response","297","1579428","0.0-3.0-1.140","franda","n","null","noncog","pseudo","N","exp","null"
"","null","html-keyboard-response","298","1579941","0.0-3.0-0.141","+","null","","","","","",""
"","3199","html-keyboard-response","299","1583139","0.0-3.0-1.141","gilha","n","null","noncog","pseudo","N","exp","null"
"","null","html-keyboard-response","300","1583641","0.0-3.0-0.142","+","null","","","","","",""
"","4362","html-keyboard-response","301","1588003","0.0-3.0-1.142","aperor","n","null","noncog","pseudo","N","exp","null"
"","null","html-keyboard-response","302","1588505","0.0-3.0-0.143","+","null","","","","","",""
"","3641","html-keyboard-response","303","1592147","0.0-3.0-1.143","vitrive","n","null","noncog","pseudo","N","exp","null"
"","null","html-keyboard-response","304","1592648","0.0-3.0-0.144","+","null","","","","","",""
"","6731","html-keyboard-response","305","1599379","0.0-3.0-1.144","agressivo","n","a","cog","word","S","exp","9"
"","null","html-keyboard-response","306","1599880","0.0-3.0-0.145","+","null","","","","","",""
"","6187","html-keyboard-response","307","1606067","0.0-3.0-1.145","telafonir","n","null","noncog","pseudo","N","exp","null"
"","null","html-keyboard-response","308","1606568","0.0-3.0-0.146","+","null","","","","","",""
"","3467","html-keyboard-response","309","1610035","0.0-3.0-1.146","bracos","n","null","noncog","pseudo","N","exp","null"
"","null","html-keyboard-response","310","1610537","0.0-3.0-0.147","+","null","","","","","",""
"","3770","html-keyboard-response","311","1614307","0.0-3.0-1.147","verdade","s","n","cog","word","S","exp","7"
"","null","html-keyboard-response","312","1614819","0.0-3.0-0.148","+","null","","","","","",""
"","5728","html-keyboard-response","313","1620548","0.0-3.0-1.148","morno","n","a","noncog","word","S","exp","5"
"","null","html-keyboard-response","314","1621051","0.0-3.0-0.149","+","null","","","","","",""
"","6936","html-keyboard-response","315","1627987","0.0-3.0-1.149","preferir","n","v","cog","word","S","exp","8"
"","null","html-keyboard-response","316","1628488","0.0-3.0-0.150","+","null","","","","","",""
"","5099","html-keyboard-response","317","1633587","0.0-3.0-1.150","cascata","n","n","noncog","word","S","exp","7"
"","null","html-keyboard-response","318","1634089","0.0-3.0-0.151","+","null","","","","","",""
"","7961","html-keyboard-response","319","1642051","0.0-3.0-1.151","suipestar","n","null","noncog","pseudo","N","exp","null"
"","null","html-keyboard-response","320","1642552","0.0-3.0-0.152","+","null","","","","","",""
"","7003","html-keyboard-response","321","1649555","0.0-3.0-1.152","tronca","n","null","noncog","pseudo","N","exp","null"
"","null","html-keyboard-response","322","1650056","0.0-3.0-0.153","+","null","","","","","",""
"","5019","html-keyboard-response","323","1655075","0.0-3.0-1.153","jastor","n","null","noncog","pseudo","N","exp","null"
"","null","html-keyboard-response","324","1655579","0.0-3.0-0.154","+","null","","","","","",""
"","4231","html-keyboard-response","325","1659811","0.0-3.0-1.154","detative","n","null","noncog","pseudo","N","exp","null"
"","null","html-keyboard-response","326","1660312","0.0-3.0-0.155","+","null","","","","","",""
"","3978","html-keyboard-response","327","1664291","0.0-3.0-1.155","lagoa","n","n","cog","word","S","exp","5"
"","null","html-keyboard-response","328","1664793","0.0-3.0-0.156","+","null","","","","","",""
"","3433","html-keyboard-response","329","1668227","0.0-3.0-1.156","especial","s","a","cog","word","S","exp","8"
"","null","html-keyboard-response","330","1668728","0.0-3.0-0.157","+","null","","","","","",""
"","1435","html-keyboard-response","331","1670163","0.0-3.0-1.157","propaganda","n","n","cog","word","S","exp","10"
"","null","html-keyboard-response","332","1670664","0.0-3.0-0.158","+","null","","","","","",""
"","10667","html-keyboard-response","333","1681331","0.0-3.0-1.158","convidado","s","n","noncog","word","S","exp","9"
"","null","html-keyboard-response","334","1681833","0.0-3.0-0.159","+","null","","","","","",""
"","5546","html-keyboard-response","335","1687379","0.0-3.0-1.159","orupas","n","null","noncog","pseudo","N","exp","null"
"","null","html-keyboard-response","336","1687880","0.0-3.0-0.160","+","null","","","","","",""
"","5514","html-keyboard-response","337","1693395","0.0-3.0-1.160","perbas","n","null","noncog","pseudo","N","exp","null"
"","null","html-keyboard-response","338","1693896","0.0-3.0-0.161","+","null","","","","","",""
"","1451","html-keyboard-response","339","1695347","0.0-3.0-1.161","bibarconato","n","null","noncog","pseudo","N","exp","null"
"","null","html-keyboard-response","340","1695848","0.0-3.0-0.162","+","null","","","","","",""
"","5867","html-keyboard-response","341","1701715","0.0-3.0-1.162","tímido","s","a","cog","word","S","exp","6"
"","null","html-keyboard-response","342","1702217","0.0-3.0-0.163","+","null","","","","","",""
"","2298","html-keyboard-response","343","1704515","0.0-3.0-1.163","atrasar","n","v","noncog","word","S","exp","7"
"","null","html-keyboard-response","344","1705016","0.0-3.0-0.164","+","null","","","","","",""
"","8059","html-keyboard-response","345","1713076","0.0-3.0-1.164","crolatário","n","null","noncog","pseudo","N","exp","null"
"","null","html-keyboard-response","346","1713576","0.0-3.0-0.165","+","null","","","","","",""
"","3915","html-keyboard-response","347","1717492","0.0-3.0-1.165","comércio","s","n","noncog","word","S","exp","8"
"","null","html-keyboard-response","348","1717992","0.0-3.0-0.166","+","null","","","","","",""
"","3307","html-keyboard-response","349","1721299","0.0-3.0-1.166","trabalhar","s","v","noncog","word","S","exp","9"
"","null","html-keyboard-response","350","1721800","0.0-3.0-0.167","+","null","","","","","",""
"","5915","html-keyboard-response","351","1727716","0.0-3.0-1.167","lapestra","n","null","noncog","pseudo","N","exp","null"
"","null","html-keyboard-response","352","1728216","0.0-3.0-0.168","+","null","","","","","",""
"","9114","html-keyboard-response","353","1737331","0.0-3.0-1.168","costra","n","null","noncog","pseudo","N","exp","null"
"","null","html-keyboard-response","354","1737833","0.0-3.0-0.169","+","null","","","","","",""
"","4026","html-keyboard-response","355","1741859","0.0-3.0-1.169","taberia","n","null","noncog","pseudo","N","exp","null"
"","null","html-keyboard-response","356","1742361","0.0-3.0-0.170","+","null","","","","","",""
"","4362","html-keyboard-response","357","1746723","0.0-3.0-1.170","aitrou","n","null","noncog","pseudo","N","exp","null"
"","null","html-keyboard-response","358","1747224","0.0-3.0-0.171","+","null","","","","","",""
"","6139","html-keyboard-response","359","1753364","0.0-3.0-1.171","crutas","s","null","noncog","pseudo","N","exp","null"
"","null","html-keyboard-response","360","1753865","0.0-3.0-0.172","+","null","","","","","",""
"","3722","html-keyboard-response","361","1757587","0.0-3.0-1.172","alpica","n","null","noncog","pseudo","N","exp","null"
"","null","html-keyboard-response","362","1758089","0.0-3.0-0.173","+","null","","","","","",""
"","1643","html-keyboard-response","363","1759732","0.0-3.0-1.173","mabras","n","null","noncog","pseudo","N","exp","null"
"","null","html-keyboard-response","364","1760232","0.0-3.0-0.174","+","null","","","","","",""
"","1418","html-keyboard-response","365","1761651","0.0-3.0-1.174","lorfaz","n","null","noncog","pseudo","N","exp","null"
"","null","html-keyboard-response","366","1762152","0.0-3.0-0.175","+","null","","","","","",""
"","6363","html-keyboard-response","367","1768515","0.0-3.0-1.175","apontar","n","v","noncog","word","S","exp","7"
"","null","html-keyboard-response","368","1769016","0.0-3.0-0.176","+","null","","","","","",""
"","4747","html-keyboard-response","369","1773763","0.0-3.0-1.176","risbos","n","null","noncog","pseudo","N","exp","null"
"","null","html-keyboard-response","370","1774264","0.0-3.0-0.177","+","null","","","","","",""
"","1322","html-keyboard-response","371","1775587","0.0-3.0-1.177","aletiê","n","null","noncog","pseudo","N","exp","null"
"","null","html-keyboard-response","372","1776088","0.0-3.0-0.178","+","null","","","","","",""
"","3274","html-keyboard-response","373","1779363","0.0-3.0-1.178","dia","s","n","noncog","word","S","exp","3"
"","null","html-keyboard-response","374","1779864","0.0-3.0-0.179","+","null","","","","","",""
"","1658","html-keyboard-response","375","1781523","0.0-3.0-1.179","selir","n","null","noncog","pseudo","N","exp","null"
"","null","html-keyboard-response","376","1782023","0.0-3.0-0.180","+","null","","","","","",""
"","1515","html-keyboard-response","377","1783539","0.0-3.0-1.180","trair","n","v","cog","word","S","exp","5"
"","null","html-keyboard-response","378","1784040","0.0-3.0-0.181","+","null","","","","","",""
"","1723","html-keyboard-response","379","1785763","0.0-3.0-1.181","extravagante","s","a","cog","word","S","exp","12"
"","null","html-keyboard-response","380","1786264","0.0-3.0-0.182","+","null","","","","","",""
"","5882","html-keyboard-response","381","1792147","0.0-3.0-1.182","medalha","n","n","cog","word","S","exp","7"
"","null","html-keyboard-response","382","1792648","0.0-3.0-0.183","+","null","","","","","",""
"","3466","html-keyboard-response","383","1796115","0.0-3.0-1.183","grave","s","a","cog","word","S","exp","5"
"","null","html-keyboard-response","384","1796616","0.0-3.0-0.184","+","null","","","","","",""
"","3899","html-keyboard-response","385","1800515","0.0-3.0-1.184","matinal","s","a","cog","word","S","exp","7"
"","null","html-keyboard-response","386","1801015","0.0-3.0-0.185","+","null","","","","","",""
"","4571","html-keyboard-response","387","1805587","0.0-3.0-1.185","enedro","n","null","noncog","pseudo","N","exp","null"
"","null","html-keyboard-response","388","1806088","0.0-3.0-0.186","+","null","","","","","",""
"","5130","html-keyboard-response","389","1811219","0.0-3.0-1.186","resmungar","n","v","noncog","word","S","exp","9"
"","null","html-keyboard-response","390","1811719","0.0-3.0-0.187","+","null","","","","","",""
"","5419","html-keyboard-response","391","1817139","0.0-3.0-1.187","cápsula","n","n","noncog","word","S","exp","7"
"","null","html-keyboard-response","392","1817640","0.0-3.0-0.188","+","null","","","","","",""
"","3243","html-keyboard-response","393","1820883","0.0-3.0-1.188","mua","n","null","noncog","pseudo","N","exp","null"
"","null","html-keyboard-response","394","1821384","0.0-3.0-0.189","+","null","","","","","",""
"","3114","html-keyboard-response","395","1824499","0.0-3.0-1.189","prever","n","v","cog","word","S","exp","6"
"","null","html-keyboard-response","396","1825000","0.0-3.0-0.190","+","null","","","","","",""
"","3226","html-keyboard-response","397","1828227","0.0-3.0-1.190","uchães","n","null","noncog","pseudo","N","exp","null"
"","null","html-keyboard-response","398","1828737","0.0-3.0-0.191","+","null","","","","","",""
"","4785","html-keyboard-response","399","1833523","0.0-3.0-1.191","traduzir","s","v","cog","word","S","exp","8"
"","null","html-keyboard-response","400","1834025","0.0-3.0-0.192","+","null","","","","","",""
"","1658","html-keyboard-response","401","1835683","0.0-3.0-1.192","anjo","n","n","cog","word","S","exp","4"
"","null","html-keyboard-response","402","1836184","0.0-3.0-0.193","+","null","","","","","",""
"","5819","html-keyboard-response","403","1842003","0.0-3.0-1.193","usnado","n","null","noncog","pseudo","N","exp","null"
"","null","html-keyboard-response","404","1842504","0.0-3.0-0.194","+","null","","","","","",""
"","3275","html-keyboard-response","405","1845779","0.0-3.0-1.194","frotes","n","null","noncog","pseudo","N","exp","null"
"","null","html-keyboard-response","406","1846280","0.0-3.0-0.195","+","null","","","","","",""
"","1674","html-keyboard-response","407","1847955","0.0-3.0-1.195","salpicado","n","a","noncog","word","S","exp","9"
"","null","html-keyboard-response","408","1848456","0.0-3.0-0.196","+","null","","","","","",""
"","7451","html-keyboard-response","409","1855907","0.0-3.0-1.196","ocinto","s","null","noncog","pseudo","N","exp","null"
"","null","html-keyboard-response","410","1856408","0.0-3.0-0.197","+","null","","","","","",""
"","1707","html-keyboard-response","411","1858115","0.0-3.0-1.197","braras","n","null","noncog","pseudo","N","exp","null"
"","null","html-keyboard-response","412","1858616","0.0-3.0-0.198","+","null","","","","","",""
"","7403","html-keyboard-response","413","1866019","0.0-3.0-1.198","fofo","n","a","noncog","word","S","exp","4"
"","null","html-keyboard-response","414","1866520","0.0-3.0-0.199","+","null","","","","","",""
"","6763","html-keyboard-response","415","1873283","0.0-3.0-1.199","delirar","n","v","noncog","word","S","exp","7"
"","null","html-keyboard-response","416","1873784","0.0-3.0-0.200","+","null","","","","","",""
"","2875","html-keyboard-response","417","1876659","0.0-3.0-1.200","imitar","n","v","cog","word","S","exp","6"
"","null","html-keyboard-response","418","1877160","0.0-3.0-0.201","+","null","","","","","",""
"","5211","html-keyboard-response","419","1882371","0.0-3.0-1.201","ofreta","n","null","noncog","pseudo","N","exp","null"
"","null","html-keyboard-response","420","1882873","0.0-3.0-0.202","+","null","","","","","",""
"","2986","html-keyboard-response","421","1885859","0.0-3.0-1.202","brincar","s","v","noncog","word","S","exp","7"
"","null","html-keyboard-response","422","1886360","0.0-3.0-0.203","+","null","","","","","",""
"","1659","html-keyboard-response","423","1888019","0.0-3.0-1.203","país","n","n","noncog","word","S","exp","4"
"","null","html-keyboard-response","424","1888521","0.0-3.0-0.204","+","null","","","","","",""
"","4650","html-keyboard-response","425","1893171","0.0-3.0-1.204","esperar","s","v","cog","word","S","exp","7"
"","null","html-keyboard-response","426","1893672","0.0-3.0-0.205","+","null","","","","","",""
"","4282","html-keyboard-response","427","1897955","0.0-3.0-1.205","farcas","s","null","noncog","pseudo","N","exp","null"
"","null","html-keyboard-response","428","1898456","0.0-3.0-0.206","+","null","","","","","",""
"","3050","html-keyboard-response","429","1901507","0.0-3.0-1.206","verde","s","a","noncog","word","S","exp","5"
"","null","html-keyboard-response","430","1902009","0.0-3.0-0.207","+","null","","","","","",""
"","5002","html-keyboard-response","431","1907011","0.0-3.0-1.207","vervas","s","null","noncog","pseudo","N","exp","null"
"","null","html-keyboard-response","432","1907513","0.0-3.0-0.208","+","null","","","","","",""
"","4506","html-keyboard-response","433","1912020","0.0-3.0-1.208","adoçar","n","v","noncog","word","S","exp","6"
"","null","html-keyboard-response","434","1912521","0.0-3.0-0.209","+","null","","","","","",""
"","4905","html-keyboard-response","435","1917426","0.0-3.0-1.209","tela","s","n","noncog","word","S","exp","4"
"","null","html-keyboard-response","436","1917928","0.0-3.0-0.210","+","null","","","","","",""
"","5210","html-keyboard-response","437","1923139","0.0-3.0-1.210","dobradiça","n","n","noncog","word","S","exp","9"
"","null","html-keyboard-response","438","1923641","0.0-3.0-0.211","+","null","","","","","",""
"","3370","html-keyboard-response","439","1927011","0.0-3.0-1.211","fratos","n","null","noncog","pseudo","N","exp","null"
"","null","html-keyboard-response","440","1927512","0.0-3.0-0.212","+","null","","","","","",""
"","3082","html-keyboard-response","441","1930595","0.0-3.0-1.212","tênis","s","n","cog","word","S","exp","5"
"","null","html-keyboard-response","442","1931096","0.0-3.0-0.213","+","null","","","","","",""
"","3483","html-keyboard-response","443","1934579","0.0-3.0-1.213","ilhure","n","null","noncog","pseudo","N","exp","null"
"","null","html-keyboard-response","444","1935081","0.0-3.0-0.214","+","null","","","","","",""
"","3706","html-keyboard-response","445","1938787","0.0-3.0-1.214","macras","n","null","noncog","pseudo","N","exp","null"
"","null","html-keyboard-response","446","1939287","0.0-3.0-0.215","+","null","","","","","",""
"","4523","html-keyboard-response","447","1943811","0.0-3.0-1.215","árovre","n","null","noncog","pseudo","N","exp","null"
"","null","html-keyboard-response","448","1944312","0.0-3.0-0.216","+","null","","","","","",""
"","3770","html-keyboard-response","449","1948083","0.0-3.0-1.216","memória","s","n","cog","word","S","exp","7"
"","null","html-keyboard-response","450","1948584","0.0-3.0-0.217","+","null","","","","","",""
"","6058","html-keyboard-response","451","1954643","0.0-3.0-1.217","pedaço","n","n","noncog","word","S","exp","6"
"","null","html-keyboard-response","452","1955144","0.0-3.0-0.218","+","null","","","","","",""
"","3802","html-keyboard-response","453","1958946","0.0-3.0-1.218","delomir","n","null","noncog","pseudo","N","exp","null"
"","null","html-keyboard-response","454","1959448","0.0-3.0-0.219","+","null","","","","","",""
"","7082","html-keyboard-response","455","1966530","0.0-3.0-1.219","promeção","s","null","noncog","pseudo","N","exp","null"
"","null","html-keyboard-response","456","1967031","0.0-3.0-0.220","+","null","","","","","",""
"","3690","html-keyboard-response","457","1970722","0.0-3.0-1.220","aemaça","n","null","noncog","pseudo","N","exp","null"
"","null","html-keyboard-response","458","1971223","0.0-3.0-0.221","+","null","","","","","",""
"","4235","html-keyboard-response","459","1975458","0.0-3.0-1.221","fusbão","n","null","noncog","pseudo","N","exp","null"
"","null","html-keyboard-response","460","1975960","0.0-3.0-0.222","+","null","","","","","",""
"","4474","html-keyboard-response","461","1980434","0.0-3.0-1.222","manais","n","null","noncog","pseudo","N","exp","null"
"","null","html-keyboard-response","462","1980935","0.0-3.0-0.223","+","null","","","","","",""
"","3051","html-keyboard-response","463","1983986","0.0-3.0-1.223","loaco","n","null","noncog","pseudo","N","exp","null"
"","null","html-keyboard-response","464","1984488","0.0-3.0-0.224","+","null","","","","","",""
"","2921","html-keyboard-response","465","1987410","0.0-3.0-1.224","oper","n","null","noncog","pseudo","N","exp","null"
"","null","html-keyboard-response","466","1987910","0.0-3.0-0.225","+","null","","","","","",""
"","4027","html-keyboard-response","467","1991938","0.0-3.0-1.225","cenada","n","null","noncog","pseudo","N","exp","null"
"","null","html-keyboard-response","468","1992439","0.0-3.0-0.226","+","null","","","","","",""
"","3451","html-keyboard-response","469","1995890","0.0-3.0-1.226","dilheira","s","null","noncog","pseudo","N","exp","null"
"","null","html-keyboard-response","470","1996391","0.0-3.0-0.227","+","null","","","","","",""
"","4235","html-keyboard-response","471","2000626","0.0-3.0-1.227","promessa","s","n","noncog","word","S","exp","8"
"","null","html-keyboard-response","472","2001127","0.0-3.0-0.228","+","null","","","","","",""
"","3723","html-keyboard-response","473","2004850","0.0-3.0-1.228","motros","n","null","noncog","pseudo","N","exp","null"
"","null","html-keyboard-response","474","2005352","0.0-3.0-0.229","+","null","","","","","",""
"","3658","html-keyboard-response","475","2009010","0.0-3.0-1.229","grótis","n","null","noncog","pseudo","N","exp","null"
"","null","html-keyboard-response","476","2009511","0.0-3.0-0.230","+","null","","","","","",""
"","3147","html-keyboard-response","477","2012658","0.0-3.0-1.230","senareta","n","null","noncog","pseudo","N","exp","null"
"","null","html-keyboard-response","478","2013159","0.0-3.0-0.231","+","null","","","","","",""
"","8971","html-keyboard-response","479","2022130","0.0-3.0-1.231","hipócrita","s","a","noncog","word","S","exp","9"
"","null","html-keyboard-response","480","2022632","0.0-3.0-0.232","+","null","","","","","",""
"","9641","html-keyboard-response","481","2032274","0.0-3.0-1.232","planalto","n","n","cog","word","S","exp","8"
"","null","html-keyboard-response","482","2032775","0.0-3.0-0.233","+","null","","","","","",""
"","6250","html-keyboard-response","483","2039026","0.0-3.0-1.233","cerca","s","n","noncog","word","S","exp","5"
"","null","html-keyboard-response","484","2039527","0.0-3.0-0.234","+","null","","","","","",""
"","3787","html-keyboard-response","485","2043314","0.0-3.0-1.234","alfabeto","s","n","cog","word","S","exp","8"
"","null","html-keyboard-response","486","2043815","0.0-3.0-0.235","+","null","","","","","",""
"","5515","html-keyboard-response","487","2049330","0.0-3.0-1.235","revista","s","n","cog","word","S","exp","7"
"","null","html-keyboard-response","488","2049831","0.0-3.0-0.236","+","null","","","","","",""
"","4346","html-keyboard-response","489","2054178","0.0-3.0-1.236","açúcar","s","n","noncog","word","S","exp","6"
"","null","html-keyboard-response","490","2054679","0.0-3.0-0.237","+","null","","","","","",""
"","5915","html-keyboard-response","491","2060593","0.0-3.0-1.237","podilo","n","null","noncog","pseudo","N","exp","null"
"","null","html-keyboard-response","492","2061095","0.0-3.0-0.238","+","null","","","","","",""
"","3467","html-keyboard-response","493","2064562","0.0-3.0-1.238","encelhor","n","null","noncog","pseudo","N","exp","null"
"","null","html-keyboard-response","494","2065063","0.0-3.0-0.239","+","null","","","","","",""
"","2874","html-keyboard-response","495","2067938","0.0-3.0-1.239","aparme","n","null","noncog","pseudo","N","exp","null"
