"view_history","rt","trial_type","trial_index","time_elapsed","internal_node_id","stimulus","response","trial_part","trial","word","question","answer","accuracy"
"[{""page_index"":0,""viewing_time"":18615},{""page_index"":1,""viewing_time"":4848}]","23463","instructions","0","23464","0.0-0.0","","","","","","","",""
"","null","html-keyboard-response","1","24578","0.0-1.0-0.0-0.0","<span style= ""font-size:30px; font-family: monospace"">+</span>","null","fixation","","","","",""
"","6038","html-keyboard-response","2","30880","0.0-1.0-1.0","<span style=""font-size:30px; font-family: monospace"">O</span>"," ","","prac-sent","O","","",""
"","3588","html-keyboard-response","3","34720","0.0-1.0-1.1","<span style=""font-size:30px; font-family: monospace"">dia</span>"," ","","prac-sent","dia","","",""
"","3556","html-keyboard-response","4","38528","0.0-1.0-1.2","<span style=""font-size:30px; font-family: monospace"">estará</span>"," ","","prac-sent","estará","","",""
"","3269","html-keyboard-response","5","42048","0.0-1.0-1.3","<span style=""font-size:30px; font-family: monospace"">cheio</span>"," ","","prac-sent","cheio","","",""
"","2836","html-keyboard-response","6","45136","0.0-1.0-1.4","<span style=""font-size:30px; font-family: monospace"">de</span>"," ","","prac-sent","de","","",""
"","3285","html-keyboard-response","7","48672","0.0-1.0-1.5","<span style=""font-size:30px; font-family: monospace"">nuvens</span>"," ","","prac-sent","nuvens","","",""
"","3157","html-keyboard-response","8","52080","0.0-1.0-1.6","<span style=""font-size:30px; font-family: monospace"">hoje.</span>"," ","","prac-sent","hoje.","","",""
"","null","html-keyboard-response","9","53332","0.0-1.0-0.7-0.7","<span style= ""font-size:30px; font-family: monospace"">+</span>","null","fixation","","","","",""
"","1585","html-keyboard-response","10","55168","0.0-1.0-1.7","<span style=""font-size:30px; font-family: monospace"">A</span>"," ","","prac-sent","A","","",""
"","4661","html-keyboard-response","11","60080","0.0-1.0-1.8","<span style=""font-size:30px; font-family: monospace"">caneca</span>"," ","","prac-sent","caneca","","",""
"","3172","html-keyboard-response","12","63504","0.0-1.0-1.9","<span style=""font-size:30px; font-family: monospace"">colorida</span>"," ","","prac-sent","colorida","","",""
"","2917","html-keyboard-response","13","66671","0.0-1.0-1.10","<span style=""font-size:30px; font-family: monospace"">caiu</span>"," ","","prac-sent","caiu","","",""
"","3973","html-keyboard-response","14","70895","0.0-1.0-1.11","<span style=""font-size:30px; font-family: monospace"">da</span>"," ","","prac-sent","da","","",""
"","5652","html-keyboard-response","15","76799","0.0-1.0-1.12","<span style=""font-size:30px; font-family: monospace"">mesa</span>"," ","","prac-sent","mesa","","",""
"","3045","html-keyboard-response","16","80095","0.0-1.0-1.13","<span style=""font-size:30px; font-family: monospace"">de</span>"," ","","prac-sent","de","","",""
"","4660","html-keyboard-response","17","85007","0.0-1.0-1.14","<span style=""font-size:30px; font-family: monospace"">jantar.</span>"," ","","prac-comp","jantar.","","",""
"","9973","html-keyboard-response","18","95231","0.0-1.0-2.14-0.14","<span style=""font-size:30px; font-family: monospace"">A caneca permaneceu na mesa?</span>","s","","prac-comp","","A caneca permaneceu na mesa?","não","false"
"[{""page_index"":0,""viewing_time"":12075}]","12075","instructions","19","107808","0.0-2.0","","","","","","","",""
"","null","html-keyboard-response","20","108909","0.0-3.0-0.0-0.0","<span style= ""font-size:30px; font-family: monospace"">+</span>","null","fixation","","","","",""
"","2167","html-keyboard-response","21","111327","0.0-3.0-1.0","<span style=""font-size:30px; font-family: monospace"">Ursos</span>"," ","","exp-sent","Ursos","","",""
"","2325","html-keyboard-response","22","113903","0.0-3.0-1.1","<span style=""font-size:30px; font-family: monospace"">têm</span>"," ","","exp-sent","têm","","",""
"","2577","html-keyboard-response","23","116735","0.0-3.0-1.2","<span style=""font-size:30px; font-family: monospace"">uma</span>"," ","","exp-sent","uma","","",""
"","2965","html-keyboard-response","24","119951","0.0-3.0-1.3","<span style=""font-size:30px; font-family: monospace"">patada</span>"," ","","exp-sent","patada","","",""
"","3877","html-keyboard-response","25","124079","0.0-3.0-1.4","<span style=""font-size:30px; font-family: monospace"">brutal</span>"," ","","exp-sent","brutal","","",""
"","2741","html-keyboard-response","26","127071","0.0-3.0-1.5","<span style=""font-size:30px; font-family: monospace"">e</span>"," ","","exp-sent","e","","",""
"","6005","html-keyboard-response","27","133327","0.0-3.0-1.6","<span style=""font-size:30px; font-family: monospace"">poderosa.</span>"," ","","exp-sent","poderosa.","","",""
"","null","html-keyboard-response","28","134579","0.0-3.0-0.7-0.7","<span style= ""font-size:30px; font-family: monospace"">+</span>","null","fixation","","","","",""
"","1425","html-keyboard-response","29","136255","0.0-3.0-1.7","<span style=""font-size:30px; font-family: monospace"">Eu</span>"," ","","exp-sent","Eu","","",""
"","1845","html-keyboard-response","30","138351","0.0-3.0-1.8","<span style=""font-size:30px; font-family: monospace"">fiz</span>"," ","","exp-sent","fiz","","",""
"","2933","html-keyboard-response","31","141535","0.0-3.0-1.9","<span style=""font-size:30px; font-family: monospace"">aulas</span>"," ","","exp-sent","aulas","","",""
"","2533","html-keyboard-response","32","144319","0.0-3.0-1.10","<span style=""font-size:30px; font-family: monospace"">de</span>"," ","","exp-sent","de","","",""
"","3269","html-keyboard-response","33","147839","0.0-3.0-1.11","<span style=""font-size:30px; font-family: monospace"">espanhol</span>"," ","","exp-sent","espanhol","","",""
"","2981","html-keyboard-response","34","151071","0.0-3.0-1.12","<span style=""font-size:30px; font-family: monospace"">nesta</span>"," ","","exp-sent","nesta","","",""
"","3253","html-keyboard-response","35","154575","0.0-3.0-1.13","<span style=""font-size:30px; font-family: monospace"">cidade.</span>"," ","","exp-sent","cidade.","","",""
"","null","html-keyboard-response","36","155826","0.0-3.0-0.14-0.14","<span style= ""font-size:30px; font-family: monospace"">+</span>","null","fixation","","","","",""
"","1057","html-keyboard-response","37","157135","0.0-3.0-1.14","<span style=""font-size:30px; font-family: monospace"">Ele</span>"," ","","exp-sent","Ele","","",""
"","1941","html-keyboard-response","38","159327","0.0-3.0-1.15","<span style=""font-size:30px; font-family: monospace"">comprou</span>"," ","","exp-sent","comprou","","",""
"","1733","html-keyboard-response","39","161311","0.0-3.0-1.16","<span style=""font-size:30px; font-family: monospace"">mais</span>"," ","","exp-sent","mais","","",""
"","1445","html-keyboard-response","40","163007","0.0-3.0-1.17","<span style=""font-size:30px; font-family: monospace"">uma</span>"," ","","exp-sent","uma","","",""
"","1573","html-keyboard-response","41","164831","0.0-3.0-1.18","<span style=""font-size:30px; font-family: monospace"">esponja</span>"," ","","exp-sent","esponja","","",""
"","2469","html-keyboard-response","42","167551","0.0-3.0-1.19","<span style=""font-size:30px; font-family: monospace"">para</span>"," ","","exp-sent","para","","",""
"","2149","html-keyboard-response","43","169951","0.0-3.0-1.20","<span style=""font-size:30px; font-family: monospace"">a</span>"," ","","exp-sent","a","","",""
"","2932","html-keyboard-response","44","173135","0.0-3.0-1.21","<span style=""font-size:30px; font-family: monospace"">cozinha.</span>"," ","","exp-sent","cozinha.","","",""
"","null","html-keyboard-response","45","174388","0.0-3.0-0.22-0.22","<span style= ""font-size:30px; font-family: monospace"">+</span>","null","fixation","","","","",""
"","1137","html-keyboard-response","46","175775","0.0-3.0-1.22","<span style=""font-size:30px; font-family: monospace"">Ele</span>"," ","","exp-sent","Ele","","",""
"","2136","html-keyboard-response","47","178162","0.0-3.0-1.23","<span style=""font-size:30px; font-family: monospace"">teve</span>"," ","","exp-sent","teve","","",""
"","2755","html-keyboard-response","48","181167","0.0-3.0-1.24","<span style=""font-size:30px; font-family: monospace"">um</span>"," ","","exp-sent","um","","",""
"","4500","html-keyboard-response","49","185919","0.0-3.0-1.25","<span style=""font-size:30px; font-family: monospace"">sono</span>"," ","","exp-sent","sono","","",""
"","4294","html-keyboard-response","50","190463","0.0-3.0-1.26","<span style=""font-size:30px; font-family: monospace"">bizarro</span>"," ","","exp-sent","bizarro","","",""
"","2869","html-keyboard-response","51","193583","0.0-3.0-1.27","<span style=""font-size:30px; font-family: monospace"">sem</span>"," ","","exp-sent","sem","","",""
"","2813","html-keyboard-response","52","196655","0.0-3.0-1.28","<span style=""font-size:30px; font-family: monospace"">nenhum</span>"," ","","exp-sent","nenhum","","",""
"","3557","html-keyboard-response","53","200463","0.0-3.0-1.29","<span style=""font-size:30px; font-family: monospace"">motivo.</span>"," ","","exp-sent","motivo.","","",""
"","null","html-keyboard-response","54","201715","0.0-3.0-0.30-0.30","<span style= ""font-size:30px; font-family: monospace"">+</span>","null","fixation","","","","",""
"","1442","html-keyboard-response","55","203407","0.0-3.0-1.30","<span style=""font-size:30px; font-family: monospace"">A</span>"," ","","exp-sent","A","","",""
"","1749","html-keyboard-response","56","205407","0.0-3.0-1.31","<span style=""font-size:30px; font-family: monospace"">moça</span>"," ","","exp-sent","moça","","",""
"","1780","html-keyboard-response","57","207439","0.0-3.0-1.32","<span style=""font-size:30px; font-family: monospace"">comprou</span>"," ","","exp-sent","comprou","","",""
"","1845","html-keyboard-response","58","209535","0.0-3.0-1.33","<span style=""font-size:30px; font-family: monospace"">um</span>"," ","","exp-sent","um","","",""
"","1653","html-keyboard-response","59","211439","0.0-3.0-1.34","<span style=""font-size:30px; font-family: monospace"">diamante</span>"," ","","exp-sent","diamante","","",""
"","2293","html-keyboard-response","60","213983","0.0-3.0-1.35","<span style=""font-size:30px; font-family: monospace"">para</span>"," ","","exp-sent","para","","",""
"","1699","html-keyboard-response","61","215935","0.0-3.0-1.36","<span style=""font-size:30px; font-family: monospace"">sua</span>"," ","","exp-sent","sua","","",""
"","1316","html-keyboard-response","62","217503","0.0-3.0-1.37","<span style=""font-size:30px; font-family: monospace"">prima.</span>"," ","","comp","prima.","","",""
"","11077","html-keyboard-response","63","228831","0.0-3.0-2.37-0.37","<span style=""font-size:30px; font-family: monospace"">A moça comprou um diamante?</span>","s","","comp","","A moça comprou um diamante?","sim","false"
"","null","html-keyboard-response","64","230335","0.0-3.0-0.38-0.38","<span style= ""font-size:30px; font-family: monospace"">+</span>","null","fixation","","","","",""
"","1477","html-keyboard-response","65","232063","0.0-3.0-1.38","<span style=""font-size:30px; font-family: monospace"">A</span>"," ","","exp-sent","A","","",""
"","3904","html-keyboard-response","66","236223","0.0-3.0-1.39","<span style=""font-size:30px; font-family: monospace"">força</span>"," ","","exp-sent","força","","",""
"","2965","html-keyboard-response","67","239439","0.0-3.0-1.40","<span style=""font-size:30px; font-family: monospace"">d'água</span>"," ","","exp-sent","d'água","","",""
"","2693","html-keyboard-response","68","242383","0.0-3.0-1.41","<span style=""font-size:30px; font-family: monospace"">estava</span>"," ","","exp-sent","estava","","",""
"","2758","html-keyboard-response","69","245407","0.0-3.0-1.42","<span style=""font-size:30px; font-family: monospace"">normal</span>"," ","","exp-sent","normal","","",""
"","2773","html-keyboard-response","70","248431","0.0-3.0-1.43","<span style=""font-size:30px; font-family: monospace"">naquele</span>"," ","","exp-sent","naquele","","",""
"","2421","html-keyboard-response","71","251102","0.0-3.0-1.44","<span style=""font-size:30px; font-family: monospace"">dia.</span>"," ","","exp-sent","dia.","","",""
"","null","html-keyboard-response","72","252368","0.0-3.0-0.45-0.45","<span style= ""font-size:30px; font-family: monospace"">+</span>","null","fixation","","","","",""
"","1251","html-keyboard-response","73","253870","0.0-3.0-1.45","<span style=""font-size:30px; font-family: monospace"">A</span>"," ","","exp-sent","A","","",""
"","2326","html-keyboard-response","74","256446","0.0-3.0-1.46","<span style=""font-size:30px; font-family: monospace"">médica</span>"," ","","exp-sent","médica","","",""
"","3652","html-keyboard-response","75","260350","0.0-3.0-1.47","<span style=""font-size:30px; font-family: monospace"">ofereceu</span>"," ","","exp-sent","ofereceu","","",""
"","1765","html-keyboard-response","76","262366","0.0-3.0-1.48","<span style=""font-size:30px; font-family: monospace"">a</span>"," ","","exp-sent","a","","",""
"","2517","html-keyboard-response","77","265134","0.0-3.0-1.49","<span style=""font-size:30px; font-family: monospace"">pomada</span>"," ","","exp-sent","pomada","","",""
"","2117","html-keyboard-response","78","267502","0.0-3.0-1.50","<span style=""font-size:30px; font-family: monospace"">para</span>"," ","","exp-sent","para","","",""
"","2192","html-keyboard-response","79","269950","0.0-3.0-1.51","<span style=""font-size:30px; font-family: monospace"">o</span>"," ","","exp-sent","o","","",""
"","2661","html-keyboard-response","80","272863","0.0-3.0-1.52","<span style=""font-size:30px; font-family: monospace"">avô.</span>"," ","","exp-sent","avô.","","",""
"","null","html-keyboard-response","81","274115","0.0-3.0-0.53-0.53","<span style= ""font-size:30px; font-family: monospace"">+</span>","null","fixation","","","","",""
"","591","html-keyboard-response","82","274958","0.0-3.0-1.53","<span style=""font-size:30px; font-family: monospace"">Ele</span>"," ","","exp-sent","Ele","","",""
"","2357","html-keyboard-response","83","277566","0.0-3.0-1.54","<span style=""font-size:30px; font-family: monospace"">conversou</span>"," ","","exp-sent","conversou","","",""
"","1717","html-keyboard-response","84","279534","0.0-3.0-1.55","<span style=""font-size:30px; font-family: monospace"">com</span>"," ","","exp-sent","com","","",""
"","965","html-keyboard-response","85","280750","0.0-3.0-1.56","<span style=""font-size:30px; font-family: monospace"">o</span>"," ","","exp-sent","o","","",""
"","1093","html-keyboard-response","86","282094","0.0-3.0-1.57","<span style=""font-size:30px; font-family: monospace"">patrão</span>"," ","","exp-sent","patrão","","",""
"","1558","html-keyboard-response","87","283902","0.0-3.0-1.58","<span style=""font-size:30px; font-family: monospace"">durante</span>"," ","","exp-sent","durante","","",""
"","2340","html-keyboard-response","88","286494","0.0-3.0-1.59","<span style=""font-size:30px; font-family: monospace"">a</span>"," ","","exp-sent","a","","",""
"","1317","html-keyboard-response","89","288062","0.0-3.0-1.60","<span style=""font-size:30px; font-family: monospace"">tarde.</span>"," ","","exp-sent","tarde.","","",""
"","null","html-keyboard-response","90","289314","0.0-3.0-0.61-0.61","<span style= ""font-size:30px; font-family: monospace"">+</span>","null","fixation","","","","",""
"","274","html-keyboard-response","91","289838","0.0-3.0-1.61","<span style=""font-size:30px; font-family: monospace"">Algumas</span>"," ","","exp-sent","Algumas","","",""
"","1493","html-keyboard-response","92","291582","0.0-3.0-1.62","<span style=""font-size:30px; font-family: monospace"">pessoas</span>"," ","","exp-sent","pessoas","","",""
"","2037","html-keyboard-response","93","293870","0.0-3.0-1.63","<span style=""font-size:30px; font-family: monospace"">acreditam</span>"," ","","exp-sent","acreditam","","",""
"","1429","html-keyboard-response","94","295550","0.0-3.0-1.64","<span style=""font-size:30px; font-family: monospace"">em</span>"," ","","exp-sent","em","","",""
"","1253","html-keyboard-response","95","297054","0.0-3.0-1.65","<span style=""font-size:30px; font-family: monospace"">espíritos</span>"," ","","exp-sent","espíritos","","",""
"","1813","html-keyboard-response","96","299118","0.0-3.0-1.66","<span style=""font-size:30px; font-family: monospace"">e</span>"," ","","exp-sent","e","","",""
"","1588","html-keyboard-response","97","300958","0.0-3.0-1.67","<span style=""font-size:30px; font-family: monospace"">em</span>"," ","","exp-sent","em","","",""
"","1510","html-keyboard-response","98","302718","0.0-3.0-1.68","<span style=""font-size:30px; font-family: monospace"">outras</span>"," ","","exp-sent","outras","","",""
"","2100","html-keyboard-response","99","305070","0.0-3.0-1.69","<span style=""font-size:30px; font-family: monospace"">vidas.</span>"," ","","exp-sent","vidas.","","",""
"","null","html-keyboard-response","100","306322","0.0-3.0-0.70-0.70","<span style= ""font-size:30px; font-family: monospace"">+</span>","null","fixation","","","","",""
"","433","html-keyboard-response","101","307006","0.0-3.0-1.70","<span style=""font-size:30px; font-family: monospace"">Ela</span>"," ","","exp-sent","Ela","","",""
"","933","html-keyboard-response","102","308190","0.0-3.0-1.71","<span style=""font-size:30px; font-family: monospace"">gosta</span>"," ","","exp-sent","gosta","","",""
"","2390","html-keyboard-response","103","310830","0.0-3.0-1.72","<span style=""font-size:30px; font-family: monospace"">de</span>"," ","","exp-sent","de","","",""
"","1125","html-keyboard-response","104","312206","0.0-3.0-1.73","<span style=""font-size:30px; font-family: monospace"">estudar</span>"," ","","exp-sent","estudar","","",""
"","1492","html-keyboard-response","105","313950","0.0-3.0-1.74","<span style=""font-size:30px; font-family: monospace"">matemática</span>"," ","","exp-sent","matemática","","",""
"","965","html-keyboard-response","106","315166","0.0-3.0-1.75","<span style=""font-size:30px; font-family: monospace"">com</span>"," ","","exp-sent","com","","",""
"","1750","html-keyboard-response","107","317166","0.0-3.0-1.76","<span style=""font-size:30px; font-family: monospace"">colegas.</span>"," ","","comp","colegas.","","",""
"","10949","html-keyboard-response","108","328367","0.0-3.0-2.76-0.76","<span style=""font-size:30px; font-family: monospace"">Ela gosta de estudar física?</span>","n","","comp","","Ela gosta de estudar física?","não","false"
"","null","html-keyboard-response","109","329869","0.0-3.0-0.77-0.77","<span style= ""font-size:30px; font-family: monospace"">+</span>","null","fixation","","","","",""
"","2086","html-keyboard-response","110","332206","0.0-3.0-1.77","<span style=""font-size:30px; font-family: monospace"">A</span>"," ","","exp-sent","A","","",""
"","1877","html-keyboard-response","111","334334","0.0-3.0-1.78","<span style=""font-size:30px; font-family: monospace"">motorista</span>"," ","","exp-sent","motorista","","",""
"","1717","html-keyboard-response","112","336302","0.0-3.0-1.79","<span style=""font-size:30px; font-family: monospace"">fez</span>"," ","","exp-sent","fez","","",""
"","1029","html-keyboard-response","113","337582","0.0-3.0-1.80","<span style=""font-size:30px; font-family: monospace"">o</span>"," ","","exp-sent","o","","",""
"","1316","html-keyboard-response","114","339150","0.0-3.0-1.81","<span style=""font-size:30px; font-family: monospace"">retorno</span>"," ","","exp-sent","retorno","","",""
"","2900","html-keyboard-response","115","342302","0.0-3.0-1.82","<span style=""font-size:30px; font-family: monospace"">com</span>"," ","","exp-sent","com","","",""
"","2037","html-keyboard-response","116","344590","0.0-3.0-1.83","<span style=""font-size:30px; font-family: monospace"">cuidado.</span>"," ","","exp-sent","cuidado.","","",""
"","null","html-keyboard-response","117","345842","0.0-3.0-0.84-0.84","<span style= ""font-size:30px; font-family: monospace"">+</span>","null","fixation","","","","",""
"","1360","html-keyboard-response","118","347454","0.0-3.0-1.84","<span style=""font-size:30px; font-family: monospace"">Contos</span>"," ","","exp-sent","Contos","","",""
"","1701","html-keyboard-response","119","349406","0.0-3.0-1.85","<span style=""font-size:30px; font-family: monospace"">de</span>"," ","","exp-sent","de","","",""
"","1493","html-keyboard-response","120","351150","0.0-3.0-1.86","<span style=""font-size:30px; font-family: monospace"">ação</span>"," ","","exp-sent","ação","","",""
"","2037","html-keyboard-response","121","353438","0.0-3.0-1.87","<span style=""font-size:30px; font-family: monospace"">têm</span>"," ","","exp-sent","têm","","",""
"","1013","html-keyboard-response","122","354702","0.0-3.0-1.88","<span style=""font-size:30px; font-family: monospace"">chantagem</span>"," ","","exp-sent","chantagem","","",""
"","1717","html-keyboard-response","123","356670","0.0-3.0-1.89","<span style=""font-size:30px; font-family: monospace"">e</span>"," ","","exp-sent","e","","",""
"","1285","html-keyboard-response","124","358206","0.0-3.0-1.90","<span style=""font-size:30px; font-family: monospace"">muita</span>"," ","","exp-sent","muita","","",""
"","1828","html-keyboard-response","125","360286","0.0-3.0-1.91","<span style=""font-size:30px; font-family: monospace"">luta.</span>"," ","","exp-sent","luta.","","",""
"","null","html-keyboard-response","126","361538","0.0-3.0-0.92-0.92","<span style= ""font-size:30px; font-family: monospace"">+</span>","null","fixation","","","","",""
"","1730","html-keyboard-response","127","363518","0.0-3.0-1.92","<span style=""font-size:30px; font-family: monospace"">A</span>"," ","","exp-sent","A","","",""
"","1461","html-keyboard-response","128","365230","0.0-3.0-1.93","<span style=""font-size:30px; font-family: monospace"">bisavó</span>"," ","","exp-sent","bisavó","","",""
"","2228","html-keyboard-response","129","367710","0.0-3.0-1.94","<span style=""font-size:30px; font-family: monospace"">recebeu</span>"," ","","exp-sent","recebeu","","",""
"","1669","html-keyboard-response","130","369630","0.0-3.0-1.95","<span style=""font-size:30px; font-family: monospace"">um</span>"," ","","exp-sent","um","","",""
"","853","html-keyboard-response","131","370734","0.0-3.0-1.96","<span style=""font-size:30px; font-family: monospace"">benefício</span>"," ","","exp-sent","benefício","","",""
"","1701","html-keyboard-response","132","372686","0.0-3.0-1.97","<span style=""font-size:30px; font-family: monospace"">temporário</span>"," ","","exp-sent","temporário","","",""
"","1460","html-keyboard-response","133","374398","0.0-3.0-1.98","<span style=""font-size:30px; font-family: monospace"">do</span>"," ","","exp-sent","do","","",""
"","1269","html-keyboard-response","134","375918","0.0-3.0-1.99","<span style=""font-size:30px; font-family: monospace"">governo.</span>"," ","","exp-sent","governo.","","",""
"","null","html-keyboard-response","135","377169","0.0-3.0-0.100-0.100","<span style= ""font-size:30px; font-family: monospace"">+</span>","null","fixation","","","","",""
"","210","html-keyboard-response","136","377630","0.0-3.0-1.100","<span style=""font-size:30px; font-family: monospace"">As</span>"," ","","exp-sent","As","","",""
"","1029","html-keyboard-response","137","378910","0.0-3.0-1.101","<span style=""font-size:30px; font-family: monospace"">crianças</span>"," ","","exp-sent","crianças","","",""
"","2437","html-keyboard-response","138","381598","0.0-3.0-1.102","<span style=""font-size:30px; font-family: monospace"">brincaram</span>"," ","","exp-sent","brincaram","","",""
"","948","html-keyboard-response","139","382797","0.0-3.0-1.103","<span style=""font-size:30px; font-family: monospace"">no</span>"," ","","exp-sent","no","","",""
"","1365","html-keyboard-response","140","384414","0.0-3.0-1.104","<span style=""font-size:30px; font-family: monospace"">balanço</span>"," ","","exp-sent","balanço","","",""
"","2197","html-keyboard-response","141","386862","0.0-3.0-1.105","<span style=""font-size:30px; font-family: monospace"">a</span>"," ","","exp-sent","a","","",""
"","1429","html-keyboard-response","142","388542","0.0-3.0-1.106","<span style=""font-size:30px; font-family: monospace"">tarde</span>"," ","","exp-sent","tarde","","",""
"","1204","html-keyboard-response","143","389998","0.0-3.0-1.107","<span style=""font-size:30px; font-family: monospace"">toda.</span>"," ","","exp-sent","toda.","","",""
"","null","html-keyboard-response","144","391249","0.0-3.0-0.108-0.108","<span style= ""font-size:30px; font-family: monospace"">+</span>","null","fixation","","","","",""
"","179","html-keyboard-response","145","391678","0.0-3.0-1.108","<span style=""font-size:30px; font-family: monospace"">Ela</span>"," ","","exp-sent","Ela","","",""
"","1685","html-keyboard-response","146","393614","0.0-3.0-1.109","<span style=""font-size:30px; font-family: monospace"">gosta</span>"," ","","exp-sent","gosta","","",""
"","1846","html-keyboard-response","147","395710","0.0-3.0-1.110","<span style=""font-size:30px; font-family: monospace"">de</span>"," ","","exp-sent","de","","",""
"","1333","html-keyboard-response","148","397294","0.0-3.0-1.111","<span style=""font-size:30px; font-family: monospace"">comida</span>"," ","","exp-sent","comida","","",""
"","1349","html-keyboard-response","149","398894","0.0-3.0-1.112","<span style=""font-size:30px; font-family: monospace"">natural</span>"," ","","exp-sent","natural","","",""
"","1445","html-keyboard-response","150","400590","0.0-3.0-1.113","<span style=""font-size:30px; font-family: monospace"">no</span>"," ","","exp-sent","no","","",""
"","1718","html-keyboard-response","151","402558","0.0-3.0-1.114","<span style=""font-size:30px; font-family: monospace"">almoço.</span>"," ","","comp","almoço.","","",""
"","26484","html-keyboard-response","152","429294","0.0-3.0-2.114-0.114","<span style=""font-size:30px; font-family: monospace"">Ela gosta de comida natural no almoço?</span>","s","","comp","","Ela gosta de comida natural no almoço?","sim","false"
"","null","html-keyboard-response","153","430796","0.0-3.0-0.115-0.115","<span style= ""font-size:30px; font-family: monospace"">+</span>","null","fixation","","","","",""
"","1478","html-keyboard-response","154","432525","0.0-3.0-1.115","<span style=""font-size:30px; font-family: monospace"">Ele</span>"," ","","exp-sent","Ele","","",""
"","1413","html-keyboard-response","155","434189","0.0-3.0-1.116","<span style=""font-size:30px; font-family: monospace"">é</span>"," ","","exp-sent","é","","",""
"","1476","html-keyboard-response","156","435917","0.0-3.0-1.117","<span style=""font-size:30px; font-family: monospace"">um</span>"," ","","exp-sent","um","","",""
"","1796","html-keyboard-response","157","437965","0.0-3.0-1.118","<span style=""font-size:30px; font-family: monospace"">pai</span>"," ","","exp-sent","pai","","",""
"","1348","html-keyboard-response","158","439565","0.0-3.0-1.119","<span style=""font-size:30px; font-family: monospace"">ausente</span>"," ","","exp-sent","ausente","","",""
"","1413","html-keyboard-response","159","441229","0.0-3.0-1.120","<span style=""font-size:30px; font-family: monospace"">e</span>"," ","","exp-sent","e","","",""
"","1428","html-keyboard-response","160","442909","0.0-3.0-1.121","<span style=""font-size:30px; font-family: monospace"">muito</span>"," ","","exp-sent","muito","","",""
"","1845","html-keyboard-response","161","445005","0.0-3.0-1.122","<span style=""font-size:30px; font-family: monospace"">fofoqueiro.</span>"," ","","exp-sent","fofoqueiro.","","",""
"","null","html-keyboard-response","162","446258","0.0-3.0-0.123-0.123","<span style= ""font-size:30px; font-family: monospace"">+</span>","null","fixation","","","","",""
"","401","html-keyboard-response","163","446909","0.0-3.0-1.123","<span style=""font-size:30px; font-family: monospace"">O</span>"," ","","exp-sent","O","","",""
"","1076","html-keyboard-response","164","448237","0.0-3.0-1.124","<span style=""font-size:30px; font-family: monospace"">filho</span>"," ","","exp-sent","filho","","",""
"","1605","html-keyboard-response","165","450093","0.0-3.0-1.125","<span style=""font-size:30px; font-family: monospace"">lavou</span>"," ","","exp-sent","lavou","","",""
"","1689","html-keyboard-response","166","452045","0.0-3.0-1.126","<span style=""font-size:30px; font-family: monospace"">a</span>"," ","","exp-sent","a","","",""
"","997","html-keyboard-response","167","453293","0.0-3.0-1.127","<span style=""font-size:30px; font-family: monospace"">roupa</span>"," ","","exp-sent","roupa","","",""
"","1638","html-keyboard-response","168","455181","0.0-3.0-1.128","<span style=""font-size:30px; font-family: monospace"">sem</span>"," ","","exp-sent","sem","","",""
"","1605","html-keyboard-response","169","457037","0.0-3.0-1.129","<span style=""font-size:30px; font-family: monospace"">nenhuma</span>"," ","","exp-sent","nenhuma","","",""
"","1589","html-keyboard-response","170","458877","0.0-3.0-1.130","<span style=""font-size:30px; font-family: monospace"">ajuda.</span>"," ","","exp-sent","ajuda.","","",""
"","null","html-keyboard-response","171","460128","0.0-3.0-0.131-0.131","<span style= ""font-size:30px; font-family: monospace"">+</span>","null","fixation","","","","",""
"","34","html-keyboard-response","172","460413","0.0-3.0-1.131","<span style=""font-size:30px; font-family: monospace"">O</span>"," ","","exp-sent","O","","",""
"","1541","html-keyboard-response","173","462205","0.0-3.0-1.132","<span style=""font-size:30px; font-family: monospace"">menino</span>"," ","","exp-sent","menino","","",""
"","1526","html-keyboard-response","174","463981","0.0-3.0-1.133","<span style=""font-size:30px; font-family: monospace"">quebrou</span>"," ","","exp-sent","quebrou","","",""
"","1061","html-keyboard-response","175","465293","0.0-3.0-1.134","<span style=""font-size:30px; font-family: monospace"">a</span>"," ","","exp-sent","a","","",""
"","1381","html-keyboard-response","176","466925","0.0-3.0-1.135","<span style=""font-size:30px; font-family: monospace"">perna</span>"," ","","exp-sent","perna","","",""
"","869","html-keyboard-response","177","468045","0.0-3.0-1.136","<span style=""font-size:30px; font-family: monospace"">nos</span>"," ","","exp-sent","nos","","",""
"","1157","html-keyboard-response","178","469453","0.0-3.0-1.137","<span style=""font-size:30px; font-family: monospace"">esportes.</span>"," ","","exp-sent","esportes.","","",""
"","null","html-keyboard-response","179","470705","0.0-3.0-0.138-0.138","<span style= ""font-size:30px; font-family: monospace"">+</span>","null","fixation","","","","",""
"","1905","html-keyboard-response","180","472861","0.0-3.0-1.138","<span style=""font-size:30px; font-family: monospace"">Ela</span>"," ","","exp-sent","Ela","","",""
"","1173","html-keyboard-response","181","474285","0.0-3.0-1.139","<span style=""font-size:30px; font-family: monospace"">brincou</span>"," ","","exp-sent","brincou","","",""
"","1909","html-keyboard-response","182","476445","0.0-3.0-1.140","<span style=""font-size:30px; font-family: monospace"">com</span>"," ","","exp-sent","com","","",""
"","725","html-keyboard-response","183","477421","0.0-3.0-1.141","<span style=""font-size:30px; font-family: monospace"">uma</span>"," ","","exp-sent","uma","","",""
"","1477","html-keyboard-response","184","479149","0.0-3.0-1.142","<span style=""font-size:30px; font-family: monospace"">menina</span>"," ","","exp-sent","menina","","",""
"","1893","html-keyboard-response","185","481293","0.0-3.0-1.143","<span style=""font-size:30px; font-family: monospace"">da</span>"," ","","exp-sent","da","","",""
"","837","html-keyboard-response","186","482381","0.0-3.0-1.144","<span style=""font-size:30px; font-family: monospace"">turma.</span>"," ","","exp-sent","turma.","","",""
"","null","html-keyboard-response","187","483633","0.0-3.0-0.145-0.145","<span style= ""font-size:30px; font-family: monospace"">+</span>","null","fixation","","","","",""
"","484","html-keyboard-response","188","484381","0.0-3.0-1.145","<span style=""font-size:30px; font-family: monospace"">Ele</span>"," ","","exp-sent","Ele","","",""
"","1012","html-keyboard-response","189","485645","0.0-3.0-1.146","<span style=""font-size:30px; font-family: monospace"">esteve</span>"," ","","exp-sent","esteve","","",""
"","1317","html-keyboard-response","190","487213","0.0-3.0-1.147","<span style=""font-size:30px; font-family: monospace"">no</span>"," ","","exp-sent","no","","",""
"","1685","html-keyboard-response","191","489149","0.0-3.0-1.148","<span style=""font-size:30px; font-family: monospace"">escritório</span>"," ","","exp-sent","escritório","","",""
"","1445","html-keyboard-response","192","490845","0.0-3.0-1.149","<span style=""font-size:30px; font-family: monospace"">o</span>"," ","","exp-sent","o","","",""
"","836","html-keyboard-response","193","491933","0.0-3.0-1.150","<span style=""font-size:30px; font-family: monospace"">dia</span>"," ","","exp-sent","dia","","",""
"","1301","html-keyboard-response","194","493485","0.0-3.0-1.151","<span style=""font-size:30px; font-family: monospace"">inteiro.</span>"," ","","comp","inteiro.","","",""
"","19749","html-keyboard-response","195","513485","0.0-3.0-2.151-0.151","<span style=""font-size:30px; font-family: monospace"">Ele esteve no parque o dia inteiro?</span>","n","","comp","","Ele esteve no parque o dia inteiro?","não","false"
"","null","html-keyboard-response","196","514986","0.0-3.0-0.152-0.152","<span style= ""font-size:30px; font-family: monospace"">+</span>","null","fixation","","","","",""
"","775","html-keyboard-response","197","516012","0.0-3.0-1.152","<span style=""font-size:30px; font-family: monospace"">Eu</span>"," ","","exp-sent","Eu","","",""
"","1749","html-keyboard-response","198","518013","0.0-3.0-1.153","<span style=""font-size:30px; font-family: monospace"">gosto</span>"," ","","exp-sent","gosto","","",""
"","934","html-keyboard-response","199","519197","0.0-3.0-1.154","<span style=""font-size:30px; font-family: monospace"">de</span>"," ","","exp-sent","de","","",""
"","1589","html-keyboard-response","200","521037","0.0-3.0-1.155","<span style=""font-size:30px; font-family: monospace"">molho</span>"," ","","exp-sent","molho","","",""
"","934","html-keyboard-response","201","522221","0.0-3.0-1.156","<span style=""font-size:30px; font-family: monospace"">picante</span>"," ","","exp-sent","picante","","",""
"","1717","html-keyboard-response","202","524189","0.0-3.0-1.157","<span style=""font-size:30px; font-family: monospace"">nas</span>"," ","","exp-sent","nas","","",""
"","1158","html-keyboard-response","203","525597","0.0-3.0-1.158","<span style=""font-size:30px; font-family: monospace"">batatas.</span>"," ","","exp-sent","batatas.","","",""
"","null","html-keyboard-response","204","526850","0.0-3.0-0.159-0.159","<span style= ""font-size:30px; font-family: monospace"">+</span>","null","fixation","","","","",""
"","575","html-keyboard-response","205","527677","0.0-3.0-1.159","<span style=""font-size:30px; font-family: monospace"">As</span>"," ","","exp-sent","As","","",""
"","1317","html-keyboard-response","206","529245","0.0-3.0-1.160","<span style=""font-size:30px; font-family: monospace"">pessoas</span>"," ","","exp-sent","pessoas","","",""
"","1108","html-keyboard-response","207","530605","0.0-3.0-1.161","<span style=""font-size:30px; font-family: monospace"">têm</span>"," ","","exp-sent","têm","","",""
"","1317","html-keyboard-response","208","532173","0.0-3.0-1.162","<span style=""font-size:30px; font-family: monospace"">sua</span>"," ","","exp-sent","sua","","",""
"","1748","html-keyboard-response","209","534173","0.0-3.0-1.163","<span style=""font-size:30px; font-family: monospace"">liberdade</span>"," ","","exp-sent","liberdade","","",""
"","1717","html-keyboard-response","210","536141","0.0-3.0-1.164","<span style=""font-size:30px; font-family: monospace"">até</span>"," ","","exp-sent","até","","",""
"","1268","html-keyboard-response","211","537661","0.0-3.0-1.165","<span style=""font-size:30px; font-family: monospace"">certo</span>"," ","","exp-sent","certo","","",""
"","1604","html-keyboard-response","212","539517","0.0-3.0-1.166","<span style=""font-size:30px; font-family: monospace"">ponto.</span>"," ","","exp-sent","ponto.","","",""
"","null","html-keyboard-response","213","540768","0.0-3.0-0.167-0.167","<span style= ""font-size:30px; font-family: monospace"">+</span>","null","fixation","","","","",""
"","514","html-keyboard-response","214","541532","0.0-3.0-1.167","<span style=""font-size:30px; font-family: monospace"">A</span>"," ","","exp-sent","A","","",""
"","1718","html-keyboard-response","215","543501","0.0-3.0-1.168","<span style=""font-size:30px; font-family: monospace"">empresa</span>"," ","","exp-sent","empresa","","",""
"","6852","html-keyboard-response","216","550605","0.0-3.0-1.169","<span style=""font-size:30px; font-family: monospace"">enviou</span>"," ","","exp-sent","enviou","","",""
"","7509","html-keyboard-response","217","558364","0.0-3.0-1.170","<span style=""font-size:30px; font-family: monospace"">o</span>"," ","","exp-sent","o","","",""
"","2229","html-keyboard-response","218","560844","0.0-3.0-1.171","<span style=""font-size:30px; font-family: monospace"">aviso</span>"," ","","exp-sent","aviso","","",""
"","1236","html-keyboard-response","219","562332","0.0-3.0-1.172","<span style=""font-size:30px; font-family: monospace"">hoje</span>"," ","","exp-sent","hoje","","",""
"","1253","html-keyboard-response","220","563836","0.0-3.0-1.173","<span style=""font-size:30px; font-family: monospace"">de</span>"," ","","exp-sent","de","","",""
"","1317","html-keyboard-response","221","565404","0.0-3.0-1.174","<span style=""font-size:30px; font-family: monospace"">tarde.</span>"," ","","exp-sent","tarde.","","",""
"","null","html-keyboard-response","222","566656","0.0-3.0-0.175-0.175","<span style= ""font-size:30px; font-family: monospace"">+</span>","null","fixation","","","","",""
"","578","html-keyboard-response","223","567484","0.0-3.0-1.175","<span style=""font-size:30px; font-family: monospace"">A</span>"," ","","exp-sent","A","","",""
"","1125","html-keyboard-response","224","568860","0.0-3.0-1.176","<span style=""font-size:30px; font-family: monospace"">loja</span>"," ","","exp-sent","loja","","",""
"","1349","html-keyboard-response","225","570460","0.0-3.0-1.177","<span style=""font-size:30px; font-family: monospace"">vende</span>"," ","","exp-sent","vende","","",""
"","1829","html-keyboard-response","226","572540","0.0-3.0-1.178","<span style=""font-size:30px; font-family: monospace"">tanto</span>"," ","","exp-sent","tanto","","",""
"","996","html-keyboard-response","227","573788","0.0-3.0-1.179","<span style=""font-size:30px; font-family: monospace"">frituras</span>"," ","","exp-sent","frituras","","",""
"","1477","html-keyboard-response","228","575516","0.0-3.0-1.180","<span style=""font-size:30px; font-family: monospace"">quanto</span>"," ","","exp-sent","quanto","","",""
"","1381","html-keyboard-response","229","577148","0.0-3.0-1.181","<span style=""font-size:30px; font-family: monospace"">comidas</span>"," ","","exp-sent","comidas","","",""
"","1557","html-keyboard-response","230","578956","0.0-3.0-1.182","<span style=""font-size:30px; font-family: monospace"">leves.</span>"," ","","exp-sent","leves.","","",""
"","null","html-keyboard-response","231","580209","0.0-3.0-0.183-0.183","<span style= ""font-size:30px; font-family: monospace"">+</span>","null","fixation","","","","",""
"","289","html-keyboard-response","232","580748","0.0-3.0-1.183","<span style=""font-size:30px; font-family: monospace"">As</span>"," ","","exp-sent","As","","",""
"","1525","html-keyboard-response","233","582524","0.0-3.0-1.184","<span style=""font-size:30px; font-family: monospace"">cadeiras</span>"," ","","exp-sent","cadeiras","","",""
"","2006","html-keyboard-response","234","584780","0.0-3.0-1.185","<span style=""font-size:30px; font-family: monospace"">azuis</span>"," ","","exp-sent","azuis","","",""
"","900","html-keyboard-response","235","585932","0.0-3.0-1.186","<span style=""font-size:30px; font-family: monospace"">da</span>"," ","","exp-sent","da","","",""
"","1861","html-keyboard-response","236","588044","0.0-3.0-1.187","<span style=""font-size:30px; font-family: monospace"">sala</span>"," ","","exp-sent","sala","","",""
"","2117","html-keyboard-response","237","590412","0.0-3.0-1.188","<span style=""font-size:30px; font-family: monospace"">eram</span>"," ","","exp-sent","eram","","",""
"","2341","html-keyboard-response","238","593004","0.0-3.0-1.189","<span style=""font-size:30px; font-family: monospace"">da</span>"," ","","exp-sent","da","","",""
"","2468","html-keyboard-response","239","595724","0.0-3.0-1.190","<span style=""font-size:30px; font-family: monospace"">minha</span>"," ","","exp-sent","minha","","",""
"","2293","html-keyboard-response","240","598268","0.0-3.0-1.191","<span style=""font-size:30px; font-family: monospace"">vó.</span>"," ","","comp","vó.","","",""
"","16022","html-keyboard-response","241","614540","0.0-3.0-2.191-0.191","<span style=""font-size:30px; font-family: monospace"">As cadeiras eram da avó?</span>","n","","comp","","As cadeiras eram da avó?","sim","false"
"","null","html-keyboard-response","242","616043","0.0-3.0-0.192-0.192","<span style= ""font-size:30px; font-family: monospace"">+</span>","null","fixation","","","","",""
"","1670","html-keyboard-response","243","617964","0.0-3.0-1.192","<span style=""font-size:30px; font-family: monospace"">Preciso</span>"," ","","exp-sent","Preciso","","",""
"","1428","html-keyboard-response","244","619645","0.0-3.0-1.193","<span style=""font-size:30px; font-family: monospace"">de</span>"," ","","exp-sent","de","","",""
"","1542","html-keyboard-response","245","621436","0.0-3.0-1.194","<span style=""font-size:30px; font-family: monospace"">um</span>"," ","","exp-sent","um","","",""
"","1621","html-keyboard-response","246","623309","0.0-3.0-1.195","<span style=""font-size:30px; font-family: monospace"">relatório</span>"," ","","exp-sent","relatório","","",""
"","1749","html-keyboard-response","247","625309","0.0-3.0-1.196","<span style=""font-size:30px; font-family: monospace"">oficial</span>"," ","","exp-sent","oficial","","",""
"","2212","html-keyboard-response","248","627772","0.0-3.0-1.197","<span style=""font-size:30px; font-family: monospace"">para</span>"," ","","exp-sent","para","","",""
"","2533","html-keyboard-response","249","630557","0.0-3.0-1.198","<span style=""font-size:30px; font-family: monospace"">amanhã.</span>"," ","","exp-sent","amanhã.","","",""
"","null","html-keyboard-response","250","631807","0.0-3.0-0.199-0.199","<span style= ""font-size:30px; font-family: monospace"">+</span>","null","fixation","","","","",""
"","1105","html-keyboard-response","251","633164","0.0-3.0-1.199","<span style=""font-size:30px; font-family: monospace"">Ele</span>"," ","","exp-sent","Ele","","",""
"","1781","html-keyboard-response","252","635196","0.0-3.0-1.200","<span style=""font-size:30px; font-family: monospace"">viu</span>"," ","","exp-sent","viu","","",""
"","1413","html-keyboard-response","253","636861","0.0-3.0-1.201","<span style=""font-size:30px; font-family: monospace"">um</span>"," ","","exp-sent","um","","",""
"","1317","html-keyboard-response","254","638428","0.0-3.0-1.202","<span style=""font-size:30px; font-family: monospace"">inseto</span>"," ","","exp-sent","inseto","","",""
"","2116","html-keyboard-response","255","640796","0.0-3.0-1.203","<span style=""font-size:30px; font-family: monospace"">marrom</span>"," ","","exp-sent","marrom","","",""
"","1925","html-keyboard-response","256","642972","0.0-3.0-1.204","<span style=""font-size:30px; font-family: monospace"">na</span>"," ","","exp-sent","na","","",""
"","1253","html-keyboard-response","257","644476","0.0-3.0-1.205","<span style=""font-size:30px; font-family: monospace"">parede.</span>"," ","","exp-sent","parede.","","",""
"","null","html-keyboard-response","258","645729","0.0-3.0-0.206-0.206","<span style= ""font-size:30px; font-family: monospace"">+</span>","null","fixation","","","","",""
"","656","html-keyboard-response","259","646636","0.0-3.0-1.206","<span style=""font-size:30px; font-family: monospace"">O</span>"," ","","exp-sent","O","","",""
"","1589","html-keyboard-response","260","648476","0.0-3.0-1.207","<span style=""font-size:30px; font-family: monospace"">avô</span>"," ","","exp-sent","avô","","",""
"","1604","html-keyboard-response","261","650332","0.0-3.0-1.208","<span style=""font-size:30px; font-family: monospace"">fez</span>"," ","","exp-sent","fez","","",""
"","2037","html-keyboard-response","262","652620","0.0-3.0-1.209","<span style=""font-size:30px; font-family: monospace"">uma</span>"," ","","exp-sent","uma","","",""
"","581","html-keyboard-response","263","653452","0.0-3.0-1.210","<span style=""font-size:30px; font-family: monospace"">lista</span>"," ","","exp-sent","lista","","",""
"","1765","html-keyboard-response","264","655468","0.0-3.0-1.211","<span style=""font-size:30px; font-family: monospace"">de</span>"," ","","exp-sent","de","","",""
"","805","html-keyboard-response","265","656524","0.0-3.0-1.212","<span style=""font-size:30px; font-family: monospace"">compras</span>"," ","","exp-sent","compras","","",""
"","1604","html-keyboard-response","266","658380","0.0-3.0-1.213","<span style=""font-size:30px; font-family: monospace"">do</span>"," ","","exp-sent","do","","",""
"","1700","html-keyboard-response","267","660333","0.0-3.0-1.214","<span style=""font-size:30px; font-family: monospace"">mercado.</span>"," ","","exp-sent","mercado.","","",""
"","null","html-keyboard-response","268","661585","0.0-3.0-0.215-0.215","<span style= ""font-size:30px; font-family: monospace"">+</span>","null","fixation","","","","",""
"","48","html-keyboard-response","269","661884","0.0-3.0-1.215","<span style=""font-size:30px; font-family: monospace"">As</span>"," ","","exp-sent","As","","",""
"","1285","html-keyboard-response","270","663420","0.0-3.0-1.216","<span style=""font-size:30px; font-family: monospace"">pessoas</span>"," ","","exp-sent","pessoas","","",""
"","1861","html-keyboard-response","271","665532","0.0-3.0-1.217","<span style=""font-size:30px; font-family: monospace"">não</span>"," ","","exp-sent","não","","",""
"","965","html-keyboard-response","272","666748","0.0-3.0-1.218","<span style=""font-size:30px; font-family: monospace"">enviam</span>"," ","","exp-sent","enviam","","",""
"","1542","html-keyboard-response","273","668540","0.0-3.0-1.219","<span style=""font-size:30px; font-family: monospace"">telegrama</span>"," ","","exp-sent","telegrama","","",""
"","2021","html-keyboard-response","274","670812","0.0-3.0-1.220","<span style=""font-size:30px; font-family: monospace"">nos</span>"," ","","exp-sent","nos","","",""
"","1429","html-keyboard-response","275","672492","0.0-3.0-1.221","<span style=""font-size:30px; font-family: monospace"">dias</span>"," ","","exp-sent","dias","","",""
"","1269","html-keyboard-response","276","674012","0.0-3.0-1.222","<span style=""font-size:30px; font-family: monospace"">de</span>"," ","","exp-sent","de","","",""
"","1317","html-keyboard-response","277","675580","0.0-3.0-1.223","<span style=""font-size:30px; font-family: monospace"">hoje.</span>"," ","","exp-sent","hoje.","","",""
"","null","html-keyboard-response","278","676837","0.0-3.0-0.224-0.224","<span style= ""font-size:30px; font-family: monospace"">+</span>","null","fixation","","","","",""
"","589","html-keyboard-response","279","677676","0.0-3.0-1.224","<span style=""font-size:30px; font-family: monospace"">Ele</span>"," ","","exp-sent","Ele","","",""
"","1157","html-keyboard-response","280","679083","0.0-3.0-1.225","<span style=""font-size:30px; font-family: monospace"">não</span>"," ","","exp-sent","não","","",""
"","1269","html-keyboard-response","281","680604","0.0-3.0-1.226","<span style=""font-size:30px; font-family: monospace"">gosta</span>"," ","","exp-sent","gosta","","",""
"","1973","html-keyboard-response","282","682828","0.0-3.0-1.227","<span style=""font-size:30px; font-family: monospace"">de</span>"," ","","exp-sent","de","","",""
"","1172","html-keyboard-response","283","684251","0.0-3.0-1.228","<span style=""font-size:30px; font-family: monospace"">tomate</span>"," ","","exp-sent","tomate","","",""
"","1574","html-keyboard-response","284","686076","0.0-3.0-1.229","<span style=""font-size:30px; font-family: monospace"">misturado</span>"," ","","exp-sent","misturado","","",""
"","1941","html-keyboard-response","285","688268","0.0-3.0-1.230","<span style=""font-size:30px; font-family: monospace"">na</span>"," ","","exp-sent","na","","",""
"","1365","html-keyboard-response","286","689884","0.0-3.0-1.231","<span style=""font-size:30px; font-family: monospace"">comida.</span>"," ","","comp","comida.","","",""
"","8134","html-keyboard-response","287","698268","0.0-3.0-2.231-0.231","<span style=""font-size:30px; font-family: monospace"">Ele gosta de tomate na comida?</span>","s","","comp","","Ele gosta de tomate na comida?","não","false"
"","null","html-keyboard-response","288","699769","0.0-3.0-0.232-0.232","<span style= ""font-size:30px; font-family: monospace"">+</span>","null","fixation","","","","",""
"","3558","html-keyboard-response","289","703580","0.0-3.0-1.232","<span style=""font-size:30px; font-family: monospace"">Ganhamos</span>"," ","","exp-sent","Ganhamos","","",""
"","1509","html-keyboard-response","290","705339","0.0-3.0-1.233","<span style=""font-size:30px; font-family: monospace"">passagem</span>"," ","","exp-sent","passagem","","",""
"","1636","html-keyboard-response","291","707227","0.0-3.0-1.234","<span style=""font-size:30px; font-family: monospace"">para</span>"," ","","exp-sent","para","","",""
"","1317","html-keyboard-response","292","708796","0.0-3.0-1.235","<span style=""font-size:30px; font-family: monospace"">uma</span>"," ","","exp-sent","uma","","",""
"","1397","html-keyboard-response","293","710444","0.0-3.0-1.236","<span style=""font-size:30px; font-family: monospace"">viagem</span>"," ","","exp-sent","viagem","","",""
"","1941","html-keyboard-response","294","712635","0.0-3.0-1.237","<span style=""font-size:30px; font-family: monospace"">de</span>"," ","","exp-sent","de","","",""
"","1461","html-keyboard-response","295","714347","0.0-3.0-1.238","<span style=""font-size:30px; font-family: monospace"">férias.</span>"," ","","exp-sent","férias.","","",""
"","null","html-keyboard-response","296","715600","0.0-3.0-0.239-0.239","<span style= ""font-size:30px; font-family: monospace"">+</span>","null","fixation","","","","",""
"","575","html-keyboard-response","297","716427","0.0-3.0-1.239","<span style=""font-size:30px; font-family: monospace"">Caiu</span>"," ","","exp-sent","Caiu","","",""
"","1414","html-keyboard-response","298","718091","0.0-3.0-1.240","<span style=""font-size:30px; font-family: monospace"">algo</span>"," ","","exp-sent","algo","","",""
"","1461","html-keyboard-response","299","719804","0.0-3.0-1.241","<span style=""font-size:30px; font-family: monospace"">no</span>"," ","","exp-sent","no","","",""
"","1445","html-keyboard-response","300","721500","0.0-3.0-1.242","<span style=""font-size:30px; font-family: monospace"">meu</span>"," ","","exp-sent","meu","","",""
"","1669","html-keyboard-response","301","723420","0.0-3.0-1.243","<span style=""font-size:30px; font-family: monospace"">olho</span>"," ","","exp-sent","olho","","",""
"","1717","html-keyboard-response","302","725387","0.0-3.0-1.244","<span style=""font-size:30px; font-family: monospace"">ontem</span>"," ","","exp-sent","ontem","","",""
"","1253","html-keyboard-response","303","726891","0.0-3.0-1.245","<span style=""font-size:30px; font-family: monospace"">de</span>"," ","","exp-sent","de","","",""
"","1093","html-keyboard-response","304","728236","0.0-3.0-1.246","<span style=""font-size:30px; font-family: monospace"">tarde.</span>"," ","","exp-sent","tarde.","","",""
"","null","html-keyboard-response","305","729487","0.0-3.0-0.247-0.247","<span style= ""font-size:30px; font-family: monospace"">+</span>","null","fixation","","","","",""
"","66","html-keyboard-response","306","729803","0.0-3.0-1.247","<span style=""font-size:30px; font-family: monospace"">Não</span>"," ","","exp-sent","Não","","",""
"","1492","html-keyboard-response","307","731548","0.0-3.0-1.248","<span style=""font-size:30px; font-family: monospace"">havia</span>"," ","","exp-sent","havia","","",""
"","2244","html-keyboard-response","308","734044","0.0-3.0-1.249","<span style=""font-size:30px; font-family: monospace"">mais</span>"," ","","exp-sent","mais","","",""
"","1173","html-keyboard-response","309","735467","0.0-3.0-1.250","<span style=""font-size:30px; font-family: monospace"">nenhum</span>"," ","","exp-sent","nenhum","","",""
"","1557","html-keyboard-response","310","737275","0.0-3.0-1.251","<span style=""font-size:30px; font-family: monospace"">ingresso</span>"," ","","exp-sent","ingresso","","",""
"","1765","html-keyboard-response","311","739292","0.0-3.0-1.252","<span style=""font-size:30px; font-family: monospace"">para</span>"," ","","exp-sent","para","","",""
"","1205","html-keyboard-response","312","740748","0.0-3.0-1.253","<span style=""font-size:30px; font-family: monospace"">o</span>"," ","","exp-sent","o","","",""
"","1685","html-keyboard-response","313","742684","0.0-3.0-1.254","<span style=""font-size:30px; font-family: monospace"">evento.</span>"," ","","exp-sent","evento.","","",""
"","null","html-keyboard-response","314","743935","0.0-3.0-0.255-0.255","<span style= ""font-size:30px; font-family: monospace"">+</span>","null","fixation","","","","",""
"","1505","html-keyboard-response","315","745692","0.0-3.0-1.255","<span style=""font-size:30px; font-family: monospace"">A</span>"," ","","exp-sent","A","","",""
"","1765","html-keyboard-response","316","747708","0.0-3.0-1.256","<span style=""font-size:30px; font-family: monospace"">médica</span>"," ","","exp-sent","médica","","",""
"","1573","html-keyboard-response","317","749532","0.0-3.0-1.257","<span style=""font-size:30px; font-family: monospace"">descobriu</span>"," ","","exp-sent","descobriu","","",""
"","1749","html-keyboard-response","318","751532","0.0-3.0-1.258","<span style=""font-size:30px; font-family: monospace"">uma</span>"," ","","exp-sent","uma","","",""
"","1461","html-keyboard-response","319","753244","0.0-3.0-1.259","<span style=""font-size:30px; font-family: monospace"">cura</span>"," ","","exp-sent","cura","","",""
"","1638","html-keyboard-response","320","755132","0.0-3.0-1.260","<span style=""font-size:30px; font-family: monospace"">para</span>"," ","","exp-sent","para","","",""
"","1573","html-keyboard-response","321","756956","0.0-3.0-1.261","<span style=""font-size:30px; font-family: monospace"">a</span>"," ","","exp-sent","a","","",""
"","1669","html-keyboard-response","322","758876","0.0-3.0-1.262","<span style=""font-size:30px; font-family: monospace"">doença.</span>"," ","","exp-sent","doença.","","",""
"","null","html-keyboard-response","323","760139","0.0-3.0-0.263-0.263","<span style= ""font-size:30px; font-family: monospace"">+</span>","null","fixation","","","","",""
"","166","html-keyboard-response","324","760556","0.0-3.0-1.263","<span style=""font-size:30px; font-family: monospace"">O</span>"," ","","exp-sent","O","","",""
"","1285","html-keyboard-response","325","762092","0.0-3.0-1.264","<span style=""font-size:30px; font-family: monospace"">menino</span>"," ","","exp-sent","menino","","",""
"","2325","html-keyboard-response","326","764668","0.0-3.0-1.265","<span style=""font-size:30px; font-family: monospace"">riscou</span>"," ","","exp-sent","riscou","","",""
"","1620","html-keyboard-response","327","766540","0.0-3.0-1.266","<span style=""font-size:30px; font-family: monospace"">o</span>"," ","","exp-sent","o","","",""
"","1381","html-keyboard-response","328","768172","0.0-3.0-1.267","<span style=""font-size:30px; font-family: monospace"">caderno</span>"," ","","exp-sent","caderno","","",""
"","1380","html-keyboard-response","329","769804","0.0-3.0-1.268","<span style=""font-size:30px; font-family: monospace"">com</span>"," ","","exp-sent","com","","",""
"","932","html-keyboard-response","330","770987","0.0-3.0-1.269","<span style=""font-size:30px; font-family: monospace"">a</span>"," ","","exp-sent","a","","",""
"","1269","html-keyboard-response","331","772508","0.0-3.0-1.270","<span style=""font-size:30px; font-family: monospace"">caneta.</span>"," ","","comp","caneta.","","",""
"","5637","html-keyboard-response","332","778396","0.0-3.0-2.270-0.270","<span style=""font-size:30px; font-family: monospace"">O menino riscou a parede com a caneta?</span>","s","","comp","","O menino riscou a parede com a caneta?","não","false"
"","null","html-keyboard-response","333","779897","0.0-3.0-0.271-0.271","<span style= ""font-size:30px; font-family: monospace"">+</span>","null","fixation","","","","",""
"","2919","html-keyboard-response","334","783067","0.0-3.0-1.271","<span style=""font-size:30px; font-family: monospace"">No</span>"," ","","exp-sent","No","","",""
"","2358","html-keyboard-response","335","785676","0.0-3.0-1.272","<span style=""font-size:30px; font-family: monospace"">passado</span>"," ","","exp-sent","passado","","",""
"","2437","html-keyboard-response","336","788364","0.0-3.0-1.273","<span style=""font-size:30px; font-family: monospace"">houve</span>"," ","","exp-sent","houve","","",""
"","2213","html-keyboard-response","337","790828","0.0-3.0-1.274","<span style=""font-size:30px; font-family: monospace"">uma</span>"," ","","exp-sent","uma","","",""
"","2325","html-keyboard-response","338","793404","0.0-3.0-1.275","<span style=""font-size:30px; font-family: monospace"">rebelião</span>"," ","","exp-sent","rebelião","","",""
"","2436","html-keyboard-response","339","796092","0.0-3.0-1.276","<span style=""font-size:30px; font-family: monospace"">nesta</span>"," ","","exp-sent","nesta","","",""
"","2821","html-keyboard-response","340","799164","0.0-3.0-1.277","<span style=""font-size:30px; font-family: monospace"">cidade.</span>"," ","","exp-sent","cidade.","","",""
"","null","html-keyboard-response","341","800416","0.0-3.0-0.278-0.278","<span style= ""font-size:30px; font-family: monospace"">+</span>","null","fixation","","","","",""
"","1471","html-keyboard-response","342","802138","0.0-3.0-1.278","<span style=""font-size:30px; font-family: monospace"">Ele</span>"," ","","exp-sent","Ele","","",""
"","1525","html-keyboard-response","343","803915","0.0-3.0-1.279","<span style=""font-size:30px; font-family: monospace"">fundou</span>"," ","","exp-sent","fundou","","",""
"","1973","html-keyboard-response","344","806139","0.0-3.0-1.280","<span style=""font-size:30px; font-family: monospace"">uma</span>"," ","","exp-sent","uma","","",""
"","805","html-keyboard-response","345","807195","0.0-3.0-1.281","<span style=""font-size:30px; font-family: monospace"">empresa</span>"," ","","exp-sent","empresa","","",""
"","1702","html-keyboard-response","346","809147","0.0-3.0-1.282","<span style=""font-size:30px; font-family: monospace"">privada</span>"," ","","exp-sent","privada","","",""
"","1636","html-keyboard-response","347","811035","0.0-3.0-1.283","<span style=""font-size:30px; font-family: monospace"">sem</span>"," ","","exp-sent","sem","","",""
"","1733","html-keyboard-response","348","813019","0.0-3.0-1.284","<span style=""font-size:30px; font-family: monospace"">ajuda.</span>"," ","","exp-sent","ajuda.","","",""
"","null","html-keyboard-response","349","814269","0.0-3.0-0.285-0.285","<span style= ""font-size:30px; font-family: monospace"">+</span>","null","fixation","","","","",""
"","1346","html-keyboard-response","350","815867","0.0-3.0-1.285","<span style=""font-size:30px; font-family: monospace"">As</span>"," ","","exp-sent","As","","",""
"","1621","html-keyboard-response","351","817739","0.0-3.0-1.286","<span style=""font-size:30px; font-family: monospace"">meninas</span>"," ","","exp-sent","meninas","","",""
"","1189","html-keyboard-response","352","819179","0.0-3.0-1.287","<span style=""font-size:30px; font-family: monospace"">encontraram</span>"," ","","exp-sent","encontraram","","",""
"","1013","html-keyboard-response","353","820443","0.0-3.0-1.288","<span style=""font-size:30px; font-family: monospace"">um</span>"," ","","exp-sent","um","","",""
"","1349","html-keyboard-response","354","822042","0.0-3.0-1.289","<span style=""font-size:30px; font-family: monospace"">rato</span>"," ","","exp-sent","rato","","",""
"","1109","html-keyboard-response","355","823403","0.0-3.0-1.290","<span style=""font-size:30px; font-family: monospace"">dentro</span>"," ","","exp-sent","dentro","","",""
"","2181","html-keyboard-response","356","825835","0.0-3.0-1.291","<span style=""font-size:30px; font-family: monospace"">de</span>"," ","","exp-sent","de","","",""
"","1157","html-keyboard-response","357","827243","0.0-3.0-1.292","<span style=""font-size:30px; font-family: monospace"">casa.</span>"," ","","exp-sent","casa.","","",""
"","null","html-keyboard-response","358","828494","0.0-3.0-0.293-0.293","<span style= ""font-size:30px; font-family: monospace"">+</span>","null","fixation","","","","",""
"","402","html-keyboard-response","359","829147","0.0-3.0-1.293","<span style=""font-size:30px; font-family: monospace"">O</span>"," ","","exp-sent","O","","",""
"","2613","html-keyboard-response","360","832011","0.0-3.0-1.294","<span style=""font-size:30px; font-family: monospace"">texto</span>"," ","","exp-sent","texto","","",""
"","2245","html-keyboard-response","361","834507","0.0-3.0-1.295","<span style=""font-size:30px; font-family: monospace"">tinha</span>"," ","","exp-sent","tinha","","",""
"","3078","html-keyboard-response","362","837835","0.0-3.0-1.296","<span style=""font-size:30px; font-family: monospace"">ideias</span>"," ","","exp-sent","ideias","","",""
"","1700","html-keyboard-response","363","839787","0.0-3.0-1.297","<span style=""font-size:30px; font-family: monospace"">vagas</span>"," ","","exp-sent","vagas","","",""
"","1588","html-keyboard-response","364","841627","0.0-3.0-1.298","<span style=""font-size:30px; font-family: monospace"">e</span>"," ","","exp-sent","e","","",""
"","1301","html-keyboard-response","365","843179","0.0-3.0-1.299","<span style=""font-size:30px; font-family: monospace"">confusas.</span>"," ","","exp-sent","confusas.","","",""
"","null","html-keyboard-response","366","844431","0.0-3.0-0.300-0.300","<span style= ""font-size:30px; font-family: monospace"">+</span>","null","fixation","","","","",""
"","1168","html-keyboard-response","367","845850","0.0-3.0-1.300","<span style=""font-size:30px; font-family: monospace"">As</span>"," ","","exp-sent","As","","",""
"","1717","html-keyboard-response","368","847818","0.0-3.0-1.301","<span style=""font-size:30px; font-family: monospace"">crianças</span>"," ","","exp-sent","crianças","","",""
"","1892","html-keyboard-response","369","849962","0.0-3.0-1.302","<span style=""font-size:30px; font-family: monospace"">viram</span>"," ","","exp-sent","viram","","",""
"","1781","html-keyboard-response","370","851995","0.0-3.0-1.303","<span style=""font-size:30px; font-family: monospace"">a</span>"," ","","exp-sent","a","","",""
"","1444","html-keyboard-response","371","853691","0.0-3.0-1.304","<span style=""font-size:30px; font-family: monospace"">acrobata</span>"," ","","exp-sent","acrobata","","",""
"","2549","html-keyboard-response","372","856490","0.0-3.0-1.305","<span style=""font-size:30px; font-family: monospace"">talentosa</span>"," ","","exp-sent","talentosa","","",""
"","2309","html-keyboard-response","373","859050","0.0-3.0-1.306","<span style=""font-size:30px; font-family: monospace"">no</span>"," ","","exp-sent","no","","",""
"","2341","html-keyboard-response","374","861642","0.0-3.0-1.307","<span style=""font-size:30px; font-family: monospace"">circo.</span>"," ","","comp","circo.","","",""
"","5124","html-keyboard-response","375","867018","0.0-3.0-2.307-0.307","<span style=""font-size:30px; font-family: monospace"">As crianças viram o palhaço no circo?</span>","s","","comp","","As crianças viram o palhaço no circo?","não","false"
"","null","html-keyboard-response","376","868521","0.0-3.0-0.308-0.308","<span style= ""font-size:30px; font-family: monospace"">+</span>","null","fixation","","","","",""
"","182","html-keyboard-response","377","868954","0.0-3.0-1.308","<span style=""font-size:30px; font-family: monospace"">O</span>"," ","","exp-sent","O","","",""
"","2005","html-keyboard-response","378","871210","0.0-3.0-1.309","<span style=""font-size:30px; font-family: monospace"">travesseiro</span>"," ","","exp-sent","travesseiro","","",""
"","2113","html-keyboard-response","379","873578","0.0-3.0-1.310","<span style=""font-size:30px; font-family: monospace"">era</span>"," ","","exp-sent","era","","",""
"","2901","html-keyboard-response","380","876730","0.0-3.0-1.311","<span style=""font-size:30px; font-family: monospace"">muito</span>"," ","","exp-sent","muito","","",""
"","3061","html-keyboard-response","381","880042","0.0-3.0-1.312","<span style=""font-size:30px; font-family: monospace"">macio</span>"," ","","exp-sent","macio","","",""
"","2693","html-keyboard-response","382","882986","0.0-3.0-1.313","<span style=""font-size:30px; font-family: monospace"">e</span>"," ","","exp-sent","e","","",""
"","1685","html-keyboard-response","383","884922","0.0-3.0-1.314","<span style=""font-size:30px; font-family: monospace"">confortável.</span>"," ","","exp-sent","confortável.","","",""
"","null","html-keyboard-response","384","886174","0.0-3.0-0.315-0.315","<span style= ""font-size:30px; font-family: monospace"">+</span>","null","fixation","","","","",""
"","993","html-keyboard-response","385","887418","0.0-3.0-1.315","<span style=""font-size:30px; font-family: monospace"">Hoje</span>"," ","","exp-sent","Hoje","","",""
"","2245","html-keyboard-response","386","889914","0.0-3.0-1.316","<span style=""font-size:30px; font-family: monospace"">a</span>"," ","","exp-sent","a","","",""
"","852","html-keyboard-response","387","891018","0.0-3.0-1.317","<span style=""font-size:30px; font-family: monospace"">atendente</span>"," ","","exp-sent","atendente","","",""
"","1638","html-keyboard-response","388","892906","0.0-3.0-1.318","<span style=""font-size:30px; font-family: monospace"">estava</span>"," ","","exp-sent","estava","","",""
"","1221","html-keyboard-response","389","894378","0.0-3.0-1.319","<span style=""font-size:30px; font-family: monospace"">furiosa</span>"," ","","exp-sent","furiosa","","",""
"","1253","html-keyboard-response","390","895882","0.0-3.0-1.320","<span style=""font-size:30px; font-family: monospace"">com</span>"," ","","exp-sent","com","","",""
"","1317","html-keyboard-response","391","897450","0.0-3.0-1.321","<span style=""font-size:30px; font-family: monospace"">o</span>"," ","","exp-sent","o","","",""
"","1910","html-keyboard-response","392","899610","0.0-3.0-1.322","<span style=""font-size:30px; font-family: monospace"">cliente.</span>"," ","","exp-sent","cliente.","","",""
"","null","html-keyboard-response","393","900867","0.0-3.0-0.323-0.323","<span style= ""font-size:30px; font-family: monospace"">+</span>","null","fixation","","","","",""
"","444","html-keyboard-response","394","901562","0.0-3.0-1.323","<span style=""font-size:30px; font-family: monospace"">O</span>"," ","","exp-sent","O","","",""
"","868","html-keyboard-response","395","902682","0.0-3.0-1.324","<span style=""font-size:30px; font-family: monospace"">vizinho</span>"," ","","exp-sent","vizinho","","",""
"","933","html-keyboard-response","396","903866","0.0-3.0-1.325","<span style=""font-size:30px; font-family: monospace"">é</span>"," ","","exp-sent","é","","",""
"","981","html-keyboard-response","397","905098","0.0-3.0-1.326","<span style=""font-size:30px; font-family: monospace"">um</span>"," ","","exp-sent","um","","",""
"","837","html-keyboard-response","398","906186","0.0-3.0-1.327","<span style=""font-size:30px; font-family: monospace"">arquiteto</span>"," ","","exp-sent","arquiteto","","",""
"","501","html-keyboard-response","399","906938","0.0-3.0-1.328","<span style=""font-size:30px; font-family: monospace"">muito</span>"," ","","exp-sent","muito","","",""
"","1428","html-keyboard-response","400","908618","0.0-3.0-1.329","<span style=""font-size:30px; font-family: monospace"">excêntrico.</span>"," ","","exp-sent","excêntrico.","","",""
"","null","html-keyboard-response","401","909869","0.0-3.0-0.330-0.330","<span style= ""font-size:30px; font-family: monospace"">+</span>","null","fixation","","","","",""
"","673","html-keyboard-response","402","910794","0.0-3.0-1.330","<span style=""font-size:30px; font-family: monospace"">A</span>"," ","","exp-sent","A","","",""
"","1300","html-keyboard-response","403","912346","0.0-3.0-1.331","<span style=""font-size:30px; font-family: monospace"">nossa</span>"," ","","exp-sent","nossa","","",""
"","1380","html-keyboard-response","404","913978","0.0-3.0-1.332","<span style=""font-size:30px; font-family: monospace"">colega</span>"," ","","exp-sent","colega","","",""
"","1861","html-keyboard-response","405","916090","0.0-3.0-1.333","<span style=""font-size:30px; font-family: monospace"">foi</span>"," ","","exp-sent","foi","","",""
"","661","html-keyboard-response","406","917002","0.0-3.0-1.334","<span style=""font-size:30px; font-family: monospace"">má</span>"," ","","exp-sent","má","","",""
"","1188","html-keyboard-response","407","918442","0.0-3.0-1.335","<span style=""font-size:30px; font-family: monospace"">com</span>"," ","","exp-sent","com","","",""
"","1653","html-keyboard-response","408","920346","0.0-3.0-1.336","<span style=""font-size:30px; font-family: monospace"">as</span>"," ","","exp-sent","as","","",""
"","789","html-keyboard-response","409","921386","0.0-3.0-1.337","<span style=""font-size:30px; font-family: monospace"">crianças.</span>"," ","","exp-sent","crianças.","","",""
"","null","html-keyboard-response","410","922638","0.0-3.0-0.338-0.338","<span style= ""font-size:30px; font-family: monospace"">+</span>","null","fixation","","","","",""
"","418","html-keyboard-response","411","923307","0.0-3.0-1.338","<span style=""font-size:30px; font-family: monospace"">Virtudes</span>"," ","","exp-sent","Virtudes","","",""
"","1381","html-keyboard-response","412","924939","0.0-3.0-1.339","<span style=""font-size:30px; font-family: monospace"">não</span>"," ","","exp-sent","não","","",""
"","1861","html-keyboard-response","413","927051","0.0-3.0-1.340","<span style=""font-size:30px; font-family: monospace"">são</span>"," ","","exp-sent","são","","",""
"","997","html-keyboard-response","414","928299","0.0-3.0-1.341","<span style=""font-size:30px; font-family: monospace"">preguiça,</span>"," ","","exp-sent","preguiça,","","",""
"","1157","html-keyboard-response","415","929706","0.0-3.0-1.342","<span style=""font-size:30px; font-family: monospace"">gula</span>"," ","","exp-sent","gula","","",""
"","1926","html-keyboard-response","416","931883","0.0-3.0-1.343","<span style=""font-size:30px; font-family: monospace"">nem</span>"," ","","exp-sent","nem","","",""
"","1093","html-keyboard-response","417","933227","0.0-3.0-1.344","<span style=""font-size:30px; font-family: monospace"">ganância.</span>"," ","","comp","ganância.","","",""
"","23429","html-keyboard-response","418","956907","0.0-3.0-2.344-0.344","<span style=""font-size:30px; font-family: monospace"">Preguiça é uma virtude?</span>","n","","comp","","Preguiça é uma virtude?","não","false"
"","null","html-keyboard-response","419","958409","0.0-3.0-0.345-0.345","<span style= ""font-size:30px; font-family: monospace"">+</span>","null","fixation","","","","",""
"","1942","html-keyboard-response","420","960603","0.0-3.0-1.345","<span style=""font-size:30px; font-family: monospace"">O</span>"," ","","exp-sent","O","","",""
"","949","html-keyboard-response","421","961803","0.0-3.0-1.346","<span style=""font-size:30px; font-family: monospace"">texto</span>"," ","","exp-sent","texto","","",""
"","1573","html-keyboard-response","422","963627","0.0-3.0-1.347","<span style=""font-size:30px; font-family: monospace"">trazia</span>"," ","","exp-sent","trazia","","",""
"","2021","html-keyboard-response","423","965899","0.0-3.0-1.348","<span style=""font-size:30px; font-family: monospace"">um</span>"," ","","exp-sent","um","","",""
"","1333","html-keyboard-response","424","967483","0.0-3.0-1.349","<span style=""font-size:30px; font-family: monospace"">argumento</span>"," ","","exp-sent","argumento","","",""
"","1878","html-keyboard-response","425","969611","0.0-3.0-1.350","<span style=""font-size:30px; font-family: monospace"">central</span>"," ","","exp-sent","central","","",""
"","1700","html-keyboard-response","426","971563","0.0-3.0-1.351","<span style=""font-size:30px; font-family: monospace"">para</span>"," ","","exp-sent","para","","",""
"","1109","html-keyboard-response","427","972923","0.0-3.0-1.352","<span style=""font-size:30px; font-family: monospace"">a</span>"," ","","exp-sent","a","","",""
"","1364","html-keyboard-response","428","974539","0.0-3.0-1.353","<span style=""font-size:30px; font-family: monospace"">conversa.</span>"," ","","exp-sent","conversa.","","",""
"","null","html-keyboard-response","429","975790","0.0-3.0-0.354-0.354","<span style= ""font-size:30px; font-family: monospace"">+</span>","null","fixation","","","","",""
"","1297","html-keyboard-response","430","977339","0.0-3.0-1.354","<span style=""font-size:30px; font-family: monospace"">Ontem</span>"," ","","exp-sent","Ontem","","",""
"","1221","html-keyboard-response","431","978811","0.0-3.0-1.355","<span style=""font-size:30px; font-family: monospace"">a</span>"," ","","exp-sent","a","","",""
"","1556","html-keyboard-response","432","980618","0.0-3.0-1.356","<span style=""font-size:30px; font-family: monospace"">temperatura</span>"," ","","exp-sent","temperatura","","",""
"","1333","html-keyboard-response","433","982202","0.0-3.0-1.357","<span style=""font-size:30px; font-family: monospace"">estava</span>"," ","","exp-sent","estava","","",""
"","1605","html-keyboard-response","434","984058","0.0-3.0-1.358","<span style=""font-size:30px; font-family: monospace"">amena</span>"," ","","exp-sent","amena","","",""
"","2469","html-keyboard-response","435","986778","0.0-3.0-1.359","<span style=""font-size:30px; font-family: monospace"">durante</span>"," ","","exp-sent","durante","","",""
"","1637","html-keyboard-response","436","988666","0.0-3.0-1.360","<span style=""font-size:30px; font-family: monospace"">o</span>"," ","","exp-sent","o","","",""
"","1301","html-keyboard-response","437","990218","0.0-3.0-1.361","<span style=""font-size:30px; font-family: monospace"">dia.</span>"," ","","exp-sent","dia.","","",""
"","null","html-keyboard-response","438","991471","0.0-3.0-0.362-0.362","<span style= ""font-size:30px; font-family: monospace"">+</span>","null","fixation","","","","",""
"","305","html-keyboard-response","439","992026","0.0-3.0-1.362","<span style=""font-size:30px; font-family: monospace"">Havia</span>"," ","","exp-sent","Havia","","",""
"","1765","html-keyboard-response","440","994042","0.0-3.0-1.363","<span style=""font-size:30px; font-family: monospace"">um</span>"," ","","exp-sent","um","","",""
"","1541","html-keyboard-response","441","995834","0.0-3.0-1.364","<span style=""font-size:30px; font-family: monospace"">machucado</span>"," ","","exp-sent","machucado","","",""
"","2261","html-keyboard-response","442","998346","0.0-3.0-1.365","<span style=""font-size:30px; font-family: monospace"">no</span>"," ","","exp-sent","no","","",""
"","1557","html-keyboard-response","443","1000154","0.0-3.0-1.366","<span style=""font-size:30px; font-family: monospace"">dedo</span>"," ","","exp-sent","dedo","","",""
"","1429","html-keyboard-response","444","1001834","0.0-3.0-1.367","<span style=""font-size:30px; font-family: monospace"">da</span>"," ","","exp-sent","da","","",""
"","1381","html-keyboard-response","445","1003466","0.0-3.0-1.368","<span style=""font-size:30px; font-family: monospace"">criança.</span>"," ","","exp-sent","criança.","","",""
"","null","html-keyboard-response","446","1004719","0.0-3.0-0.369-0.369","<span style= ""font-size:30px; font-family: monospace"">+</span>","null","fixation","","","","",""
"","273","html-keyboard-response","447","1005242","0.0-3.0-1.369","<span style=""font-size:30px; font-family: monospace"">A</span>"," ","","exp-sent","A","","",""
"","1701","html-keyboard-response","448","1007194","0.0-3.0-1.370","<span style=""font-size:30px; font-family: monospace"">borboleta</span>"," ","","exp-sent","borboleta","","",""
"","2421","html-keyboard-response","449","1009866","0.0-3.0-1.371","<span style=""font-size:30px; font-family: monospace"">pousou</span>"," ","","exp-sent","pousou","","",""
"","1509","html-keyboard-response","450","1011626","0.0-3.0-1.372","<span style=""font-size:30px; font-family: monospace"">no</span>"," ","","exp-sent","no","","",""
"","1285","html-keyboard-response","451","1013162","0.0-3.0-1.373","<span style=""font-size:30px; font-family: monospace"">ombro</span>"," ","","exp-sent","ombro","","",""
"","1717","html-keyboard-response","452","1015130","0.0-3.0-1.374","<span style=""font-size:30px; font-family: monospace"">daquela</span>"," ","","exp-sent","daquela","","",""
"","1797","html-keyboard-response","453","1017178","0.0-3.0-1.375","<span style=""font-size:30px; font-family: monospace"">moça.</span>"," ","","exp-sent","moça.","","",""
"","null","html-keyboard-response","454","1018431","0.0-3.0-0.376-0.376","<span style= ""font-size:30px; font-family: monospace"">+</span>","null","fixation","","","","",""
"","17","html-keyboard-response","455","1018698","0.0-3.0-1.376","<span style=""font-size:30px; font-family: monospace"">Eu</span>"," ","","exp-sent","Eu","","",""
"","1733","html-keyboard-response","456","1020682","0.0-3.0-1.377","<span style=""font-size:30px; font-family: monospace"">quero</span>"," ","","exp-sent","quero","","",""
"","837","html-keyboard-response","457","1021770","0.0-3.0-1.378","<span style=""font-size:30px; font-family: monospace"">um</span>"," ","","exp-sent","um","","",""
"","1685","html-keyboard-response","458","1023706","0.0-3.0-1.379","<span style=""font-size:30px; font-family: monospace"">namorado</span>"," ","","exp-sent","namorado","","",""
"","3492","html-keyboard-response","459","1027450","0.0-3.0-1.380","<span style=""font-size:30px; font-family: monospace"">honesto</span>"," ","","exp-sent","honesto","","",""
"","2405","html-keyboard-response","460","1030106","0.0-3.0-1.381","<span style=""font-size:30px; font-family: monospace"">e</span>"," ","","exp-sent","e","","",""
"","2533","html-keyboard-response","461","1032890","0.0-3.0-1.382","<span style=""font-size:30px; font-family: monospace"">compreensivo.</span>"," ","","comp","compreensivo.","","",""
"","13317","html-keyboard-response","462","1046457","0.0-3.0-2.382-0.382","<span style=""font-size:30px; font-family: monospace"">Eu quero um namorado honesto?</span>","n","","comp","","Eu quero um namorado honesto?","sim","false"
"","null","html-keyboard-response","463","1047959","0.0-3.0-0.383-0.383","<span style= ""font-size:30px; font-family: monospace"">+</span>","null","fixation","","","","",""
"","1591","html-keyboard-response","464","1049801","0.0-3.0-1.383","<span style=""font-size:30px; font-family: monospace"">As</span>"," ","","exp-sent","As","","",""
"","1013","html-keyboard-response","465","1051065","0.0-3.0-1.384","<span style=""font-size:30px; font-family: monospace"">crianças</span>"," ","","exp-sent","crianças","","",""
"","2581","html-keyboard-response","466","1053897","0.0-3.0-1.385","<span style=""font-size:30px; font-family: monospace"">viram</span>"," ","","exp-sent","viram","","",""
"","2277","html-keyboard-response","467","1056425","0.0-3.0-1.386","<span style=""font-size:30px; font-family: monospace"">um</span>"," ","","exp-sent","um","","",""
"","3318","html-keyboard-response","468","1059993","0.0-3.0-1.387","<span style=""font-size:30px; font-family: monospace"">vaga-lume</span>"," ","","exp-sent","vaga-lume","","",""
"","2213","html-keyboard-response","469","1062457","0.0-3.0-1.388","<span style=""font-size:30px; font-family: monospace"">nos</span>"," ","","exp-sent","nos","","",""
"","3124","html-keyboard-response","470","1065833","0.0-3.0-1.389","<span style=""font-size:30px; font-family: monospace"">arbustos.</span>"," ","","exp-sent","arbustos.","","",""
"","null","html-keyboard-response","471","1067086","0.0-3.0-0.390-0.390","<span style= ""font-size:30px; font-family: monospace"">+</span>","null","fixation","","","","",""
"","1136","html-keyboard-response","472","1068473","0.0-3.0-1.390","<span style=""font-size:30px; font-family: monospace"">Ontem</span>"," ","","exp-sent","Ontem","","",""
"","1813","html-keyboard-response","473","1070537","0.0-3.0-1.391","<span style=""font-size:30px; font-family: monospace"">o</span>"," ","","exp-sent","o","","",""
"","1110","html-keyboard-response","474","1071897","0.0-3.0-1.392","<span style=""font-size:30px; font-family: monospace"">funcionário</span>"," ","","exp-sent","funcionário","","",""
"","2261","html-keyboard-response","475","1074409","0.0-3.0-1.393","<span style=""font-size:30px; font-family: monospace"">pediu</span>"," ","","exp-sent","pediu","","",""
"","1333","html-keyboard-response","476","1075993","0.0-3.0-1.394","<span style=""font-size:30px; font-family: monospace"">autorização</span>"," ","","exp-sent","autorização","","",""
"","1764","html-keyboard-response","477","1078009","0.0-3.0-1.395","<span style=""font-size:30px; font-family: monospace"">para</span>"," ","","exp-sent","para","","",""
"","1589","html-keyboard-response","478","1079849","0.0-3.0-1.396","<span style=""font-size:30px; font-family: monospace"">a</span>"," ","","exp-sent","a","","",""
"","1461","html-keyboard-response","479","1081561","0.0-3.0-1.397","<span style=""font-size:30px; font-family: monospace"">colega.</span>"," ","","exp-sent","colega.","","",""
"","null","html-keyboard-response","480","1082813","0.0-3.0-0.398-0.398","<span style= ""font-size:30px; font-family: monospace"">+</span>","null","fixation","","","","",""
"","881","html-keyboard-response","481","1083945","0.0-3.0-1.398","<span style=""font-size:30px; font-family: monospace"">Eu</span>"," ","","exp-sent","Eu","","",""
"","821","html-keyboard-response","482","1085017","0.0-3.0-1.399","<span style=""font-size:30px; font-family: monospace"">sempre</span>"," ","","exp-sent","sempre","","",""
"","549","html-keyboard-response","483","1085817","0.0-3.0-1.400","<span style=""font-size:30px; font-family: monospace"">fujo</span>"," ","","exp-sent","fujo","","",""
"","1605","html-keyboard-response","484","1087673","0.0-3.0-1.401","<span style=""font-size:30px; font-family: monospace"">de</span>"," ","","exp-sent","de","","",""
"","1109","html-keyboard-response","485","1089033","0.0-3.0-1.402","<span style=""font-size:30px; font-family: monospace"">conflito</span>"," ","","exp-sent","conflito","","",""
"","2197","html-keyboard-response","486","1091481","0.0-3.0-1.403","<span style=""font-size:30px; font-family: monospace"">com</span>"," ","","exp-sent","com","","",""
"","1317","html-keyboard-response","487","1093049","0.0-3.0-1.404","<span style=""font-size:30px; font-family: monospace"">as</span>"," ","","exp-sent","as","","",""
"","1269","html-keyboard-response","488","1094569","0.0-3.0-1.405","<span style=""font-size:30px; font-family: monospace"">pessoas.</span>"," ","","exp-sent","pessoas.","","",""
"","null","html-keyboard-response","489","1095822","0.0-3.0-0.406-0.406","<span style= ""font-size:30px; font-family: monospace"">+</span>","null","fixation","","","","",""
"","800","html-keyboard-response","490","1096873","0.0-3.0-1.406","<span style=""font-size:30px; font-family: monospace"">O</span>"," ","","exp-sent","O","","",""
"","741","html-keyboard-response","491","1097865","0.0-3.0-1.407","<span style=""font-size:30px; font-family: monospace"">bolo</span>"," ","","exp-sent","bolo","","",""
"","1076","html-keyboard-response","492","1099193","0.0-3.0-1.408","<span style=""font-size:30px; font-family: monospace"">era</span>"," ","","exp-sent","era","","",""
"","964","html-keyboard-response","493","1100409","0.0-3.0-1.409","<span style=""font-size:30px; font-family: monospace"">de</span>"," ","","exp-sent","de","","",""
"","1061","html-keyboard-response","494","1101721","0.0-3.0-1.410","<span style=""font-size:30px; font-family: monospace"">abacaxi</span>"," ","","exp-sent","abacaxi","","",""
"","1109","html-keyboard-response","495","1103081","0.0-3.0-1.411","<span style=""font-size:30px; font-family: monospace"">e</span>"," ","","exp-sent","e","","",""
"","1077","html-keyboard-response","496","1104409","0.0-3.0-1.412","<span style=""font-size:30px; font-family: monospace"">creme</span>"," ","","exp-sent","creme","","",""
"","1141","html-keyboard-response","497","1105801","0.0-3.0-1.413","<span style=""font-size:30px; font-family: monospace"">de</span>"," ","","exp-sent","de","","",""
"","1317","html-keyboard-response","498","1107369","0.0-3.0-1.414","<span style=""font-size:30px; font-family: monospace"">coco.</span>"," ","","exp-sent","coco.","","",""
"","null","html-keyboard-response","499","1108621","0.0-3.0-0.415-0.415","<span style= ""font-size:30px; font-family: monospace"">+</span>","null","fixation","","","","",""
"","144","html-keyboard-response","500","1109017","0.0-3.0-1.415","<span style=""font-size:30px; font-family: monospace"">As</span>"," ","","exp-sent","As","","",""
"","1365","html-keyboard-response","501","1110633","0.0-3.0-1.416","<span style=""font-size:30px; font-family: monospace"">crianças</span>"," ","","exp-sent","crianças","","",""
"","1365","html-keyboard-response","502","1112249","0.0-3.0-1.417","<span style=""font-size:30px; font-family: monospace"">brincaram</span>"," ","","exp-sent","brincaram","","",""
"","1669","html-keyboard-response","503","1114169","0.0-3.0-1.418","<span style=""font-size:30px; font-family: monospace"">com</span>"," ","","exp-sent","com","","",""
"","1558","html-keyboard-response","504","1115977","0.0-3.0-1.419","<span style=""font-size:30px; font-family: monospace"">bolhas</span>"," ","","exp-sent","bolhas","","",""
"","1861","html-keyboard-response","505","1118089","0.0-3.0-1.420","<span style=""font-size:30px; font-family: monospace"">no</span>"," ","","exp-sent","no","","",""
"","1013","html-keyboard-response","506","1119353","0.0-3.0-1.421","<span style=""font-size:30px; font-family: monospace"">banho.</span>"," ","","comp","banho.","","",""
"","7828","html-keyboard-response","507","1127433","0.0-3.0-2.421-0.421","<span style=""font-size:30px; font-family: monospace"">As crianças brincaram com bolhas?</span>","s","","comp","","As crianças brincaram com bolhas?","sim","false"
"","null","html-keyboard-response","508","1128935","0.0-3.0-0.422-0.422","<span style= ""font-size:30px; font-family: monospace"">+</span>","null","fixation","","","","",""
"","856","html-keyboard-response","509","1130041","0.0-3.0-1.422","<span style=""font-size:30px; font-family: monospace"">Minha</span>"," ","","exp-sent","Minha","","",""
"","1125","html-keyboard-response","510","1131417","0.0-3.0-1.423","<span style=""font-size:30px; font-family: monospace"">prima</span>"," ","","exp-sent","prima","","",""
"","1717","html-keyboard-response","511","1133385","0.0-3.0-1.424","<span style=""font-size:30px; font-family: monospace"">trocou</span>"," ","","exp-sent","trocou","","",""
"","1557","html-keyboard-response","512","1135193","0.0-3.0-1.425","<span style=""font-size:30px; font-family: monospace"">a</span>"," ","","exp-sent","a","","",""
"","1620","html-keyboard-response","513","1137065","0.0-3.0-1.426","<span style=""font-size:30px; font-family: monospace"">tela</span>"," ","","exp-sent","tela","","",""
"","869","html-keyboard-response","514","1138185","0.0-3.0-1.427","<span style=""font-size:30px; font-family: monospace"">do</span>"," ","","exp-sent","do","","",""
"","1637","html-keyboard-response","515","1140073","0.0-3.0-1.428","<span style=""font-size:30px; font-family: monospace"">celular</span>"," ","","exp-sent","celular","","",""
"","1156","html-keyboard-response","516","1141481","0.0-3.0-1.429","<span style=""font-size:30px; font-family: monospace"">duas</span>"," ","","exp-sent","duas","","",""
"","1637","html-keyboard-response","517","1143369","0.0-3.0-1.430","<span style=""font-size:30px; font-family: monospace"">vezes.</span>"," ","","exp-sent","vezes.","","",""
"","null","html-keyboard-response","518","1144621","0.0-3.0-0.431-0.431","<span style= ""font-size:30px; font-family: monospace"">+</span>","null","fixation","","","","",""
"","497","html-keyboard-response","519","1145369","0.0-3.0-1.431","<span style=""font-size:30px; font-family: monospace"">Agora</span>"," ","","exp-sent","Agora","","",""
"","1684","html-keyboard-response","520","1147305","0.0-3.0-1.432","<span style=""font-size:30px; font-family: monospace"">a</span>"," ","","exp-sent","a","","",""
"","1621","html-keyboard-response","521","1149177","0.0-3.0-1.433","<span style=""font-size:30px; font-family: monospace"">minha</span>"," ","","exp-sent","minha","","",""
"","1061","html-keyboard-response","522","1150489","0.0-3.0-1.434","<span style=""font-size:30px; font-family: monospace"">única</span>"," ","","exp-sent","única","","",""
"","1957","html-keyboard-response","523","1152697","0.0-3.0-1.435","<span style=""font-size:30px; font-family: monospace"">preocupação</span>"," ","","exp-sent","preocupação","","",""
"","2453","html-keyboard-response","524","1155401","0.0-3.0-1.436","<span style=""font-size:30px; font-family: monospace"">é</span>"," ","","exp-sent","é","","",""
"","1125","html-keyboard-response","525","1156777","0.0-3.0-1.437","<span style=""font-size:30px; font-family: monospace"">um</span>"," ","","exp-sent","um","","",""
"","1381","html-keyboard-response","526","1158409","0.0-3.0-1.438","<span style=""font-size:30px; font-family: monospace"">descanso</span>"," ","","exp-sent","descanso","","",""
"","2117","html-keyboard-response","527","1160777","0.0-3.0-1.439","<span style=""font-size:30px; font-family: monospace"">tranquilo.</span>"," ","","exp-sent","tranquilo.","","",""
"","null","html-keyboard-response","528","1162029","0.0-3.0-0.440-0.440","<span style= ""font-size:30px; font-family: monospace"">+</span>","null","fixation","","","","",""
"","688","html-keyboard-response","529","1162969","0.0-3.0-1.440","<span style=""font-size:30px; font-family: monospace"">A</span>"," ","","exp-sent","A","","",""
"","2549","html-keyboard-response","530","1165769","0.0-3.0-1.441","<span style=""font-size:30px; font-family: monospace"">criança</span>"," ","","exp-sent","criança","","",""
"","725","html-keyboard-response","531","1166745","0.0-3.0-1.442","<span style=""font-size:30px; font-family: monospace"">ganhou</span>"," ","","exp-sent","ganhou","","",""
"","2197","html-keyboard-response","532","1169193","0.0-3.0-1.443","<span style=""font-size:30px; font-family: monospace"">um</span>"," ","","exp-sent","um","","",""
"","1221","html-keyboard-response","533","1170665","0.0-3.0-1.444","<span style=""font-size:30px; font-family: monospace"">presente</span>"," ","","exp-sent","presente","","",""
"","2389","html-keyboard-response","534","1173305","0.0-3.0-1.445","<span style=""font-size:30px; font-family: monospace"">maravilhoso.</span>"," ","","exp-sent","maravilhoso.","","",""
"","null","html-keyboard-response","535","1174557","0.0-3.0-0.446-0.446","<span style= ""font-size:30px; font-family: monospace"">+</span>","null","fixation","","","","",""
"","913","html-keyboard-response","536","1175721","0.0-3.0-1.446","<span style=""font-size:30px; font-family: monospace"">Os</span>"," ","","exp-sent","Os","","",""
"","1765","html-keyboard-response","537","1177737","0.0-3.0-1.447","<span style=""font-size:30px; font-family: monospace"">bichos</span>"," ","","exp-sent","bichos","","",""
"","2068","html-keyboard-response","538","1180057","0.0-3.0-1.448","<span style=""font-size:30px; font-family: monospace"">têm</span>"," ","","exp-sent","têm","","",""
"","1380","html-keyboard-response","539","1181688","0.0-3.0-1.449","<span style=""font-size:30px; font-family: monospace"">um</span>"," ","","exp-sent","um","","",""
"","1829","html-keyboard-response","540","1183769","0.0-3.0-1.450","<span style=""font-size:30px; font-family: monospace"">instinto</span>"," ","","exp-sent","instinto","","",""
"","2021","html-keyboard-response","541","1186041","0.0-3.0-1.451","<span style=""font-size:30px; font-family: monospace"">de</span>"," ","","exp-sent","de","","",""
"","1429","html-keyboard-response","542","1187721","0.0-3.0-1.452","<span style=""font-size:30px; font-family: monospace"">sobrevivência</span>"," ","","exp-sent","sobrevivência","","",""
"","2069","html-keyboard-response","543","1190041","0.0-3.0-1.453","<span style=""font-size:30px; font-family: monospace"">forte.</span>"," ","","exp-sent","forte.","","",""
"","null","html-keyboard-response","544","1191293","0.0-3.0-0.454-0.454","<span style= ""font-size:30px; font-family: monospace"">+</span>","null","fixation","","","","",""
"","304","html-keyboard-response","545","1191849","0.0-3.0-1.454","<span style=""font-size:30px; font-family: monospace"">Aquele</span>"," ","","exp-sent","Aquele","","",""
"","821","html-keyboard-response","546","1192921","0.0-3.0-1.455","<span style=""font-size:30px; font-family: monospace"">menino</span>"," ","","exp-sent","menino","","",""
"","1396","html-keyboard-response","547","1194569","0.0-3.0-1.456","<span style=""font-size:30px; font-family: monospace"">alto</span>"," ","","exp-sent","alto","","",""
"","2085","html-keyboard-response","548","1196905","0.0-3.0-1.457","<span style=""font-size:30px; font-family: monospace"">é</span>"," ","","exp-sent","é","","",""
"","693","html-keyboard-response","549","1197849","0.0-3.0-1.458","<span style=""font-size:30px; font-family: monospace"">exibido</span>"," ","","exp-sent","exibido","","",""
"","2245","html-keyboard-response","550","1200345","0.0-3.0-1.459","<span style=""font-size:30px; font-family: monospace"">e</span>"," ","","exp-sent","e","","",""
"","1637","html-keyboard-response","551","1202233","0.0-3.0-1.460","<span style=""font-size:30px; font-family: monospace"">sovina.</span>"," ","","comp","sovina.","","",""
"","20053","html-keyboard-response","552","1222537","0.0-3.0-2.460-0.460","<span style=""font-size:30px; font-family: monospace"">Aquele menino é humilde?</span>","n","","comp","","Aquele menino é humilde?","não","false"
"","null","html-keyboard-response","553","1224039","0.0-3.0-0.461-0.461","<span style= ""font-size:30px; font-family: monospace"">+</span>","null","fixation","","","","",""
"","759","html-keyboard-response","554","1225049","0.0-3.0-1.461","<span style=""font-size:30px; font-family: monospace"">Barulho</span>"," ","","exp-sent","Barulho","","",""
"","1365","html-keyboard-response","555","1226665","0.0-3.0-1.462","<span style=""font-size:30px; font-family: monospace"">de</span>"," ","","exp-sent","de","","",""
"","1924","html-keyboard-response","556","1228841","0.0-3.0-1.463","<span style=""font-size:30px; font-family: monospace"">carros</span>"," ","","exp-sent","carros","","",""
"","1301","html-keyboard-response","557","1230393","0.0-3.0-1.464","<span style=""font-size:30px; font-family: monospace"">é</span>"," ","","exp-sent","é","","",""
"","1333","html-keyboard-response","558","1231977","0.0-3.0-1.465","<span style=""font-size:30px; font-family: monospace"">irritante</span>"," ","","exp-sent","irritante","","",""
"","1333","html-keyboard-response","559","1233561","0.0-3.0-1.466","<span style=""font-size:30px; font-family: monospace"">para</span>"," ","","exp-sent","para","","",""
"","1445","html-keyboard-response","560","1235257","0.0-3.0-1.467","<span style=""font-size:30px; font-family: monospace"">a</span>"," ","","exp-sent","a","","",""
"","1669","html-keyboard-response","561","1237177","0.0-3.0-1.468","<span style=""font-size:30px; font-family: monospace"">moça.</span>"," ","","exp-sent","moça.","","",""
"","null","html-keyboard-response","562","1238429","0.0-3.0-0.469-0.469","<span style= ""font-size:30px; font-family: monospace"">+</span>","null","fixation","","","","",""
"","1441","html-keyboard-response","563","1240121","0.0-3.0-1.469","<span style=""font-size:30px; font-family: monospace"">A</span>"," ","","exp-sent","A","","",""
"","1669","html-keyboard-response","564","1242041","0.0-3.0-1.470","<span style=""font-size:30px; font-family: monospace"">loja</span>"," ","","exp-sent","loja","","",""
"","1125","html-keyboard-response","565","1243416","0.0-3.0-1.471","<span style=""font-size:30px; font-family: monospace"">também</span>"," ","","exp-sent","também","","",""
"","1781","html-keyboard-response","566","1245449","0.0-3.0-1.472","<span style=""font-size:30px; font-family: monospace"">vende</span>"," ","","exp-sent","vende","","",""
"","1541","html-keyboard-response","567","1247241","0.0-3.0-1.473","<span style=""font-size:30px; font-family: monospace"">taça</span>"," ","","exp-sent","taça","","",""
"","1156","html-keyboard-response","568","1248649","0.0-3.0-1.474","<span style=""font-size:30px; font-family: monospace"">de</span>"," ","","exp-sent","de","","",""
"","1446","html-keyboard-response","569","1250345","0.0-3.0-1.475","<span style=""font-size:30px; font-family: monospace"">vinho</span>"," ","","exp-sent","vinho","","",""
"","1957","html-keyboard-response","570","1252553","0.0-3.0-1.476","<span style=""font-size:30px; font-family: monospace"">e</span>"," ","","exp-sent","e","","",""
"","1508","html-keyboard-response","571","1254313","0.0-3.0-1.477","<span style=""font-size:30px; font-family: monospace"">espumante.</span>"," ","","exp-sent","espumante.","","",""
"","null","html-keyboard-response","572","1255565","0.0-3.0-0.478-0.478","<span style= ""font-size:30px; font-family: monospace"">+</span>","null","fixation","","","","",""
"","1","html-keyboard-response","573","1255817","0.0-3.0-1.478","<span style=""font-size:30px; font-family: monospace"">A</span>"," ","","exp-sent","A","","",""
"","1317","html-keyboard-response","574","1257385","0.0-3.0-1.479","<span style=""font-size:30px; font-family: monospace"">bruxa</span>"," ","","exp-sent","bruxa","","",""
"","1141","html-keyboard-response","575","1258777","0.0-3.0-1.480","<span style=""font-size:30px; font-family: monospace"">tinha</span>"," ","","exp-sent","tinha","","",""
"","1478","html-keyboard-response","576","1260505","0.0-3.0-1.481","<span style=""font-size:30px; font-family: monospace"">uma</span>"," ","","exp-sent","uma","","",""
"","1060","html-keyboard-response","577","1261817","0.0-3.0-1.482","<span style=""font-size:30px; font-family: monospace"">vassoura</span>"," ","","exp-sent","vassoura","","",""
"","789","html-keyboard-response","578","1262857","0.0-3.0-1.483","<span style=""font-size:30px; font-family: monospace"">e</span>"," ","","exp-sent","e","","",""
"","1141","html-keyboard-response","579","1264249","0.0-3.0-1.484","<span style=""font-size:30px; font-family: monospace"">um</span>"," ","","exp-sent","um","","",""
"","772","html-keyboard-response","580","1265273","0.0-3.0-1.485","<span style=""font-size:30px; font-family: monospace"">gato.</span>"," ","","exp-sent","gato.","","",""
"","null","html-keyboard-response","581","1266525","0.0-3.0-0.486-0.486","<span style= ""font-size:30px; font-family: monospace"">+</span>","null","fixation","","","","",""
