[
	{
		"view_history": [
			{
				"page_index": 0,
				"viewing_time": 18615
			},
			{
				"page_index": 1,
				"viewing_time": 4848
			}
		],
		"rt": 23463,
		"trial_type": "instructions",
		"trial_index": 0,
		"time_elapsed": 23464,
		"internal_node_id": "0.0-0.0"
	},
	{
		"rt": null,
		"stimulus": "<span style= \"font-size:30px; font-family: monospace\">+</span>",
		"response": null,
		"trial_part": "fixation",
		"trial_type": "html-keyboard-response",
		"trial_index": 1,
		"time_elapsed": 24578,
		"internal_node_id": "0.0-1.0-0.0-0.0"
	},
	{
		"rt": 6038,
		"stimulus": "<span style=\"font-size:30px; font-family: monospace\">O</span>",
		"response": " ",
		"trial": "prac-sent",
		"word": "O",
		"trial_type": "html-keyboard-response",
		"trial_index": 2,
		"time_elapsed": 30880,
		"internal_node_id": "0.0-1.0-1.0"
	},
	{
		"rt": 3588,
		"stimulus": "<span style=\"font-size:30px; font-family: monospace\">dia</span>",
		"response": " ",
		"trial": "prac-sent",
		"word": "dia",
		"trial_type": "html-keyboard-response",
		"trial_index": 3,
		"time_elapsed": 34720,
		"internal_node_id": "0.0-1.0-1.1"
	},
	{
		"rt": 3556,
		"stimulus": "<span style=\"font-size:30px; font-family: monospace\">estará</span>",
		"response": " ",
		"trial": "prac-sent",
		"word": "estará",
		"trial_type": "html-keyboard-response",
		"trial_index": 4,
		"time_elapsed": 38528,
		"internal_node_id": "0.0-1.0-1.2"
	},
	{
		"rt": 3269,
		"stimulus": "<span style=\"font-size:30px; font-family: monospace\">cheio</span>",
		"response": " ",
		"trial": "prac-sent",
		"word": "cheio",
		"trial_type": "html-keyboard-response",
		"trial_index": 5,
		"time_elapsed": 42048,
		"internal_node_id": "0.0-1.0-1.3"
	},
	{
		"rt": 2836,
		"stimulus": "<span style=\"font-size:30px; font-family: monospace\">de</span>",
		"response": " ",
		"trial": "prac-sent",
		"word": "de",
		"trial_type": "html-keyboard-response",
		"trial_index": 6,
		"time_elapsed": 45136,
		"internal_node_id": "0.0-1.0-1.4"
	},
	{
		"rt": 3285,
		"stimulus": "<span style=\"font-size:30px; font-family: monospace\">nuvens</span>",
		"response": " ",
		"trial": "prac-sent",
		"word": "nuvens",
		"trial_type": "html-keyboard-response",
		"trial_index": 7,
		"time_elapsed": 48672,
		"internal_node_id": "0.0-1.0-1.5"
	},
	{
		"rt": 3157,
		"stimulus": "<span style=\"font-size:30px; font-family: monospace\">hoje.</span>",
		"response": " ",
		"trial": "prac-sent",
		"word": "hoje.",
		"trial_type": "html-keyboard-response",
		"trial_index": 8,
		"time_elapsed": 52080,
		"internal_node_id": "0.0-1.0-1.6"
	},
	{
		"rt": null,
		"stimulus": "<span style= \"font-size:30px; font-family: monospace\">+</span>",
		"response": null,
		"trial_part": "fixation",
		"trial_type": "html-keyboard-response",
		"trial_index": 9,
		"time_elapsed": 53332,
		"internal_node_id": "0.0-1.0-0.7-0.7"
	},
	{
		"rt": 1585,
		"stimulus": "<span style=\"font-size:30px; font-family: monospace\">A</span>",
		"response": " ",
		"trial": "prac-sent",
		"word": "A",
		"trial_type": "html-keyboard-response",
		"trial_index": 10,
		"time_elapsed": 55168,
		"internal_node_id": "0.0-1.0-1.7"
	},
	{
		"rt": 4661,
		"stimulus": "<span style=\"font-size:30px; font-family: monospace\">caneca</span>",
		"response": " ",
		"trial": "prac-sent",
		"word": "caneca",
		"trial_type": "html-keyboard-response",
		"trial_index": 11,
		"time_elapsed": 60080,
		"internal_node_id": "0.0-1.0-1.8"
	},
	{
		"rt": 3172,
		"stimulus": "<span style=\"font-size:30px; font-family: monospace\">colorida</span>",
		"response": " ",
		"trial": "prac-sent",
		"word": "colorida",
		"trial_type": "html-keyboard-response",
		"trial_index": 12,
		"time_elapsed": 63504,
		"internal_node_id": "0.0-1.0-1.9"
	},
	{
		"rt": 2917,
		"stimulus": "<span style=\"font-size:30px; font-family: monospace\">caiu</span>",
		"response": " ",
		"trial": "prac-sent",
		"word": "caiu",
		"trial_type": "html-keyboard-response",
		"trial_index": 13,
		"time_elapsed": 66671,
		"internal_node_id": "0.0-1.0-1.10"
	},
	{
		"rt": 3973,
		"stimulus": "<span style=\"font-size:30px; font-family: monospace\">da</span>",
		"response": " ",
		"trial": "prac-sent",
		"word": "da",
		"trial_type": "html-keyboard-response",
		"trial_index": 14,
		"time_elapsed": 70895,
		"internal_node_id": "0.0-1.0-1.11"
	},
	{
		"rt": 5652,
		"stimulus": "<span style=\"font-size:30px; font-family: monospace\">mesa</span>",
		"response": " ",
		"trial": "prac-sent",
		"word": "mesa",
		"trial_type": "html-keyboard-response",
		"trial_index": 15,
		"time_elapsed": 76799,
		"internal_node_id": "0.0-1.0-1.12"
	},
	{
		"rt": 3045,
		"stimulus": "<span style=\"font-size:30px; font-family: monospace\">de</span>",
		"response": " ",
		"trial": "prac-sent",
		"word": "de",
		"trial_type": "html-keyboard-response",
		"trial_index": 16,
		"time_elapsed": 80095,
		"internal_node_id": "0.0-1.0-1.13"
	},
	{
		"rt": 4660,
		"stimulus": "<span style=\"font-size:30px; font-family: monospace\">jantar.</span>",
		"response": " ",
		"trial": "prac-comp",
		"word": "jantar.",
		"trial_type": "html-keyboard-response",
		"trial_index": 17,
		"time_elapsed": 85007,
		"internal_node_id": "0.0-1.0-1.14"
	},
	{
		"rt": 9973,
		"stimulus": "<span style=\"font-size:30px; font-family: monospace\">A caneca permaneceu na mesa?</span>",
		"response": "s",
		"question": "A caneca permaneceu na mesa?",
		"answer": "não",
		"trial": "prac-comp",
		"trial_type": "html-keyboard-response",
		"trial_index": 18,
		"time_elapsed": 95231,
		"internal_node_id": "0.0-1.0-2.14-0.14",
		"accuracy": false
	},
	{
		"view_history": [
			{
				"page_index": 0,
				"viewing_time": 12075
			}
		],
		"rt": 12075,
		"trial_type": "instructions",
		"trial_index": 19,
		"time_elapsed": 107808,
		"internal_node_id": "0.0-2.0"
	},
	{
		"rt": null,
		"stimulus": "<span style= \"font-size:30px; font-family: monospace\">+</span>",
		"response": null,
		"trial_part": "fixation",
		"trial_type": "html-keyboard-response",
		"trial_index": 20,
		"time_elapsed": 108909,
		"internal_node_id": "0.0-3.0-0.0-0.0"
	},
	{
		"rt": 2167,
		"stimulus": "<span style=\"font-size:30px; font-family: monospace\">Ursos</span>",
		"response": " ",
		"trial": "exp-sent",
		"word": "Ursos",
		"trial_type": "html-keyboard-response",
		"trial_index": 21,
		"time_elapsed": 111327,
		"internal_node_id": "0.0-3.0-1.0"
	},
	{
		"rt": 2325,
		"stimulus": "<span style=\"font-size:30px; font-family: monospace\">têm</span>",
		"response": " ",
		"trial": "exp-sent",
		"word": "têm",
		"trial_type": "html-keyboard-response",
		"trial_index": 22,
		"time_elapsed": 113903,
		"internal_node_id": "0.0-3.0-1.1"
	},
	{
		"rt": 2577,
		"stimulus": "<span style=\"font-size:30px; font-family: monospace\">uma</span>",
		"response": " ",
		"trial": "exp-sent",
		"word": "uma",
		"trial_type": "html-keyboard-response",
		"trial_index": 23,
		"time_elapsed": 116735,
		"internal_node_id": "0.0-3.0-1.2"
	},
	{
		"rt": 2965,
		"stimulus": "<span style=\"font-size:30px; font-family: monospace\">patada</span>",
		"response": " ",
		"trial": "exp-sent",
		"word": "patada",
		"trial_type": "html-keyboard-response",
		"trial_index": 24,
		"time_elapsed": 119951,
		"internal_node_id": "0.0-3.0-1.3"
	},
	{
		"rt": 3877,
		"stimulus": "<span style=\"font-size:30px; font-family: monospace\">brutal</span>",
		"response": " ",
		"trial": "exp-sent",
		"word": "brutal",
		"trial_type": "html-keyboard-response",
		"trial_index": 25,
		"time_elapsed": 124079,
		"internal_node_id": "0.0-3.0-1.4"
	},
	{
		"rt": 2741,
		"stimulus": "<span style=\"font-size:30px; font-family: monospace\">e</span>",
		"response": " ",
		"trial": "exp-sent",
		"word": "e",
		"trial_type": "html-keyboard-response",
		"trial_index": 26,
		"time_elapsed": 127071,
		"internal_node_id": "0.0-3.0-1.5"
	},
	{
		"rt": 6005,
		"stimulus": "<span style=\"font-size:30px; font-family: monospace\">poderosa.</span>",
		"response": " ",
		"trial": "exp-sent",
		"word": "poderosa.",
		"trial_type": "html-keyboard-response",
		"trial_index": 27,
		"time_elapsed": 133327,
		"internal_node_id": "0.0-3.0-1.6"
	},
	{
		"rt": null,
		"stimulus": "<span style= \"font-size:30px; font-family: monospace\">+</span>",
		"response": null,
		"trial_part": "fixation",
		"trial_type": "html-keyboard-response",
		"trial_index": 28,
		"time_elapsed": 134579,
		"internal_node_id": "0.0-3.0-0.7-0.7"
	},
	{
		"rt": 1425,
		"stimulus": "<span style=\"font-size:30px; font-family: monospace\">Eu</span>",
		"response": " ",
		"trial": "exp-sent",
		"word": "Eu",
		"trial_type": "html-keyboard-response",
		"trial_index": 29,
		"time_elapsed": 136255,
		"internal_node_id": "0.0-3.0-1.7"
	},
	{
		"rt": 1845,
		"stimulus": "<span style=\"font-size:30px; font-family: monospace\">fiz</span>",
		"response": " ",
		"trial": "exp-sent",
		"word": "fiz",
		"trial_type": "html-keyboard-response",
		"trial_index": 30,
		"time_elapsed": 138351,
		"internal_node_id": "0.0-3.0-1.8"
	},
	{
		"rt": 2933,
		"stimulus": "<span style=\"font-size:30px; font-family: monospace\">aulas</span>",
		"response": " ",
		"trial": "exp-sent",
		"word": "aulas",
		"trial_type": "html-keyboard-response",
		"trial_index": 31,
		"time_elapsed": 141535,
		"internal_node_id": "0.0-3.0-1.9"
	},
	{
		"rt": 2533,
		"stimulus": "<span style=\"font-size:30px; font-family: monospace\">de</span>",
		"response": " ",
		"trial": "exp-sent",
		"word": "de",
		"trial_type": "html-keyboard-response",
		"trial_index": 32,
		"time_elapsed": 144319,
		"internal_node_id": "0.0-3.0-1.10"
	},
	{
		"rt": 3269,
		"stimulus": "<span style=\"font-size:30px; font-family: monospace\">espanhol</span>",
		"response": " ",
		"trial": "exp-sent",
		"word": "espanhol",
		"trial_type": "html-keyboard-response",
		"trial_index": 33,
		"time_elapsed": 147839,
		"internal_node_id": "0.0-3.0-1.11"
	},
	{
		"rt": 2981,
		"stimulus": "<span style=\"font-size:30px; font-family: monospace\">nesta</span>",
		"response": " ",
		"trial": "exp-sent",
		"word": "nesta",
		"trial_type": "html-keyboard-response",
		"trial_index": 34,
		"time_elapsed": 151071,
		"internal_node_id": "0.0-3.0-1.12"
	},
	{
		"rt": 3253,
		"stimulus": "<span style=\"font-size:30px; font-family: monospace\">cidade.</span>",
		"response": " ",
		"trial": "exp-sent",
		"word": "cidade.",
		"trial_type": "html-keyboard-response",
		"trial_index": 35,
		"time_elapsed": 154575,
		"internal_node_id": "0.0-3.0-1.13"
	},
	{
		"rt": null,
		"stimulus": "<span style= \"font-size:30px; font-family: monospace\">+</span>",
		"response": null,
		"trial_part": "fixation",
		"trial_type": "html-keyboard-response",
		"trial_index": 36,
		"time_elapsed": 155826,
		"internal_node_id": "0.0-3.0-0.14-0.14"
	},
	{
		"rt": 1057,
		"stimulus": "<span style=\"font-size:30px; font-family: monospace\">Ele</span>",
		"response": " ",
		"trial": "exp-sent",
		"word": "Ele",
		"trial_type": "html-keyboard-response",
		"trial_index": 37,
		"time_elapsed": 157135,
		"internal_node_id": "0.0-3.0-1.14"
	},
	{
		"rt": 1941,
		"stimulus": "<span style=\"font-size:30px; font-family: monospace\">comprou</span>",
		"response": " ",
		"trial": "exp-sent",
		"word": "comprou",
		"trial_type": "html-keyboard-response",
		"trial_index": 38,
		"time_elapsed": 159327,
		"internal_node_id": "0.0-3.0-1.15"
	},
	{
		"rt": 1733,
		"stimulus": "<span style=\"font-size:30px; font-family: monospace\">mais</span>",
		"response": " ",
		"trial": "exp-sent",
		"word": "mais",
		"trial_type": "html-keyboard-response",
		"trial_index": 39,
		"time_elapsed": 161311,
		"internal_node_id": "0.0-3.0-1.16"
	},
	{
		"rt": 1445,
		"stimulus": "<span style=\"font-size:30px; font-family: monospace\">uma</span>",
		"response": " ",
		"trial": "exp-sent",
		"word": "uma",
		"trial_type": "html-keyboard-response",
		"trial_index": 40,
		"time_elapsed": 163007,
		"internal_node_id": "0.0-3.0-1.17"
	},
	{
		"rt": 1573,
		"stimulus": "<span style=\"font-size:30px; font-family: monospace\">esponja</span>",
		"response": " ",
		"trial": "exp-sent",
		"word": "esponja",
		"trial_type": "html-keyboard-response",
		"trial_index": 41,
		"time_elapsed": 164831,
		"internal_node_id": "0.0-3.0-1.18"
	},
	{
		"rt": 2469,
		"stimulus": "<span style=\"font-size:30px; font-family: monospace\">para</span>",
		"response": " ",
		"trial": "exp-sent",
		"word": "para",
		"trial_type": "html-keyboard-response",
		"trial_index": 42,
		"time_elapsed": 167551,
		"internal_node_id": "0.0-3.0-1.19"
	},
	{
		"rt": 2149,
		"stimulus": "<span style=\"font-size:30px; font-family: monospace\">a</span>",
		"response": " ",
		"trial": "exp-sent",
		"word": "a",
		"trial_type": "html-keyboard-response",
		"trial_index": 43,
		"time_elapsed": 169951,
		"internal_node_id": "0.0-3.0-1.20"
	},
	{
		"rt": 2932,
		"stimulus": "<span style=\"font-size:30px; font-family: monospace\">cozinha.</span>",
		"response": " ",
		"trial": "exp-sent",
		"word": "cozinha.",
		"trial_type": "html-keyboard-response",
		"trial_index": 44,
		"time_elapsed": 173135,
		"internal_node_id": "0.0-3.0-1.21"
	},
	{
		"rt": null,
		"stimulus": "<span style= \"font-size:30px; font-family: monospace\">+</span>",
		"response": null,
		"trial_part": "fixation",
		"trial_type": "html-keyboard-response",
		"trial_index": 45,
		"time_elapsed": 174388,
		"internal_node_id": "0.0-3.0-0.22-0.22"
	},
	{
		"rt": 1137,
		"stimulus": "<span style=\"font-size:30px; font-family: monospace\">Ele</span>",
		"response": " ",
		"trial": "exp-sent",
		"word": "Ele",
		"trial_type": "html-keyboard-response",
		"trial_index": 46,
		"time_elapsed": 175775,
		"internal_node_id": "0.0-3.0-1.22"
	},
	{
		"rt": 2136,
		"stimulus": "<span style=\"font-size:30px; font-family: monospace\">teve</span>",
		"response": " ",
		"trial": "exp-sent",
		"word": "teve",
		"trial_type": "html-keyboard-response",
		"trial_index": 47,
		"time_elapsed": 178162,
		"internal_node_id": "0.0-3.0-1.23"
	},
	{
		"rt": 2755,
		"stimulus": "<span style=\"font-size:30px; font-family: monospace\">um</span>",
		"response": " ",
		"trial": "exp-sent",
		"word": "um",
		"trial_type": "html-keyboard-response",
		"trial_index": 48,
		"time_elapsed": 181167,
		"internal_node_id": "0.0-3.0-1.24"
	},
	{
		"rt": 4500,
		"stimulus": "<span style=\"font-size:30px; font-family: monospace\">sono</span>",
		"response": " ",
		"trial": "exp-sent",
		"word": "sono",
		"trial_type": "html-keyboard-response",
		"trial_index": 49,
		"time_elapsed": 185919,
		"internal_node_id": "0.0-3.0-1.25"
	},
	{
		"rt": 4294,
		"stimulus": "<span style=\"font-size:30px; font-family: monospace\">bizarro</span>",
		"response": " ",
		"trial": "exp-sent",
		"word": "bizarro",
		"trial_type": "html-keyboard-response",
		"trial_index": 50,
		"time_elapsed": 190463,
		"internal_node_id": "0.0-3.0-1.26"
	},
	{
		"rt": 2869,
		"stimulus": "<span style=\"font-size:30px; font-family: monospace\">sem</span>",
		"response": " ",
		"trial": "exp-sent",
		"word": "sem",
		"trial_type": "html-keyboard-response",
		"trial_index": 51,
		"time_elapsed": 193583,
		"internal_node_id": "0.0-3.0-1.27"
	},
	{
		"rt": 2813,
		"stimulus": "<span style=\"font-size:30px; font-family: monospace\">nenhum</span>",
		"response": " ",
		"trial": "exp-sent",
		"word": "nenhum",
		"trial_type": "html-keyboard-response",
		"trial_index": 52,
		"time_elapsed": 196655,
		"internal_node_id": "0.0-3.0-1.28"
	},
	{
		"rt": 3557,
		"stimulus": "<span style=\"font-size:30px; font-family: monospace\">motivo.</span>",
		"response": " ",
		"trial": "exp-sent",
		"word": "motivo.",
		"trial_type": "html-keyboard-response",
		"trial_index": 53,
		"time_elapsed": 200463,
		"internal_node_id": "0.0-3.0-1.29"
	},
	{
		"rt": null,
		"stimulus": "<span style= \"font-size:30px; font-family: monospace\">+</span>",
		"response": null,
		"trial_part": "fixation",
		"trial_type": "html-keyboard-response",
		"trial_index": 54,
		"time_elapsed": 201715,
		"internal_node_id": "0.0-3.0-0.30-0.30"
	},
	{
		"rt": 1442,
		"stimulus": "<span style=\"font-size:30px; font-family: monospace\">A</span>",
		"response": " ",
		"trial": "exp-sent",
		"word": "A",
		"trial_type": "html-keyboard-response",
		"trial_index": 55,
		"time_elapsed": 203407,
		"internal_node_id": "0.0-3.0-1.30"
	},
	{
		"rt": 1749,
		"stimulus": "<span style=\"font-size:30px; font-family: monospace\">moça</span>",
		"response": " ",
		"trial": "exp-sent",
		"word": "moça",
		"trial_type": "html-keyboard-response",
		"trial_index": 56,
		"time_elapsed": 205407,
		"internal_node_id": "0.0-3.0-1.31"
	},
	{
		"rt": 1780,
		"stimulus": "<span style=\"font-size:30px; font-family: monospace\">comprou</span>",
		"response": " ",
		"trial": "exp-sent",
		"word": "comprou",
		"trial_type": "html-keyboard-response",
		"trial_index": 57,
		"time_elapsed": 207439,
		"internal_node_id": "0.0-3.0-1.32"
	},
	{
		"rt": 1845,
		"stimulus": "<span style=\"font-size:30px; font-family: monospace\">um</span>",
		"response": " ",
		"trial": "exp-sent",
		"word": "um",
		"trial_type": "html-keyboard-response",
		"trial_index": 58,
		"time_elapsed": 209535,
		"internal_node_id": "0.0-3.0-1.33"
	},
	{
		"rt": 1653,
		"stimulus": "<span style=\"font-size:30px; font-family: monospace\">diamante</span>",
		"response": " ",
		"trial": "exp-sent",
		"word": "diamante",
		"trial_type": "html-keyboard-response",
		"trial_index": 59,
		"time_elapsed": 211439,
		"internal_node_id": "0.0-3.0-1.34"
	},
	{
		"rt": 2293,
		"stimulus": "<span style=\"font-size:30px; font-family: monospace\">para</span>",
		"response": " ",
		"trial": "exp-sent",
		"word": "para",
		"trial_type": "html-keyboard-response",
		"trial_index": 60,
		"time_elapsed": 213983,
		"internal_node_id": "0.0-3.0-1.35"
	},
	{
		"rt": 1699,
		"stimulus": "<span style=\"font-size:30px; font-family: monospace\">sua</span>",
		"response": " ",
		"trial": "exp-sent",
		"word": "sua",
		"trial_type": "html-keyboard-response",
		"trial_index": 61,
		"time_elapsed": 215935,
		"internal_node_id": "0.0-3.0-1.36"
	},
	{
		"rt": 1316,
		"stimulus": "<span style=\"font-size:30px; font-family: monospace\">prima.</span>",
		"response": " ",
		"trial": "comp",
		"word": "prima.",
		"trial_type": "html-keyboard-response",
		"trial_index": 62,
		"time_elapsed": 217503,
		"internal_node_id": "0.0-3.0-1.37"
	},
	{
		"rt": 11077,
		"stimulus": "<span style=\"font-size:30px; font-family: monospace\">A moça comprou um diamante?</span>",
		"response": "s",
		"question": "A moça comprou um diamante?",
		"answer": "sim",
		"trial": "comp",
		"trial_type": "html-keyboard-response",
		"trial_index": 63,
		"time_elapsed": 228831,
		"internal_node_id": "0.0-3.0-2.37-0.37",
		"accuracy": false
	},
	{
		"rt": null,
		"stimulus": "<span style= \"font-size:30px; font-family: monospace\">+</span>",
		"response": null,
		"trial_part": "fixation",
		"trial_type": "html-keyboard-response",
		"trial_index": 64,
		"time_elapsed": 230335,
		"internal_node_id": "0.0-3.0-0.38-0.38"
	},
	{
		"rt": 1477,
		"stimulus": "<span style=\"font-size:30px; font-family: monospace\">A</span>",
		"response": " ",
		"trial": "exp-sent",
		"word": "A",
		"trial_type": "html-keyboard-response",
		"trial_index": 65,
		"time_elapsed": 232063,
		"internal_node_id": "0.0-3.0-1.38"
	},
	{
		"rt": 3904,
		"stimulus": "<span style=\"font-size:30px; font-family: monospace\">força</span>",
		"response": " ",
		"trial": "exp-sent",
		"word": "força",
		"trial_type": "html-keyboard-response",
		"trial_index": 66,
		"time_elapsed": 236223,
		"internal_node_id": "0.0-3.0-1.39"
	},
	{
		"rt": 2965,
		"stimulus": "<span style=\"font-size:30px; font-family: monospace\">d'água</span>",
		"response": " ",
		"trial": "exp-sent",
		"word": "d'água",
		"trial_type": "html-keyboard-response",
		"trial_index": 67,
		"time_elapsed": 239439,
		"internal_node_id": "0.0-3.0-1.40"
	},
	{
		"rt": 2693,
		"stimulus": "<span style=\"font-size:30px; font-family: monospace\">estava</span>",
		"response": " ",
		"trial": "exp-sent",
		"word": "estava",
		"trial_type": "html-keyboard-response",
		"trial_index": 68,
		"time_elapsed": 242383,
		"internal_node_id": "0.0-3.0-1.41"
	},
	{
		"rt": 2758,
		"stimulus": "<span style=\"font-size:30px; font-family: monospace\">normal</span>",
		"response": " ",
		"trial": "exp-sent",
		"word": "normal",
		"trial_type": "html-keyboard-response",
		"trial_index": 69,
		"time_elapsed": 245407,
		"internal_node_id": "0.0-3.0-1.42"
	},
	{
		"rt": 2773,
		"stimulus": "<span style=\"font-size:30px; font-family: monospace\">naquele</span>",
		"response": " ",
		"trial": "exp-sent",
		"word": "naquele",
		"trial_type": "html-keyboard-response",
		"trial_index": 70,
		"time_elapsed": 248431,
		"internal_node_id": "0.0-3.0-1.43"
	},
	{
		"rt": 2421,
		"stimulus": "<span style=\"font-size:30px; font-family: monospace\">dia.</span>",
		"response": " ",
		"trial": "exp-sent",
		"word": "dia.",
		"trial_type": "html-keyboard-response",
		"trial_index": 71,
		"time_elapsed": 251102,
		"internal_node_id": "0.0-3.0-1.44"
	},
	{
		"rt": null,
		"stimulus": "<span style= \"font-size:30px; font-family: monospace\">+</span>",
		"response": null,
		"trial_part": "fixation",
		"trial_type": "html-keyboard-response",
		"trial_index": 72,
		"time_elapsed": 252368,
		"internal_node_id": "0.0-3.0-0.45-0.45"
	},
	{
		"rt": 1251,
		"stimulus": "<span style=\"font-size:30px; font-family: monospace\">A</span>",
		"response": " ",
		"trial": "exp-sent",
		"word": "A",
		"trial_type": "html-keyboard-response",
		"trial_index": 73,
		"time_elapsed": 253870,
		"internal_node_id": "0.0-3.0-1.45"
	},
	{
		"rt": 2326,
		"stimulus": "<span style=\"font-size:30px; font-family: monospace\">médica</span>",
		"response": " ",
		"trial": "exp-sent",
		"word": "médica",
		"trial_type": "html-keyboard-response",
		"trial_index": 74,
		"time_elapsed": 256446,
		"internal_node_id": "0.0-3.0-1.46"
	},
	{
		"rt": 3652,
		"stimulus": "<span style=\"font-size:30px; font-family: monospace\">ofereceu</span>",
		"response": " ",
		"trial": "exp-sent",
		"word": "ofereceu",
		"trial_type": "html-keyboard-response",
		"trial_index": 75,
		"time_elapsed": 260350,
		"internal_node_id": "0.0-3.0-1.47"
	},
	{
		"rt": 1765,
		"stimulus": "<span style=\"font-size:30px; font-family: monospace\">a</span>",
		"response": " ",
		"trial": "exp-sent",
		"word": "a",
		"trial_type": "html-keyboard-response",
		"trial_index": 76,
		"time_elapsed": 262366,
		"internal_node_id": "0.0-3.0-1.48"
	},
	{
		"rt": 2517,
		"stimulus": "<span style=\"font-size:30px; font-family: monospace\">pomada</span>",
		"response": " ",
		"trial": "exp-sent",
		"word": "pomada",
		"trial_type": "html-keyboard-response",
		"trial_index": 77,
		"time_elapsed": 265134,
		"internal_node_id": "0.0-3.0-1.49"
	},
	{
		"rt": 2117,
		"stimulus": "<span style=\"font-size:30px; font-family: monospace\">para</span>",
		"response": " ",
		"trial": "exp-sent",
		"word": "para",
		"trial_type": "html-keyboard-response",
		"trial_index": 78,
		"time_elapsed": 267502,
		"internal_node_id": "0.0-3.0-1.50"
	},
	{
		"rt": 2192,
		"stimulus": "<span style=\"font-size:30px; font-family: monospace\">o</span>",
		"response": " ",
		"trial": "exp-sent",
		"word": "o",
		"trial_type": "html-keyboard-response",
		"trial_index": 79,
		"time_elapsed": 269950,
		"internal_node_id": "0.0-3.0-1.51"
	},
	{
		"rt": 2661,
		"stimulus": "<span style=\"font-size:30px; font-family: monospace\">avô.</span>",
		"response": " ",
		"trial": "exp-sent",
		"word": "avô.",
		"trial_type": "html-keyboard-response",
		"trial_index": 80,
		"time_elapsed": 272863,
		"internal_node_id": "0.0-3.0-1.52"
	},
	{
		"rt": null,
		"stimulus": "<span style= \"font-size:30px; font-family: monospace\">+</span>",
		"response": null,
		"trial_part": "fixation",
		"trial_type": "html-keyboard-response",
		"trial_index": 81,
		"time_elapsed": 274115,
		"internal_node_id": "0.0-3.0-0.53-0.53"
	},
	{
		"rt": 591,
		"stimulus": "<span style=\"font-size:30px; font-family: monospace\">Ele</span>",
		"response": " ",
		"trial": "exp-sent",
		"word": "Ele",
		"trial_type": "html-keyboard-response",
		"trial_index": 82,
		"time_elapsed": 274958,
		"internal_node_id": "0.0-3.0-1.53"
	},
	{
		"rt": 2357,
		"stimulus": "<span style=\"font-size:30px; font-family: monospace\">conversou</span>",
		"response": " ",
		"trial": "exp-sent",
		"word": "conversou",
		"trial_type": "html-keyboard-response",
		"trial_index": 83,
		"time_elapsed": 277566,
		"internal_node_id": "0.0-3.0-1.54"
	},
	{
		"rt": 1717,
		"stimulus": "<span style=\"font-size:30px; font-family: monospace\">com</span>",
		"response": " ",
		"trial": "exp-sent",
		"word": "com",
		"trial_type": "html-keyboard-response",
		"trial_index": 84,
		"time_elapsed": 279534,
		"internal_node_id": "0.0-3.0-1.55"
	},
	{
		"rt": 965,
		"stimulus": "<span style=\"font-size:30px; font-family: monospace\">o</span>",
		"response": " ",
		"trial": "exp-sent",
		"word": "o",
		"trial_type": "html-keyboard-response",
		"trial_index": 85,
		"time_elapsed": 280750,
		"internal_node_id": "0.0-3.0-1.56"
	},
	{
		"rt": 1093,
		"stimulus": "<span style=\"font-size:30px; font-family: monospace\">patrão</span>",
		"response": " ",
		"trial": "exp-sent",
		"word": "patrão",
		"trial_type": "html-keyboard-response",
		"trial_index": 86,
		"time_elapsed": 282094,
		"internal_node_id": "0.0-3.0-1.57"
	},
	{
		"rt": 1558,
		"stimulus": "<span style=\"font-size:30px; font-family: monospace\">durante</span>",
		"response": " ",
		"trial": "exp-sent",
		"word": "durante",
		"trial_type": "html-keyboard-response",
		"trial_index": 87,
		"time_elapsed": 283902,
		"internal_node_id": "0.0-3.0-1.58"
	},
	{
		"rt": 2340,
		"stimulus": "<span style=\"font-size:30px; font-family: monospace\">a</span>",
		"response": " ",
		"trial": "exp-sent",
		"word": "a",
		"trial_type": "html-keyboard-response",
		"trial_index": 88,
		"time_elapsed": 286494,
		"internal_node_id": "0.0-3.0-1.59"
	},
	{
		"rt": 1317,
		"stimulus": "<span style=\"font-size:30px; font-family: monospace\">tarde.</span>",
		"response": " ",
		"trial": "exp-sent",
		"word": "tarde.",
		"trial_type": "html-keyboard-response",
		"trial_index": 89,
		"time_elapsed": 288062,
		"internal_node_id": "0.0-3.0-1.60"
	},
	{
		"rt": null,
		"stimulus": "<span style= \"font-size:30px; font-family: monospace\">+</span>",
		"response": null,
		"trial_part": "fixation",
		"trial_type": "html-keyboard-response",
		"trial_index": 90,
		"time_elapsed": 289314,
		"internal_node_id": "0.0-3.0-0.61-0.61"
	},
	{
		"rt": 274,
		"stimulus": "<span style=\"font-size:30px; font-family: monospace\">Algumas</span>",
		"response": " ",
		"trial": "exp-sent",
		"word": "Algumas",
		"trial_type": "html-keyboard-response",
		"trial_index": 91,
		"time_elapsed": 289838,
		"internal_node_id": "0.0-3.0-1.61"
	},
	{
		"rt": 1493,
		"stimulus": "<span style=\"font-size:30px; font-family: monospace\">pessoas</span>",
		"response": " ",
		"trial": "exp-sent",
		"word": "pessoas",
		"trial_type": "html-keyboard-response",
		"trial_index": 92,
		"time_elapsed": 291582,
		"internal_node_id": "0.0-3.0-1.62"
	},
	{
		"rt": 2037,
		"stimulus": "<span style=\"font-size:30px; font-family: monospace\">acreditam</span>",
		"response": " ",
		"trial": "exp-sent",
		"word": "acreditam",
		"trial_type": "html-keyboard-response",
		"trial_index": 93,
		"time_elapsed": 293870,
		"internal_node_id": "0.0-3.0-1.63"
	},
	{
		"rt": 1429,
		"stimulus": "<span style=\"font-size:30px; font-family: monospace\">em</span>",
		"response": " ",
		"trial": "exp-sent",
		"word": "em",
		"trial_type": "html-keyboard-response",
		"trial_index": 94,
		"time_elapsed": 295550,
		"internal_node_id": "0.0-3.0-1.64"
	},
	{
		"rt": 1253,
		"stimulus": "<span style=\"font-size:30px; font-family: monospace\">espíritos</span>",
		"response": " ",
		"trial": "exp-sent",
		"word": "espíritos",
		"trial_type": "html-keyboard-response",
		"trial_index": 95,
		"time_elapsed": 297054,
		"internal_node_id": "0.0-3.0-1.65"
	},
	{
		"rt": 1813,
		"stimulus": "<span style=\"font-size:30px; font-family: monospace\">e</span>",
		"response": " ",
		"trial": "exp-sent",
		"word": "e",
		"trial_type": "html-keyboard-response",
		"trial_index": 96,
		"time_elapsed": 299118,
		"internal_node_id": "0.0-3.0-1.66"
	},
	{
		"rt": 1588,
		"stimulus": "<span style=\"font-size:30px; font-family: monospace\">em</span>",
		"response": " ",
		"trial": "exp-sent",
		"word": "em",
		"trial_type": "html-keyboard-response",
		"trial_index": 97,
		"time_elapsed": 300958,
		"internal_node_id": "0.0-3.0-1.67"
	},
	{
		"rt": 1510,
		"stimulus": "<span style=\"font-size:30px; font-family: monospace\">outras</span>",
		"response": " ",
		"trial": "exp-sent",
		"word": "outras",
		"trial_type": "html-keyboard-response",
		"trial_index": 98,
		"time_elapsed": 302718,
		"internal_node_id": "0.0-3.0-1.68"
	},
	{
		"rt": 2100,
		"stimulus": "<span style=\"font-size:30px; font-family: monospace\">vidas.</span>",
		"response": " ",
		"trial": "exp-sent",
		"word": "vidas.",
		"trial_type": "html-keyboard-response",
		"trial_index": 99,
		"time_elapsed": 305070,
		"internal_node_id": "0.0-3.0-1.69"
	},
	{
		"rt": null,
		"stimulus": "<span style= \"font-size:30px; font-family: monospace\">+</span>",
		"response": null,
		"trial_part": "fixation",
		"trial_type": "html-keyboard-response",
		"trial_index": 100,
		"time_elapsed": 306322,
		"internal_node_id": "0.0-3.0-0.70-0.70"
	},
	{
		"rt": 433,
		"stimulus": "<span style=\"font-size:30px; font-family: monospace\">Ela</span>",
		"response": " ",
		"trial": "exp-sent",
		"word": "Ela",
		"trial_type": "html-keyboard-response",
		"trial_index": 101,
		"time_elapsed": 307006,
		"internal_node_id": "0.0-3.0-1.70"
	},
	{
		"rt": 933,
		"stimulus": "<span style=\"font-size:30px; font-family: monospace\">gosta</span>",
		"response": " ",
		"trial": "exp-sent",
		"word": "gosta",
		"trial_type": "html-keyboard-response",
		"trial_index": 102,
		"time_elapsed": 308190,
		"internal_node_id": "0.0-3.0-1.71"
	},
	{
		"rt": 2390,
		"stimulus": "<span style=\"font-size:30px; font-family: monospace\">de</span>",
		"response": " ",
		"trial": "exp-sent",
		"word": "de",
		"trial_type": "html-keyboard-response",
		"trial_index": 103,
		"time_elapsed": 310830,
		"internal_node_id": "0.0-3.0-1.72"
	},
	{
		"rt": 1125,
		"stimulus": "<span style=\"font-size:30px; font-family: monospace\">estudar</span>",
		"response": " ",
		"trial": "exp-sent",
		"word": "estudar",
		"trial_type": "html-keyboard-response",
		"trial_index": 104,
		"time_elapsed": 312206,
		"internal_node_id": "0.0-3.0-1.73"
	},
	{
		"rt": 1492,
		"stimulus": "<span style=\"font-size:30px; font-family: monospace\">matemática</span>",
		"response": " ",
		"trial": "exp-sent",
		"word": "matemática",
		"trial_type": "html-keyboard-response",
		"trial_index": 105,
		"time_elapsed": 313950,
		"internal_node_id": "0.0-3.0-1.74"
	},
	{
		"rt": 965,
		"stimulus": "<span style=\"font-size:30px; font-family: monospace\">com</span>",
		"response": " ",
		"trial": "exp-sent",
		"word": "com",
		"trial_type": "html-keyboard-response",
		"trial_index": 106,
		"time_elapsed": 315166,
		"internal_node_id": "0.0-3.0-1.75"
	},
	{
		"rt": 1750,
		"stimulus": "<span style=\"font-size:30px; font-family: monospace\">colegas.</span>",
		"response": " ",
		"trial": "comp",
		"word": "colegas.",
		"trial_type": "html-keyboard-response",
		"trial_index": 107,
		"time_elapsed": 317166,
		"internal_node_id": "0.0-3.0-1.76"
	},
	{
		"rt": 10949,
		"stimulus": "<span style=\"font-size:30px; font-family: monospace\">Ela gosta de estudar física?</span>",
		"response": "n",
		"question": "Ela gosta de estudar física?",
		"answer": "não",
		"trial": "comp",
		"trial_type": "html-keyboard-response",
		"trial_index": 108,
		"time_elapsed": 328367,
		"internal_node_id": "0.0-3.0-2.76-0.76",
		"accuracy": false
	},
	{
		"rt": null,
		"stimulus": "<span style= \"font-size:30px; font-family: monospace\">+</span>",
		"response": null,
		"trial_part": "fixation",
		"trial_type": "html-keyboard-response",
		"trial_index": 109,
		"time_elapsed": 329869,
		"internal_node_id": "0.0-3.0-0.77-0.77"
	},
	{
		"rt": 2086,
		"stimulus": "<span style=\"font-size:30px; font-family: monospace\">A</span>",
		"response": " ",
		"trial": "exp-sent",
		"word": "A",
		"trial_type": "html-keyboard-response",
		"trial_index": 110,
		"time_elapsed": 332206,
		"internal_node_id": "0.0-3.0-1.77"
	},
	{
		"rt": 1877,
		"stimulus": "<span style=\"font-size:30px; font-family: monospace\">motorista</span>",
		"response": " ",
		"trial": "exp-sent",
		"word": "motorista",
		"trial_type": "html-keyboard-response",
		"trial_index": 111,
		"time_elapsed": 334334,
		"internal_node_id": "0.0-3.0-1.78"
	},
	{
		"rt": 1717,
		"stimulus": "<span style=\"font-size:30px; font-family: monospace\">fez</span>",
		"response": " ",
		"trial": "exp-sent",
		"word": "fez",
		"trial_type": "html-keyboard-response",
		"trial_index": 112,
		"time_elapsed": 336302,
		"internal_node_id": "0.0-3.0-1.79"
	},
	{
		"rt": 1029,
		"stimulus": "<span style=\"font-size:30px; font-family: monospace\">o</span>",
		"response": " ",
		"trial": "exp-sent",
		"word": "o",
		"trial_type": "html-keyboard-response",
		"trial_index": 113,
		"time_elapsed": 337582,
		"internal_node_id": "0.0-3.0-1.80"
	},
	{
		"rt": 1316,
		"stimulus": "<span style=\"font-size:30px; font-family: monospace\">retorno</span>",
		"response": " ",
		"trial": "exp-sent",
		"word": "retorno",
		"trial_type": "html-keyboard-response",
		"trial_index": 114,
		"time_elapsed": 339150,
		"internal_node_id": "0.0-3.0-1.81"
	},
	{
		"rt": 2900,
		"stimulus": "<span style=\"font-size:30px; font-family: monospace\">com</span>",
		"response": " ",
		"trial": "exp-sent",
		"word": "com",
		"trial_type": "html-keyboard-response",
		"trial_index": 115,
		"time_elapsed": 342302,
		"internal_node_id": "0.0-3.0-1.82"
	},
	{
		"rt": 2037,
		"stimulus": "<span style=\"font-size:30px; font-family: monospace\">cuidado.</span>",
		"response": " ",
		"trial": "exp-sent",
		"word": "cuidado.",
		"trial_type": "html-keyboard-response",
		"trial_index": 116,
		"time_elapsed": 344590,
		"internal_node_id": "0.0-3.0-1.83"
	},
	{
		"rt": null,
		"stimulus": "<span style= \"font-size:30px; font-family: monospace\">+</span>",
		"response": null,
		"trial_part": "fixation",
		"trial_type": "html-keyboard-response",
		"trial_index": 117,
		"time_elapsed": 345842,
		"internal_node_id": "0.0-3.0-0.84-0.84"
	},
	{
		"rt": 1360,
		"stimulus": "<span style=\"font-size:30px; font-family: monospace\">Contos</span>",
		"response": " ",
		"trial": "exp-sent",
		"word": "Contos",
		"trial_type": "html-keyboard-response",
		"trial_index": 118,
		"time_elapsed": 347454,
		"internal_node_id": "0.0-3.0-1.84"
	},
	{
		"rt": 1701,
		"stimulus": "<span style=\"font-size:30px; font-family: monospace\">de</span>",
		"response": " ",
		"trial": "exp-sent",
		"word": "de",
		"trial_type": "html-keyboard-response",
		"trial_index": 119,
		"time_elapsed": 349406,
		"internal_node_id": "0.0-3.0-1.85"
	},
	{
		"rt": 1493,
		"stimulus": "<span style=\"font-size:30px; font-family: monospace\">ação</span>",
		"response": " ",
		"trial": "exp-sent",
		"word": "ação",
		"trial_type": "html-keyboard-response",
		"trial_index": 120,
		"time_elapsed": 351150,
		"internal_node_id": "0.0-3.0-1.86"
	},
	{
		"rt": 2037,
		"stimulus": "<span style=\"font-size:30px; font-family: monospace\">têm</span>",
		"response": " ",
		"trial": "exp-sent",
		"word": "têm",
		"trial_type": "html-keyboard-response",
		"trial_index": 121,
		"time_elapsed": 353438,
		"internal_node_id": "0.0-3.0-1.87"
	},
	{
		"rt": 1013,
		"stimulus": "<span style=\"font-size:30px; font-family: monospace\">chantagem</span>",
		"response": " ",
		"trial": "exp-sent",
		"word": "chantagem",
		"trial_type": "html-keyboard-response",
		"trial_index": 122,
		"time_elapsed": 354702,
		"internal_node_id": "0.0-3.0-1.88"
	},
	{
		"rt": 1717,
		"stimulus": "<span style=\"font-size:30px; font-family: monospace\">e</span>",
		"response": " ",
		"trial": "exp-sent",
		"word": "e",
		"trial_type": "html-keyboard-response",
		"trial_index": 123,
		"time_elapsed": 356670,
		"internal_node_id": "0.0-3.0-1.89"
	},
	{
		"rt": 1285,
		"stimulus": "<span style=\"font-size:30px; font-family: monospace\">muita</span>",
		"response": " ",
		"trial": "exp-sent",
		"word": "muita",
		"trial_type": "html-keyboard-response",
		"trial_index": 124,
		"time_elapsed": 358206,
		"internal_node_id": "0.0-3.0-1.90"
	},
	{
		"rt": 1828,
		"stimulus": "<span style=\"font-size:30px; font-family: monospace\">luta.</span>",
		"response": " ",
		"trial": "exp-sent",
		"word": "luta.",
		"trial_type": "html-keyboard-response",
		"trial_index": 125,
		"time_elapsed": 360286,
		"internal_node_id": "0.0-3.0-1.91"
	},
	{
		"rt": null,
		"stimulus": "<span style= \"font-size:30px; font-family: monospace\">+</span>",
		"response": null,
		"trial_part": "fixation",
		"trial_type": "html-keyboard-response",
		"trial_index": 126,
		"time_elapsed": 361538,
		"internal_node_id": "0.0-3.0-0.92-0.92"
	},
	{
		"rt": 1730,
		"stimulus": "<span style=\"font-size:30px; font-family: monospace\">A</span>",
		"response": " ",
		"trial": "exp-sent",
		"word": "A",
		"trial_type": "html-keyboard-response",
		"trial_index": 127,
		"time_elapsed": 363518,
		"internal_node_id": "0.0-3.0-1.92"
	},
	{
		"rt": 1461,
		"stimulus": "<span style=\"font-size:30px; font-family: monospace\">bisavó</span>",
		"response": " ",
		"trial": "exp-sent",
		"word": "bisavó",
		"trial_type": "html-keyboard-response",
		"trial_index": 128,
		"time_elapsed": 365230,
		"internal_node_id": "0.0-3.0-1.93"
	},
	{
		"rt": 2228,
		"stimulus": "<span style=\"font-size:30px; font-family: monospace\">recebeu</span>",
		"response": " ",
		"trial": "exp-sent",
		"word": "recebeu",
		"trial_type": "html-keyboard-response",
		"trial_index": 129,
		"time_elapsed": 367710,
		"internal_node_id": "0.0-3.0-1.94"
	},
	{
		"rt": 1669,
		"stimulus": "<span style=\"font-size:30px; font-family: monospace\">um</span>",
		"response": " ",
		"trial": "exp-sent",
		"word": "um",
		"trial_type": "html-keyboard-response",
		"trial_index": 130,
		"time_elapsed": 369630,
		"internal_node_id": "0.0-3.0-1.95"
	},
	{
		"rt": 853,
		"stimulus": "<span style=\"font-size:30px; font-family: monospace\">benefício</span>",
		"response": " ",
		"trial": "exp-sent",
		"word": "benefício",
		"trial_type": "html-keyboard-response",
		"trial_index": 131,
		"time_elapsed": 370734,
		"internal_node_id": "0.0-3.0-1.96"
	},
	{
		"rt": 1701,
		"stimulus": "<span style=\"font-size:30px; font-family: monospace\">temporário</span>",
		"response": " ",
		"trial": "exp-sent",
		"word": "temporário",
		"trial_type": "html-keyboard-response",
		"trial_index": 132,
		"time_elapsed": 372686,
		"internal_node_id": "0.0-3.0-1.97"
	},
	{
		"rt": 1460,
		"stimulus": "<span style=\"font-size:30px; font-family: monospace\">do</span>",
		"response": " ",
		"trial": "exp-sent",
		"word": "do",
		"trial_type": "html-keyboard-response",
		"trial_index": 133,
		"time_elapsed": 374398,
		"internal_node_id": "0.0-3.0-1.98"
	},
	{
		"rt": 1269,
		"stimulus": "<span style=\"font-size:30px; font-family: monospace\">governo.</span>",
		"response": " ",
		"trial": "exp-sent",
		"word": "governo.",
		"trial_type": "html-keyboard-response",
		"trial_index": 134,
		"time_elapsed": 375918,
		"internal_node_id": "0.0-3.0-1.99"
	},
	{
		"rt": null,
		"stimulus": "<span style= \"font-size:30px; font-family: monospace\">+</span>",
		"response": null,
		"trial_part": "fixation",
		"trial_type": "html-keyboard-response",
		"trial_index": 135,
		"time_elapsed": 377169,
		"internal_node_id": "0.0-3.0-0.100-0.100"
	},
	{
		"rt": 210,
		"stimulus": "<span style=\"font-size:30px; font-family: monospace\">As</span>",
		"response": " ",
		"trial": "exp-sent",
		"word": "As",
		"trial_type": "html-keyboard-response",
		"trial_index": 136,
		"time_elapsed": 377630,
		"internal_node_id": "0.0-3.0-1.100"
	},
	{
		"rt": 1029,
		"stimulus": "<span style=\"font-size:30px; font-family: monospace\">crianças</span>",
		"response": " ",
		"trial": "exp-sent",
		"word": "crianças",
		"trial_type": "html-keyboard-response",
		"trial_index": 137,
		"time_elapsed": 378910,
		"internal_node_id": "0.0-3.0-1.101"
	},
	{
		"rt": 2437,
		"stimulus": "<span style=\"font-size:30px; font-family: monospace\">brincaram</span>",
		"response": " ",
		"trial": "exp-sent",
		"word": "brincaram",
		"trial_type": "html-keyboard-response",
		"trial_index": 138,
		"time_elapsed": 381598,
		"internal_node_id": "0.0-3.0-1.102"
	},
	{
		"rt": 948,
		"stimulus": "<span style=\"font-size:30px; font-family: monospace\">no</span>",
		"response": " ",
		"trial": "exp-sent",
		"word": "no",
		"trial_type": "html-keyboard-response",
		"trial_index": 139,
		"time_elapsed": 382797,
		"internal_node_id": "0.0-3.0-1.103"
	},
	{
		"rt": 1365,
		"stimulus": "<span style=\"font-size:30px; font-family: monospace\">balanço</span>",
		"response": " ",
		"trial": "exp-sent",
		"word": "balanço",
		"trial_type": "html-keyboard-response",
		"trial_index": 140,
		"time_elapsed": 384414,
		"internal_node_id": "0.0-3.0-1.104"
	},
	{
		"rt": 2197,
		"stimulus": "<span style=\"font-size:30px; font-family: monospace\">a</span>",
		"response": " ",
		"trial": "exp-sent",
		"word": "a",
		"trial_type": "html-keyboard-response",
		"trial_index": 141,
		"time_elapsed": 386862,
		"internal_node_id": "0.0-3.0-1.105"
	},
	{
		"rt": 1429,
		"stimulus": "<span style=\"font-size:30px; font-family: monospace\">tarde</span>",
		"response": " ",
		"trial": "exp-sent",
		"word": "tarde",
		"trial_type": "html-keyboard-response",
		"trial_index": 142,
		"time_elapsed": 388542,
		"internal_node_id": "0.0-3.0-1.106"
	},
	{
		"rt": 1204,
		"stimulus": "<span style=\"font-size:30px; font-family: monospace\">toda.</span>",
		"response": " ",
		"trial": "exp-sent",
		"word": "toda.",
		"trial_type": "html-keyboard-response",
		"trial_index": 143,
		"time_elapsed": 389998,
		"internal_node_id": "0.0-3.0-1.107"
	},
	{
		"rt": null,
		"stimulus": "<span style= \"font-size:30px; font-family: monospace\">+</span>",
		"response": null,
		"trial_part": "fixation",
		"trial_type": "html-keyboard-response",
		"trial_index": 144,
		"time_elapsed": 391249,
		"internal_node_id": "0.0-3.0-0.108-0.108"
	},
	{
		"rt": 179,
		"stimulus": "<span style=\"font-size:30px; font-family: monospace\">Ela</span>",
		"response": " ",
		"trial": "exp-sent",
		"word": "Ela",
		"trial_type": "html-keyboard-response",
		"trial_index": 145,
		"time_elapsed": 391678,
		"internal_node_id": "0.0-3.0-1.108"
	},
	{
		"rt": 1685,
		"stimulus": "<span style=\"font-size:30px; font-family: monospace\">gosta</span>",
		"response": " ",
		"trial": "exp-sent",
		"word": "gosta",
		"trial_type": "html-keyboard-response",
		"trial_index": 146,
		"time_elapsed": 393614,
		"internal_node_id": "0.0-3.0-1.109"
	},
	{
		"rt": 1846,
		"stimulus": "<span style=\"font-size:30px; font-family: monospace\">de</span>",
		"response": " ",
		"trial": "exp-sent",
		"word": "de",
		"trial_type": "html-keyboard-response",
		"trial_index": 147,
		"time_elapsed": 395710,
		"internal_node_id": "0.0-3.0-1.110"
	},
	{
		"rt": 1333,
		"stimulus": "<span style=\"font-size:30px; font-family: monospace\">comida</span>",
		"response": " ",
		"trial": "exp-sent",
		"word": "comida",
		"trial_type": "html-keyboard-response",
		"trial_index": 148,
		"time_elapsed": 397294,
		"internal_node_id": "0.0-3.0-1.111"
	},
	{
		"rt": 1349,
		"stimulus": "<span style=\"font-size:30px; font-family: monospace\">natural</span>",
		"response": " ",
		"trial": "exp-sent",
		"word": "natural",
		"trial_type": "html-keyboard-response",
		"trial_index": 149,
		"time_elapsed": 398894,
		"internal_node_id": "0.0-3.0-1.112"
	},
	{
		"rt": 1445,
		"stimulus": "<span style=\"font-size:30px; font-family: monospace\">no</span>",
		"response": " ",
		"trial": "exp-sent",
		"word": "no",
		"trial_type": "html-keyboard-response",
		"trial_index": 150,
		"time_elapsed": 400590,
		"internal_node_id": "0.0-3.0-1.113"
	},
	{
		"rt": 1718,
		"stimulus": "<span style=\"font-size:30px; font-family: monospace\">almoço.</span>",
		"response": " ",
		"trial": "comp",
		"word": "almoço.",
		"trial_type": "html-keyboard-response",
		"trial_index": 151,
		"time_elapsed": 402558,
		"internal_node_id": "0.0-3.0-1.114"
	},
	{
		"rt": 26484,
		"stimulus": "<span style=\"font-size:30px; font-family: monospace\">Ela gosta de comida natural no almoço?</span>",
		"response": "s",
		"question": "Ela gosta de comida natural no almoço?",
		"answer": "sim",
		"trial": "comp",
		"trial_type": "html-keyboard-response",
		"trial_index": 152,
		"time_elapsed": 429294,
		"internal_node_id": "0.0-3.0-2.114-0.114",
		"accuracy": false
	},
	{
		"rt": null,
		"stimulus": "<span style= \"font-size:30px; font-family: monospace\">+</span>",
		"response": null,
		"trial_part": "fixation",
		"trial_type": "html-keyboard-response",
		"trial_index": 153,
		"time_elapsed": 430796,
		"internal_node_id": "0.0-3.0-0.115-0.115"
	},
	{
		"rt": 1478,
		"stimulus": "<span style=\"font-size:30px; font-family: monospace\">Ele</span>",
		"response": " ",
		"trial": "exp-sent",
		"word": "Ele",
		"trial_type": "html-keyboard-response",
		"trial_index": 154,
		"time_elapsed": 432525,
		"internal_node_id": "0.0-3.0-1.115"
	},
	{
		"rt": 1413,
		"stimulus": "<span style=\"font-size:30px; font-family: monospace\">é</span>",
		"response": " ",
		"trial": "exp-sent",
		"word": "é",
		"trial_type": "html-keyboard-response",
		"trial_index": 155,
		"time_elapsed": 434189,
		"internal_node_id": "0.0-3.0-1.116"
	},
	{
		"rt": 1476,
		"stimulus": "<span style=\"font-size:30px; font-family: monospace\">um</span>",
		"response": " ",
		"trial": "exp-sent",
		"word": "um",
		"trial_type": "html-keyboard-response",
		"trial_index": 156,
		"time_elapsed": 435917,
		"internal_node_id": "0.0-3.0-1.117"
	},
	{
		"rt": 1796,
		"stimulus": "<span style=\"font-size:30px; font-family: monospace\">pai</span>",
		"response": " ",
		"trial": "exp-sent",
		"word": "pai",
		"trial_type": "html-keyboard-response",
		"trial_index": 157,
		"time_elapsed": 437965,
		"internal_node_id": "0.0-3.0-1.118"
	},
	{
		"rt": 1348,
		"stimulus": "<span style=\"font-size:30px; font-family: monospace\">ausente</span>",
		"response": " ",
		"trial": "exp-sent",
		"word": "ausente",
		"trial_type": "html-keyboard-response",
		"trial_index": 158,
		"time_elapsed": 439565,
		"internal_node_id": "0.0-3.0-1.119"
	},
	{
		"rt": 1413,
		"stimulus": "<span style=\"font-size:30px; font-family: monospace\">e</span>",
		"response": " ",
		"trial": "exp-sent",
		"word": "e",
		"trial_type": "html-keyboard-response",
		"trial_index": 159,
		"time_elapsed": 441229,
		"internal_node_id": "0.0-3.0-1.120"
	},
	{
		"rt": 1428,
		"stimulus": "<span style=\"font-size:30px; font-family: monospace\">muito</span>",
		"response": " ",
		"trial": "exp-sent",
		"word": "muito",
		"trial_type": "html-keyboard-response",
		"trial_index": 160,
		"time_elapsed": 442909,
		"internal_node_id": "0.0-3.0-1.121"
	},
	{
		"rt": 1845,
		"stimulus": "<span style=\"font-size:30px; font-family: monospace\">fofoqueiro.</span>",
		"response": " ",
		"trial": "exp-sent",
		"word": "fofoqueiro.",
		"trial_type": "html-keyboard-response",
		"trial_index": 161,
		"time_elapsed": 445005,
		"internal_node_id": "0.0-3.0-1.122"
	},
	{
		"rt": null,
		"stimulus": "<span style= \"font-size:30px; font-family: monospace\">+</span>",
		"response": null,
		"trial_part": "fixation",
		"trial_type": "html-keyboard-response",
		"trial_index": 162,
		"time_elapsed": 446258,
		"internal_node_id": "0.0-3.0-0.123-0.123"
	},
	{
		"rt": 401,
		"stimulus": "<span style=\"font-size:30px; font-family: monospace\">O</span>",
		"response": " ",
		"trial": "exp-sent",
		"word": "O",
		"trial_type": "html-keyboard-response",
		"trial_index": 163,
		"time_elapsed": 446909,
		"internal_node_id": "0.0-3.0-1.123"
	},
	{
		"rt": 1076,
		"stimulus": "<span style=\"font-size:30px; font-family: monospace\">filho</span>",
		"response": " ",
		"trial": "exp-sent",
		"word": "filho",
		"trial_type": "html-keyboard-response",
		"trial_index": 164,
		"time_elapsed": 448237,
		"internal_node_id": "0.0-3.0-1.124"
	},
	{
		"rt": 1605,
		"stimulus": "<span style=\"font-size:30px; font-family: monospace\">lavou</span>",
		"response": " ",
		"trial": "exp-sent",
		"word": "lavou",
		"trial_type": "html-keyboard-response",
		"trial_index": 165,
		"time_elapsed": 450093,
		"internal_node_id": "0.0-3.0-1.125"
	},
	{
		"rt": 1689,
		"stimulus": "<span style=\"font-size:30px; font-family: monospace\">a</span>",
		"response": " ",
		"trial": "exp-sent",
		"word": "a",
		"trial_type": "html-keyboard-response",
		"trial_index": 166,
		"time_elapsed": 452045,
		"internal_node_id": "0.0-3.0-1.126"
	},
	{
		"rt": 997,
		"stimulus": "<span style=\"font-size:30px; font-family: monospace\">roupa</span>",
		"response": " ",
		"trial": "exp-sent",
		"word": "roupa",
		"trial_type": "html-keyboard-response",
		"trial_index": 167,
		"time_elapsed": 453293,
		"internal_node_id": "0.0-3.0-1.127"
	},
	{
		"rt": 1638,
		"stimulus": "<span style=\"font-size:30px; font-family: monospace\">sem</span>",
		"response": " ",
		"trial": "exp-sent",
		"word": "sem",
		"trial_type": "html-keyboard-response",
		"trial_index": 168,
		"time_elapsed": 455181,
		"internal_node_id": "0.0-3.0-1.128"
	},
	{
		"rt": 1605,
		"stimulus": "<span style=\"font-size:30px; font-family: monospace\">nenhuma</span>",
		"response": " ",
		"trial": "exp-sent",
		"word": "nenhuma",
		"trial_type": "html-keyboard-response",
		"trial_index": 169,
		"time_elapsed": 457037,
		"internal_node_id": "0.0-3.0-1.129"
	},
	{
		"rt": 1589,
		"stimulus": "<span style=\"font-size:30px; font-family: monospace\">ajuda.</span>",
		"response": " ",
		"trial": "exp-sent",
		"word": "ajuda.",
		"trial_type": "html-keyboard-response",
		"trial_index": 170,
		"time_elapsed": 458877,
		"internal_node_id": "0.0-3.0-1.130"
	},
	{
		"rt": null,
		"stimulus": "<span style= \"font-size:30px; font-family: monospace\">+</span>",
		"response": null,
		"trial_part": "fixation",
		"trial_type": "html-keyboard-response",
		"trial_index": 171,
		"time_elapsed": 460128,
		"internal_node_id": "0.0-3.0-0.131-0.131"
	},
	{
		"rt": 34,
		"stimulus": "<span style=\"font-size:30px; font-family: monospace\">O</span>",
		"response": " ",
		"trial": "exp-sent",
		"word": "O",
		"trial_type": "html-keyboard-response",
		"trial_index": 172,
		"time_elapsed": 460413,
		"internal_node_id": "0.0-3.0-1.131"
	},
	{
		"rt": 1541,
		"stimulus": "<span style=\"font-size:30px; font-family: monospace\">menino</span>",
		"response": " ",
		"trial": "exp-sent",
		"word": "menino",
		"trial_type": "html-keyboard-response",
		"trial_index": 173,
		"time_elapsed": 462205,
		"internal_node_id": "0.0-3.0-1.132"
	},
	{
		"rt": 1526,
		"stimulus": "<span style=\"font-size:30px; font-family: monospace\">quebrou</span>",
		"response": " ",
		"trial": "exp-sent",
		"word": "quebrou",
		"trial_type": "html-keyboard-response",
		"trial_index": 174,
		"time_elapsed": 463981,
		"internal_node_id": "0.0-3.0-1.133"
	},
	{
		"rt": 1061,
		"stimulus": "<span style=\"font-size:30px; font-family: monospace\">a</span>",
		"response": " ",
		"trial": "exp-sent",
		"word": "a",
		"trial_type": "html-keyboard-response",
		"trial_index": 175,
		"time_elapsed": 465293,
		"internal_node_id": "0.0-3.0-1.134"
	},
	{
		"rt": 1381,
		"stimulus": "<span style=\"font-size:30px; font-family: monospace\">perna</span>",
		"response": " ",
		"trial": "exp-sent",
		"word": "perna",
		"trial_type": "html-keyboard-response",
		"trial_index": 176,
		"time_elapsed": 466925,
		"internal_node_id": "0.0-3.0-1.135"
	},
	{
		"rt": 869,
		"stimulus": "<span style=\"font-size:30px; font-family: monospace\">nos</span>",
		"response": " ",
		"trial": "exp-sent",
		"word": "nos",
		"trial_type": "html-keyboard-response",
		"trial_index": 177,
		"time_elapsed": 468045,
		"internal_node_id": "0.0-3.0-1.136"
	},
	{
		"rt": 1157,
		"stimulus": "<span style=\"font-size:30px; font-family: monospace\">esportes.</span>",
		"response": " ",
		"trial": "exp-sent",
		"word": "esportes.",
		"trial_type": "html-keyboard-response",
		"trial_index": 178,
		"time_elapsed": 469453,
		"internal_node_id": "0.0-3.0-1.137"
	},
	{
		"rt": null,
		"stimulus": "<span style= \"font-size:30px; font-family: monospace\">+</span>",
		"response": null,
		"trial_part": "fixation",
		"trial_type": "html-keyboard-response",
		"trial_index": 179,
		"time_elapsed": 470705,
		"internal_node_id": "0.0-3.0-0.138-0.138"
	},
	{
		"rt": 1905,
		"stimulus": "<span style=\"font-size:30px; font-family: monospace\">Ela</span>",
		"response": " ",
		"trial": "exp-sent",
		"word": "Ela",
		"trial_type": "html-keyboard-response",
		"trial_index": 180,
		"time_elapsed": 472861,
		"internal_node_id": "0.0-3.0-1.138"
	},
	{
		"rt": 1173,
		"stimulus": "<span style=\"font-size:30px; font-family: monospace\">brincou</span>",
		"response": " ",
		"trial": "exp-sent",
		"word": "brincou",
		"trial_type": "html-keyboard-response",
		"trial_index": 181,
		"time_elapsed": 474285,
		"internal_node_id": "0.0-3.0-1.139"
	},
	{
		"rt": 1909,
		"stimulus": "<span style=\"font-size:30px; font-family: monospace\">com</span>",
		"response": " ",
		"trial": "exp-sent",
		"word": "com",
		"trial_type": "html-keyboard-response",
		"trial_index": 182,
		"time_elapsed": 476445,
		"internal_node_id": "0.0-3.0-1.140"
	},
	{
		"rt": 725,
		"stimulus": "<span style=\"font-size:30px; font-family: monospace\">uma</span>",
		"response": " ",
		"trial": "exp-sent",
		"word": "uma",
		"trial_type": "html-keyboard-response",
		"trial_index": 183,
		"time_elapsed": 477421,
		"internal_node_id": "0.0-3.0-1.141"
	},
	{
		"rt": 1477,
		"stimulus": "<span style=\"font-size:30px; font-family: monospace\">menina</span>",
		"response": " ",
		"trial": "exp-sent",
		"word": "menina",
		"trial_type": "html-keyboard-response",
		"trial_index": 184,
		"time_elapsed": 479149,
		"internal_node_id": "0.0-3.0-1.142"
	},
	{
		"rt": 1893,
		"stimulus": "<span style=\"font-size:30px; font-family: monospace\">da</span>",
		"response": " ",
		"trial": "exp-sent",
		"word": "da",
		"trial_type": "html-keyboard-response",
		"trial_index": 185,
		"time_elapsed": 481293,
		"internal_node_id": "0.0-3.0-1.143"
	},
	{
		"rt": 837,
		"stimulus": "<span style=\"font-size:30px; font-family: monospace\">turma.</span>",
		"response": " ",
		"trial": "exp-sent",
		"word": "turma.",
		"trial_type": "html-keyboard-response",
		"trial_index": 186,
		"time_elapsed": 482381,
		"internal_node_id": "0.0-3.0-1.144"
	},
	{
		"rt": null,
		"stimulus": "<span style= \"font-size:30px; font-family: monospace\">+</span>",
		"response": null,
		"trial_part": "fixation",
		"trial_type": "html-keyboard-response",
		"trial_index": 187,
		"time_elapsed": 483633,
		"internal_node_id": "0.0-3.0-0.145-0.145"
	},
	{
		"rt": 484,
		"stimulus": "<span style=\"font-size:30px; font-family: monospace\">Ele</span>",
		"response": " ",
		"trial": "exp-sent",
		"word": "Ele",
		"trial_type": "html-keyboard-response",
		"trial_index": 188,
		"time_elapsed": 484381,
		"internal_node_id": "0.0-3.0-1.145"
	},
	{
		"rt": 1012,
		"stimulus": "<span style=\"font-size:30px; font-family: monospace\">esteve</span>",
		"response": " ",
		"trial": "exp-sent",
		"word": "esteve",
		"trial_type": "html-keyboard-response",
		"trial_index": 189,
		"time_elapsed": 485645,
		"internal_node_id": "0.0-3.0-1.146"
	},
	{
		"rt": 1317,
		"stimulus": "<span style=\"font-size:30px; font-family: monospace\">no</span>",
		"response": " ",
		"trial": "exp-sent",
		"word": "no",
		"trial_type": "html-keyboard-response",
		"trial_index": 190,
		"time_elapsed": 487213,
		"internal_node_id": "0.0-3.0-1.147"
	},
	{
		"rt": 1685,
		"stimulus": "<span style=\"font-size:30px; font-family: monospace\">escritório</span>",
		"response": " ",
		"trial": "exp-sent",
		"word": "escritório",
		"trial_type": "html-keyboard-response",
		"trial_index": 191,
		"time_elapsed": 489149,
		"internal_node_id": "0.0-3.0-1.148"
	},
	{
		"rt": 1445,
		"stimulus": "<span style=\"font-size:30px; font-family: monospace\">o</span>",
		"response": " ",
		"trial": "exp-sent",
		"word": "o",
		"trial_type": "html-keyboard-response",
		"trial_index": 192,
		"time_elapsed": 490845,
		"internal_node_id": "0.0-3.0-1.149"
	},
	{
		"rt": 836,
		"stimulus": "<span style=\"font-size:30px; font-family: monospace\">dia</span>",
		"response": " ",
		"trial": "exp-sent",
		"word": "dia",
		"trial_type": "html-keyboard-response",
		"trial_index": 193,
		"time_elapsed": 491933,
		"internal_node_id": "0.0-3.0-1.150"
	},
	{
		"rt": 1301,
		"stimulus": "<span style=\"font-size:30px; font-family: monospace\">inteiro.</span>",
		"response": " ",
		"trial": "comp",
		"word": "inteiro.",
		"trial_type": "html-keyboard-response",
		"trial_index": 194,
		"time_elapsed": 493485,
		"internal_node_id": "0.0-3.0-1.151"
	},
	{
		"rt": 19749,
		"stimulus": "<span style=\"font-size:30px; font-family: monospace\">Ele esteve no parque o dia inteiro?</span>",
		"response": "n",
		"question": "Ele esteve no parque o dia inteiro?",
		"answer": "não",
		"trial": "comp",
		"trial_type": "html-keyboard-response",
		"trial_index": 195,
		"time_elapsed": 513485,
		"internal_node_id": "0.0-3.0-2.151-0.151",
		"accuracy": false
	},
	{
		"rt": null,
		"stimulus": "<span style= \"font-size:30px; font-family: monospace\">+</span>",
		"response": null,
		"trial_part": "fixation",
		"trial_type": "html-keyboard-response",
		"trial_index": 196,
		"time_elapsed": 514986,
		"internal_node_id": "0.0-3.0-0.152-0.152"
	},
	{
		"rt": 775,
		"stimulus": "<span style=\"font-size:30px; font-family: monospace\">Eu</span>",
		"response": " ",
		"trial": "exp-sent",
		"word": "Eu",
		"trial_type": "html-keyboard-response",
		"trial_index": 197,
		"time_elapsed": 516012,
		"internal_node_id": "0.0-3.0-1.152"
	},
	{
		"rt": 1749,
		"stimulus": "<span style=\"font-size:30px; font-family: monospace\">gosto</span>",
		"response": " ",
		"trial": "exp-sent",
		"word": "gosto",
		"trial_type": "html-keyboard-response",
		"trial_index": 198,
		"time_elapsed": 518013,
		"internal_node_id": "0.0-3.0-1.153"
	},
	{
		"rt": 934,
		"stimulus": "<span style=\"font-size:30px; font-family: monospace\">de</span>",
		"response": " ",
		"trial": "exp-sent",
		"word": "de",
		"trial_type": "html-keyboard-response",
		"trial_index": 199,
		"time_elapsed": 519197,
		"internal_node_id": "0.0-3.0-1.154"
	},
	{
		"rt": 1589,
		"stimulus": "<span style=\"font-size:30px; font-family: monospace\">molho</span>",
		"response": " ",
		"trial": "exp-sent",
		"word": "molho",
		"trial_type": "html-keyboard-response",
		"trial_index": 200,
		"time_elapsed": 521037,
		"internal_node_id": "0.0-3.0-1.155"
	},
	{
		"rt": 934,
		"stimulus": "<span style=\"font-size:30px; font-family: monospace\">picante</span>",
		"response": " ",
		"trial": "exp-sent",
		"word": "picante",
		"trial_type": "html-keyboard-response",
		"trial_index": 201,
		"time_elapsed": 522221,
		"internal_node_id": "0.0-3.0-1.156"
	},
	{
		"rt": 1717,
		"stimulus": "<span style=\"font-size:30px; font-family: monospace\">nas</span>",
		"response": " ",
		"trial": "exp-sent",
		"word": "nas",
		"trial_type": "html-keyboard-response",
		"trial_index": 202,
		"time_elapsed": 524189,
		"internal_node_id": "0.0-3.0-1.157"
	},
	{
		"rt": 1158,
		"stimulus": "<span style=\"font-size:30px; font-family: monospace\">batatas.</span>",
		"response": " ",
		"trial": "exp-sent",
		"word": "batatas.",
		"trial_type": "html-keyboard-response",
		"trial_index": 203,
		"time_elapsed": 525597,
		"internal_node_id": "0.0-3.0-1.158"
	},
	{
		"rt": null,
		"stimulus": "<span style= \"font-size:30px; font-family: monospace\">+</span>",
		"response": null,
		"trial_part": "fixation",
		"trial_type": "html-keyboard-response",
		"trial_index": 204,
		"time_elapsed": 526850,
		"internal_node_id": "0.0-3.0-0.159-0.159"
	},
	{
		"rt": 575,
		"stimulus": "<span style=\"font-size:30px; font-family: monospace\">As</span>",
		"response": " ",
		"trial": "exp-sent",
		"word": "As",
		"trial_type": "html-keyboard-response",
		"trial_index": 205,
		"time_elapsed": 527677,
		"internal_node_id": "0.0-3.0-1.159"
	},
	{
		"rt": 1317,
		"stimulus": "<span style=\"font-size:30px; font-family: monospace\">pessoas</span>",
		"response": " ",
		"trial": "exp-sent",
		"word": "pessoas",
		"trial_type": "html-keyboard-response",
		"trial_index": 206,
		"time_elapsed": 529245,
		"internal_node_id": "0.0-3.0-1.160"
	},
	{
		"rt": 1108,
		"stimulus": "<span style=\"font-size:30px; font-family: monospace\">têm</span>",
		"response": " ",
		"trial": "exp-sent",
		"word": "têm",
		"trial_type": "html-keyboard-response",
		"trial_index": 207,
		"time_elapsed": 530605,
		"internal_node_id": "0.0-3.0-1.161"
	},
	{
		"rt": 1317,
		"stimulus": "<span style=\"font-size:30px; font-family: monospace\">sua</span>",
		"response": " ",
		"trial": "exp-sent",
		"word": "sua",
		"trial_type": "html-keyboard-response",
		"trial_index": 208,
		"time_elapsed": 532173,
		"internal_node_id": "0.0-3.0-1.162"
	},
	{
		"rt": 1748,
		"stimulus": "<span style=\"font-size:30px; font-family: monospace\">liberdade</span>",
		"response": " ",
		"trial": "exp-sent",
		"word": "liberdade",
		"trial_type": "html-keyboard-response",
		"trial_index": 209,
		"time_elapsed": 534173,
		"internal_node_id": "0.0-3.0-1.163"
	},
	{
		"rt": 1717,
		"stimulus": "<span style=\"font-size:30px; font-family: monospace\">até</span>",
		"response": " ",
		"trial": "exp-sent",
		"word": "até",
		"trial_type": "html-keyboard-response",
		"trial_index": 210,
		"time_elapsed": 536141,
		"internal_node_id": "0.0-3.0-1.164"
	},
	{
		"rt": 1268,
		"stimulus": "<span style=\"font-size:30px; font-family: monospace\">certo</span>",
		"response": " ",
		"trial": "exp-sent",
		"word": "certo",
		"trial_type": "html-keyboard-response",
		"trial_index": 211,
		"time_elapsed": 537661,
		"internal_node_id": "0.0-3.0-1.165"
	},
	{
		"rt": 1604,
		"stimulus": "<span style=\"font-size:30px; font-family: monospace\">ponto.</span>",
		"response": " ",
		"trial": "exp-sent",
		"word": "ponto.",
		"trial_type": "html-keyboard-response",
		"trial_index": 212,
		"time_elapsed": 539517,
		"internal_node_id": "0.0-3.0-1.166"
	},
	{
		"rt": null,
		"stimulus": "<span style= \"font-size:30px; font-family: monospace\">+</span>",
		"response": null,
		"trial_part": "fixation",
		"trial_type": "html-keyboard-response",
		"trial_index": 213,
		"time_elapsed": 540768,
		"internal_node_id": "0.0-3.0-0.167-0.167"
	},
	{
		"rt": 514,
		"stimulus": "<span style=\"font-size:30px; font-family: monospace\">A</span>",
		"response": " ",
		"trial": "exp-sent",
		"word": "A",
		"trial_type": "html-keyboard-response",
		"trial_index": 214,
		"time_elapsed": 541532,
		"internal_node_id": "0.0-3.0-1.167"
	},
	{
		"rt": 1718,
		"stimulus": "<span style=\"font-size:30px; font-family: monospace\">empresa</span>",
		"response": " ",
		"trial": "exp-sent",
		"word": "empresa",
		"trial_type": "html-keyboard-response",
		"trial_index": 215,
		"time_elapsed": 543501,
		"internal_node_id": "0.0-3.0-1.168"
	},
	{
		"rt": 6852,
		"stimulus": "<span style=\"font-size:30px; font-family: monospace\">enviou</span>",
		"response": " ",
		"trial": "exp-sent",
		"word": "enviou",
		"trial_type": "html-keyboard-response",
		"trial_index": 216,
		"time_elapsed": 550605,
		"internal_node_id": "0.0-3.0-1.169"
	},
	{
		"rt": 7509,
		"stimulus": "<span style=\"font-size:30px; font-family: monospace\">o</span>",
		"response": " ",
		"trial": "exp-sent",
		"word": "o",
		"trial_type": "html-keyboard-response",
		"trial_index": 217,
		"time_elapsed": 558364,
		"internal_node_id": "0.0-3.0-1.170"
	},
	{
		"rt": 2229,
		"stimulus": "<span style=\"font-size:30px; font-family: monospace\">aviso</span>",
		"response": " ",
		"trial": "exp-sent",
		"word": "aviso",
		"trial_type": "html-keyboard-response",
		"trial_index": 218,
		"time_elapsed": 560844,
		"internal_node_id": "0.0-3.0-1.171"
	},
	{
		"rt": 1236,
		"stimulus": "<span style=\"font-size:30px; font-family: monospace\">hoje</span>",
		"response": " ",
		"trial": "exp-sent",
		"word": "hoje",
		"trial_type": "html-keyboard-response",
		"trial_index": 219,
		"time_elapsed": 562332,
		"internal_node_id": "0.0-3.0-1.172"
	},
	{
		"rt": 1253,
		"stimulus": "<span style=\"font-size:30px; font-family: monospace\">de</span>",
		"response": " ",
		"trial": "exp-sent",
		"word": "de",
		"trial_type": "html-keyboard-response",
		"trial_index": 220,
		"time_elapsed": 563836,
		"internal_node_id": "0.0-3.0-1.173"
	},
	{
		"rt": 1317,
		"stimulus": "<span style=\"font-size:30px; font-family: monospace\">tarde.</span>",
		"response": " ",
		"trial": "exp-sent",
		"word": "tarde.",
		"trial_type": "html-keyboard-response",
		"trial_index": 221,
		"time_elapsed": 565404,
		"internal_node_id": "0.0-3.0-1.174"
	},
	{
		"rt": null,
		"stimulus": "<span style= \"font-size:30px; font-family: monospace\">+</span>",
		"response": null,
		"trial_part": "fixation",
		"trial_type": "html-keyboard-response",
		"trial_index": 222,
		"time_elapsed": 566656,
		"internal_node_id": "0.0-3.0-0.175-0.175"
	},
	{
		"rt": 578,
		"stimulus": "<span style=\"font-size:30px; font-family: monospace\">A</span>",
		"response": " ",
		"trial": "exp-sent",
		"word": "A",
		"trial_type": "html-keyboard-response",
		"trial_index": 223,
		"time_elapsed": 567484,
		"internal_node_id": "0.0-3.0-1.175"
	},
	{
		"rt": 1125,
		"stimulus": "<span style=\"font-size:30px; font-family: monospace\">loja</span>",
		"response": " ",
		"trial": "exp-sent",
		"word": "loja",
		"trial_type": "html-keyboard-response",
		"trial_index": 224,
		"time_elapsed": 568860,
		"internal_node_id": "0.0-3.0-1.176"
	},
	{
		"rt": 1349,
		"stimulus": "<span style=\"font-size:30px; font-family: monospace\">vende</span>",
		"response": " ",
		"trial": "exp-sent",
		"word": "vende",
		"trial_type": "html-keyboard-response",
		"trial_index": 225,
		"time_elapsed": 570460,
		"internal_node_id": "0.0-3.0-1.177"
	},
	{
		"rt": 1829,
		"stimulus": "<span style=\"font-size:30px; font-family: monospace\">tanto</span>",
		"response": " ",
		"trial": "exp-sent",
		"word": "tanto",
		"trial_type": "html-keyboard-response",
		"trial_index": 226,
		"time_elapsed": 572540,
		"internal_node_id": "0.0-3.0-1.178"
	},
	{
		"rt": 996,
		"stimulus": "<span style=\"font-size:30px; font-family: monospace\">frituras</span>",
		"response": " ",
		"trial": "exp-sent",
		"word": "frituras",
		"trial_type": "html-keyboard-response",
		"trial_index": 227,
		"time_elapsed": 573788,
		"internal_node_id": "0.0-3.0-1.179"
	},
	{
		"rt": 1477,
		"stimulus": "<span style=\"font-size:30px; font-family: monospace\">quanto</span>",
		"response": " ",
		"trial": "exp-sent",
		"word": "quanto",
		"trial_type": "html-keyboard-response",
		"trial_index": 228,
		"time_elapsed": 575516,
		"internal_node_id": "0.0-3.0-1.180"
	},
	{
		"rt": 1381,
		"stimulus": "<span style=\"font-size:30px; font-family: monospace\">comidas</span>",
		"response": " ",
		"trial": "exp-sent",
		"word": "comidas",
		"trial_type": "html-keyboard-response",
		"trial_index": 229,
		"time_elapsed": 577148,
		"internal_node_id": "0.0-3.0-1.181"
	},
	{
		"rt": 1557,
		"stimulus": "<span style=\"font-size:30px; font-family: monospace\">leves.</span>",
		"response": " ",
		"trial": "exp-sent",
		"word": "leves.",
		"trial_type": "html-keyboard-response",
		"trial_index": 230,
		"time_elapsed": 578956,
		"internal_node_id": "0.0-3.0-1.182"
	},
	{
		"rt": null,
		"stimulus": "<span style= \"font-size:30px; font-family: monospace\">+</span>",
		"response": null,
		"trial_part": "fixation",
		"trial_type": "html-keyboard-response",
		"trial_index": 231,
		"time_elapsed": 580209,
		"internal_node_id": "0.0-3.0-0.183-0.183"
	},
	{
		"rt": 289,
		"stimulus": "<span style=\"font-size:30px; font-family: monospace\">As</span>",
		"response": " ",
		"trial": "exp-sent",
		"word": "As",
		"trial_type": "html-keyboard-response",
		"trial_index": 232,
		"time_elapsed": 580748,
		"internal_node_id": "0.0-3.0-1.183"
	},
	{
		"rt": 1525,
		"stimulus": "<span style=\"font-size:30px; font-family: monospace\">cadeiras</span>",
		"response": " ",
		"trial": "exp-sent",
		"word": "cadeiras",
		"trial_type": "html-keyboard-response",
		"trial_index": 233,
		"time_elapsed": 582524,
		"internal_node_id": "0.0-3.0-1.184"
	},
	{
		"rt": 2006,
		"stimulus": "<span style=\"font-size:30px; font-family: monospace\">azuis</span>",
		"response": " ",
		"trial": "exp-sent",
		"word": "azuis",
		"trial_type": "html-keyboard-response",
		"trial_index": 234,
		"time_elapsed": 584780,
		"internal_node_id": "0.0-3.0-1.185"
	},
	{
		"rt": 900,
		"stimulus": "<span style=\"font-size:30px; font-family: monospace\">da</span>",
		"response": " ",
		"trial": "exp-sent",
		"word": "da",
		"trial_type": "html-keyboard-response",
		"trial_index": 235,
		"time_elapsed": 585932,
		"internal_node_id": "0.0-3.0-1.186"
	},
	{
		"rt": 1861,
		"stimulus": "<span style=\"font-size:30px; font-family: monospace\">sala</span>",
		"response": " ",
		"trial": "exp-sent",
		"word": "sala",
		"trial_type": "html-keyboard-response",
		"trial_index": 236,
		"time_elapsed": 588044,
		"internal_node_id": "0.0-3.0-1.187"
	},
	{
		"rt": 2117,
		"stimulus": "<span style=\"font-size:30px; font-family: monospace\">eram</span>",
		"response": " ",
		"trial": "exp-sent",
		"word": "eram",
		"trial_type": "html-keyboard-response",
		"trial_index": 237,
		"time_elapsed": 590412,
		"internal_node_id": "0.0-3.0-1.188"
	},
	{
		"rt": 2341,
		"stimulus": "<span style=\"font-size:30px; font-family: monospace\">da</span>",
		"response": " ",
		"trial": "exp-sent",
		"word": "da",
		"trial_type": "html-keyboard-response",
		"trial_index": 238,
		"time_elapsed": 593004,
		"internal_node_id": "0.0-3.0-1.189"
	},
	{
		"rt": 2468,
		"stimulus": "<span style=\"font-size:30px; font-family: monospace\">minha</span>",
		"response": " ",
		"trial": "exp-sent",
		"word": "minha",
		"trial_type": "html-keyboard-response",
		"trial_index": 239,
		"time_elapsed": 595724,
		"internal_node_id": "0.0-3.0-1.190"
	},
	{
		"rt": 2293,
		"stimulus": "<span style=\"font-size:30px; font-family: monospace\">vó.</span>",
		"response": " ",
		"trial": "comp",
		"word": "vó.",
		"trial_type": "html-keyboard-response",
		"trial_index": 240,
		"time_elapsed": 598268,
		"internal_node_id": "0.0-3.0-1.191"
	},
	{
		"rt": 16022,
		"stimulus": "<span style=\"font-size:30px; font-family: monospace\">As cadeiras eram da avó?</span>",
		"response": "n",
		"question": "As cadeiras eram da avó?",
		"answer": "sim",
		"trial": "comp",
		"trial_type": "html-keyboard-response",
		"trial_index": 241,
		"time_elapsed": 614540,
		"internal_node_id": "0.0-3.0-2.191-0.191",
		"accuracy": false
	},
	{
		"rt": null,
		"stimulus": "<span style= \"font-size:30px; font-family: monospace\">+</span>",
		"response": null,
		"trial_part": "fixation",
		"trial_type": "html-keyboard-response",
		"trial_index": 242,
		"time_elapsed": 616043,
		"internal_node_id": "0.0-3.0-0.192-0.192"
	},
	{
		"rt": 1670,
		"stimulus": "<span style=\"font-size:30px; font-family: monospace\">Preciso</span>",
		"response": " ",
		"trial": "exp-sent",
		"word": "Preciso",
		"trial_type": "html-keyboard-response",
		"trial_index": 243,
		"time_elapsed": 617964,
		"internal_node_id": "0.0-3.0-1.192"
	},
	{
		"rt": 1428,
		"stimulus": "<span style=\"font-size:30px; font-family: monospace\">de</span>",
		"response": " ",
		"trial": "exp-sent",
		"word": "de",
		"trial_type": "html-keyboard-response",
		"trial_index": 244,
		"time_elapsed": 619645,
		"internal_node_id": "0.0-3.0-1.193"
	},
	{
		"rt": 1542,
		"stimulus": "<span style=\"font-size:30px; font-family: monospace\">um</span>",
		"response": " ",
		"trial": "exp-sent",
		"word": "um",
		"trial_type": "html-keyboard-response",
		"trial_index": 245,
		"time_elapsed": 621436,
		"internal_node_id": "0.0-3.0-1.194"
	},
	{
		"rt": 1621,
		"stimulus": "<span style=\"font-size:30px; font-family: monospace\">relatório</span>",
		"response": " ",
		"trial": "exp-sent",
		"word": "relatório",
		"trial_type": "html-keyboard-response",
		"trial_index": 246,
		"time_elapsed": 623309,
		"internal_node_id": "0.0-3.0-1.195"
	},
	{
		"rt": 1749,
		"stimulus": "<span style=\"font-size:30px; font-family: monospace\">oficial</span>",
		"response": " ",
		"trial": "exp-sent",
		"word": "oficial",
		"trial_type": "html-keyboard-response",
		"trial_index": 247,
		"time_elapsed": 625309,
		"internal_node_id": "0.0-3.0-1.196"
	},
	{
		"rt": 2212,
		"stimulus": "<span style=\"font-size:30px; font-family: monospace\">para</span>",
		"response": " ",
		"trial": "exp-sent",
		"word": "para",
		"trial_type": "html-keyboard-response",
		"trial_index": 248,
		"time_elapsed": 627772,
		"internal_node_id": "0.0-3.0-1.197"
	},
	{
		"rt": 2533,
		"stimulus": "<span style=\"font-size:30px; font-family: monospace\">amanhã.</span>",
		"response": " ",
		"trial": "exp-sent",
		"word": "amanhã.",
		"trial_type": "html-keyboard-response",
		"trial_index": 249,
		"time_elapsed": 630557,
		"internal_node_id": "0.0-3.0-1.198"
	},
	{
		"rt": null,
		"stimulus": "<span style= \"font-size:30px; font-family: monospace\">+</span>",
		"response": null,
		"trial_part": "fixation",
		"trial_type": "html-keyboard-response",
		"trial_index": 250,
		"time_elapsed": 631807,
		"internal_node_id": "0.0-3.0-0.199-0.199"
	},
	{
		"rt": 1105,
		"stimulus": "<span style=\"font-size:30px; font-family: monospace\">Ele</span>",
		"response": " ",
		"trial": "exp-sent",
		"word": "Ele",
		"trial_type": "html-keyboard-response",
		"trial_index": 251,
		"time_elapsed": 633164,
		"internal_node_id": "0.0-3.0-1.199"
	},
	{
		"rt": 1781,
		"stimulus": "<span style=\"font-size:30px; font-family: monospace\">viu</span>",
		"response": " ",
		"trial": "exp-sent",
		"word": "viu",
		"trial_type": "html-keyboard-response",
		"trial_index": 252,
		"time_elapsed": 635196,
		"internal_node_id": "0.0-3.0-1.200"
	},
	{
		"rt": 1413,
		"stimulus": "<span style=\"font-size:30px; font-family: monospace\">um</span>",
		"response": " ",
		"trial": "exp-sent",
		"word": "um",
		"trial_type": "html-keyboard-response",
		"trial_index": 253,
		"time_elapsed": 636861,
		"internal_node_id": "0.0-3.0-1.201"
	},
	{
		"rt": 1317,
		"stimulus": "<span style=\"font-size:30px; font-family: monospace\">inseto</span>",
		"response": " ",
		"trial": "exp-sent",
		"word": "inseto",
		"trial_type": "html-keyboard-response",
		"trial_index": 254,
		"time_elapsed": 638428,
		"internal_node_id": "0.0-3.0-1.202"
	},
	{
		"rt": 2116,
		"stimulus": "<span style=\"font-size:30px; font-family: monospace\">marrom</span>",
		"response": " ",
		"trial": "exp-sent",
		"word": "marrom",
		"trial_type": "html-keyboard-response",
		"trial_index": 255,
		"time_elapsed": 640796,
		"internal_node_id": "0.0-3.0-1.203"
	},
	{
		"rt": 1925,
		"stimulus": "<span style=\"font-size:30px; font-family: monospace\">na</span>",
		"response": " ",
		"trial": "exp-sent",
		"word": "na",
		"trial_type": "html-keyboard-response",
		"trial_index": 256,
		"time_elapsed": 642972,
		"internal_node_id": "0.0-3.0-1.204"
	},
	{
		"rt": 1253,
		"stimulus": "<span style=\"font-size:30px; font-family: monospace\">parede.</span>",
		"response": " ",
		"trial": "exp-sent",
		"word": "parede.",
		"trial_type": "html-keyboard-response",
		"trial_index": 257,
		"time_elapsed": 644476,
		"internal_node_id": "0.0-3.0-1.205"
	},
	{
		"rt": null,
		"stimulus": "<span style= \"font-size:30px; font-family: monospace\">+</span>",
		"response": null,
		"trial_part": "fixation",
		"trial_type": "html-keyboard-response",
		"trial_index": 258,
		"time_elapsed": 645729,
		"internal_node_id": "0.0-3.0-0.206-0.206"
	},
	{
		"rt": 656,
		"stimulus": "<span style=\"font-size:30px; font-family: monospace\">O</span>",
		"response": " ",
		"trial": "exp-sent",
		"word": "O",
		"trial_type": "html-keyboard-response",
		"trial_index": 259,
		"time_elapsed": 646636,
		"internal_node_id": "0.0-3.0-1.206"
	},
	{
		"rt": 1589,
		"stimulus": "<span style=\"font-size:30px; font-family: monospace\">avô</span>",
		"response": " ",
		"trial": "exp-sent",
		"word": "avô",
		"trial_type": "html-keyboard-response",
		"trial_index": 260,
		"time_elapsed": 648476,
		"internal_node_id": "0.0-3.0-1.207"
	},
	{
		"rt": 1604,
		"stimulus": "<span style=\"font-size:30px; font-family: monospace\">fez</span>",
		"response": " ",
		"trial": "exp-sent",
		"word": "fez",
		"trial_type": "html-keyboard-response",
		"trial_index": 261,
		"time_elapsed": 650332,
		"internal_node_id": "0.0-3.0-1.208"
	},
	{
		"rt": 2037,
		"stimulus": "<span style=\"font-size:30px; font-family: monospace\">uma</span>",
		"response": " ",
		"trial": "exp-sent",
		"word": "uma",
		"trial_type": "html-keyboard-response",
		"trial_index": 262,
		"time_elapsed": 652620,
		"internal_node_id": "0.0-3.0-1.209"
	},
	{
		"rt": 581,
		"stimulus": "<span style=\"font-size:30px; font-family: monospace\">lista</span>",
		"response": " ",
		"trial": "exp-sent",
		"word": "lista",
		"trial_type": "html-keyboard-response",
		"trial_index": 263,
		"time_elapsed": 653452,
		"internal_node_id": "0.0-3.0-1.210"
	},
	{
		"rt": 1765,
		"stimulus": "<span style=\"font-size:30px; font-family: monospace\">de</span>",
		"response": " ",
		"trial": "exp-sent",
		"word": "de",
		"trial_type": "html-keyboard-response",
		"trial_index": 264,
		"time_elapsed": 655468,
		"internal_node_id": "0.0-3.0-1.211"
	},
	{
		"rt": 805,
		"stimulus": "<span style=\"font-size:30px; font-family: monospace\">compras</span>",
		"response": " ",
		"trial": "exp-sent",
		"word": "compras",
		"trial_type": "html-keyboard-response",
		"trial_index": 265,
		"time_elapsed": 656524,
		"internal_node_id": "0.0-3.0-1.212"
	},
	{
		"rt": 1604,
		"stimulus": "<span style=\"font-size:30px; font-family: monospace\">do</span>",
		"response": " ",
		"trial": "exp-sent",
		"word": "do",
		"trial_type": "html-keyboard-response",
		"trial_index": 266,
		"time_elapsed": 658380,
		"internal_node_id": "0.0-3.0-1.213"
	},
	{
		"rt": 1700,
		"stimulus": "<span style=\"font-size:30px; font-family: monospace\">mercado.</span>",
		"response": " ",
		"trial": "exp-sent",
		"word": "mercado.",
		"trial_type": "html-keyboard-response",
		"trial_index": 267,
		"time_elapsed": 660333,
		"internal_node_id": "0.0-3.0-1.214"
	},
	{
		"rt": null,
		"stimulus": "<span style= \"font-size:30px; font-family: monospace\">+</span>",
		"response": null,
		"trial_part": "fixation",
		"trial_type": "html-keyboard-response",
		"trial_index": 268,
		"time_elapsed": 661585,
		"internal_node_id": "0.0-3.0-0.215-0.215"
	},
	{
		"rt": 48,
		"stimulus": "<span style=\"font-size:30px; font-family: monospace\">As</span>",
		"response": " ",
		"trial": "exp-sent",
		"word": "As",
		"trial_type": "html-keyboard-response",
		"trial_index": 269,
		"time_elapsed": 661884,
		"internal_node_id": "0.0-3.0-1.215"
	},
	{
		"rt": 1285,
		"stimulus": "<span style=\"font-size:30px; font-family: monospace\">pessoas</span>",
		"response": " ",
		"trial": "exp-sent",
		"word": "pessoas",
		"trial_type": "html-keyboard-response",
		"trial_index": 270,
		"time_elapsed": 663420,
		"internal_node_id": "0.0-3.0-1.216"
	},
	{
		"rt": 1861,
		"stimulus": "<span style=\"font-size:30px; font-family: monospace\">não</span>",
		"response": " ",
		"trial": "exp-sent",
		"word": "não",
		"trial_type": "html-keyboard-response",
		"trial_index": 271,
		"time_elapsed": 665532,
		"internal_node_id": "0.0-3.0-1.217"
	},
	{
		"rt": 965,
		"stimulus": "<span style=\"font-size:30px; font-family: monospace\">enviam</span>",
		"response": " ",
		"trial": "exp-sent",
		"word": "enviam",
		"trial_type": "html-keyboard-response",
		"trial_index": 272,
		"time_elapsed": 666748,
		"internal_node_id": "0.0-3.0-1.218"
	},
	{
		"rt": 1542,
		"stimulus": "<span style=\"font-size:30px; font-family: monospace\">telegrama</span>",
		"response": " ",
		"trial": "exp-sent",
		"word": "telegrama",
		"trial_type": "html-keyboard-response",
		"trial_index": 273,
		"time_elapsed": 668540,
		"internal_node_id": "0.0-3.0-1.219"
	},
	{
		"rt": 2021,
		"stimulus": "<span style=\"font-size:30px; font-family: monospace\">nos</span>",
		"response": " ",
		"trial": "exp-sent",
		"word": "nos",
		"trial_type": "html-keyboard-response",
		"trial_index": 274,
		"time_elapsed": 670812,
		"internal_node_id": "0.0-3.0-1.220"
	},
	{
		"rt": 1429,
		"stimulus": "<span style=\"font-size:30px; font-family: monospace\">dias</span>",
		"response": " ",
		"trial": "exp-sent",
		"word": "dias",
		"trial_type": "html-keyboard-response",
		"trial_index": 275,
		"time_elapsed": 672492,
		"internal_node_id": "0.0-3.0-1.221"
	},
	{
		"rt": 1269,
		"stimulus": "<span style=\"font-size:30px; font-family: monospace\">de</span>",
		"response": " ",
		"trial": "exp-sent",
		"word": "de",
		"trial_type": "html-keyboard-response",
		"trial_index": 276,
		"time_elapsed": 674012,
		"internal_node_id": "0.0-3.0-1.222"
	},
	{
		"rt": 1317,
		"stimulus": "<span style=\"font-size:30px; font-family: monospace\">hoje.</span>",
		"response": " ",
		"trial": "exp-sent",
		"word": "hoje.",
		"trial_type": "html-keyboard-response",
		"trial_index": 277,
		"time_elapsed": 675580,
		"internal_node_id": "0.0-3.0-1.223"
	},
	{
		"rt": null,
		"stimulus": "<span style= \"font-size:30px; font-family: monospace\">+</span>",
		"response": null,
		"trial_part": "fixation",
		"trial_type": "html-keyboard-response",
		"trial_index": 278,
		"time_elapsed": 676837,
		"internal_node_id": "0.0-3.0-0.224-0.224"
	},
	{
		"rt": 589,
		"stimulus": "<span style=\"font-size:30px; font-family: monospace\">Ele</span>",
		"response": " ",
		"trial": "exp-sent",
		"word": "Ele",
		"trial_type": "html-keyboard-response",
		"trial_index": 279,
		"time_elapsed": 677676,
		"internal_node_id": "0.0-3.0-1.224"
	},
	{
		"rt": 1157,
		"stimulus": "<span style=\"font-size:30px; font-family: monospace\">não</span>",
		"response": " ",
		"trial": "exp-sent",
		"word": "não",
		"trial_type": "html-keyboard-response",
		"trial_index": 280,
		"time_elapsed": 679083,
		"internal_node_id": "0.0-3.0-1.225"
	},
	{
		"rt": 1269,
		"stimulus": "<span style=\"font-size:30px; font-family: monospace\">gosta</span>",
		"response": " ",
		"trial": "exp-sent",
		"word": "gosta",
		"trial_type": "html-keyboard-response",
		"trial_index": 281,
		"time_elapsed": 680604,
		"internal_node_id": "0.0-3.0-1.226"
	},
	{
		"rt": 1973,
		"stimulus": "<span style=\"font-size:30px; font-family: monospace\">de</span>",
		"response": " ",
		"trial": "exp-sent",
		"word": "de",
		"trial_type": "html-keyboard-response",
		"trial_index": 282,
		"time_elapsed": 682828,
		"internal_node_id": "0.0-3.0-1.227"
	},
	{
		"rt": 1172,
		"stimulus": "<span style=\"font-size:30px; font-family: monospace\">tomate</span>",
		"response": " ",
		"trial": "exp-sent",
		"word": "tomate",
		"trial_type": "html-keyboard-response",
		"trial_index": 283,
		"time_elapsed": 684251,
		"internal_node_id": "0.0-3.0-1.228"
	},
	{
		"rt": 1574,
		"stimulus": "<span style=\"font-size:30px; font-family: monospace\">misturado</span>",
		"response": " ",
		"trial": "exp-sent",
		"word": "misturado",
		"trial_type": "html-keyboard-response",
		"trial_index": 284,
		"time_elapsed": 686076,
		"internal_node_id": "0.0-3.0-1.229"
	},
	{
		"rt": 1941,
		"stimulus": "<span style=\"font-size:30px; font-family: monospace\">na</span>",
		"response": " ",
		"trial": "exp-sent",
		"word": "na",
		"trial_type": "html-keyboard-response",
		"trial_index": 285,
		"time_elapsed": 688268,
		"internal_node_id": "0.0-3.0-1.230"
	},
	{
		"rt": 1365,
		"stimulus": "<span style=\"font-size:30px; font-family: monospace\">comida.</span>",
		"response": " ",
		"trial": "comp",
		"word": "comida.",
		"trial_type": "html-keyboard-response",
		"trial_index": 286,
		"time_elapsed": 689884,
		"internal_node_id": "0.0-3.0-1.231"
	},
	{
		"rt": 8134,
		"stimulus": "<span style=\"font-size:30px; font-family: monospace\">Ele gosta de tomate na comida?</span>",
		"response": "s",
		"question": "Ele gosta de tomate na comida?",
		"answer": "não",
		"trial": "comp",
		"trial_type": "html-keyboard-response",
		"trial_index": 287,
		"time_elapsed": 698268,
		"internal_node_id": "0.0-3.0-2.231-0.231",
		"accuracy": false
	},
	{
		"rt": null,
		"stimulus": "<span style= \"font-size:30px; font-family: monospace\">+</span>",
		"response": null,
		"trial_part": "fixation",
		"trial_type": "html-keyboard-response",
		"trial_index": 288,
		"time_elapsed": 699769,
		"internal_node_id": "0.0-3.0-0.232-0.232"
	},
	{
		"rt": 3558,
		"stimulus": "<span style=\"font-size:30px; font-family: monospace\">Ganhamos</span>",
		"response": " ",
		"trial": "exp-sent",
		"word": "Ganhamos",
		"trial_type": "html-keyboard-response",
		"trial_index": 289,
		"time_elapsed": 703580,
		"internal_node_id": "0.0-3.0-1.232"
	},
	{
		"rt": 1509,
		"stimulus": "<span style=\"font-size:30px; font-family: monospace\">passagem</span>",
		"response": " ",
		"trial": "exp-sent",
		"word": "passagem",
		"trial_type": "html-keyboard-response",
		"trial_index": 290,
		"time_elapsed": 705339,
		"internal_node_id": "0.0-3.0-1.233"
	},
	{
		"rt": 1636,
		"stimulus": "<span style=\"font-size:30px; font-family: monospace\">para</span>",
		"response": " ",
		"trial": "exp-sent",
		"word": "para",
		"trial_type": "html-keyboard-response",
		"trial_index": 291,
		"time_elapsed": 707227,
		"internal_node_id": "0.0-3.0-1.234"
	},
	{
		"rt": 1317,
		"stimulus": "<span style=\"font-size:30px; font-family: monospace\">uma</span>",
		"response": " ",
		"trial": "exp-sent",
		"word": "uma",
		"trial_type": "html-keyboard-response",
		"trial_index": 292,
		"time_elapsed": 708796,
		"internal_node_id": "0.0-3.0-1.235"
	},
	{
		"rt": 1397,
		"stimulus": "<span style=\"font-size:30px; font-family: monospace\">viagem</span>",
		"response": " ",
		"trial": "exp-sent",
		"word": "viagem",
		"trial_type": "html-keyboard-response",
		"trial_index": 293,
		"time_elapsed": 710444,
		"internal_node_id": "0.0-3.0-1.236"
	},
	{
		"rt": 1941,
		"stimulus": "<span style=\"font-size:30px; font-family: monospace\">de</span>",
		"response": " ",
		"trial": "exp-sent",
		"word": "de",
		"trial_type": "html-keyboard-response",
		"trial_index": 294,
		"time_elapsed": 712635,
		"internal_node_id": "0.0-3.0-1.237"
	},
	{
		"rt": 1461,
		"stimulus": "<span style=\"font-size:30px; font-family: monospace\">férias.</span>",
		"response": " ",
		"trial": "exp-sent",
		"word": "férias.",
		"trial_type": "html-keyboard-response",
		"trial_index": 295,
		"time_elapsed": 714347,
		"internal_node_id": "0.0-3.0-1.238"
	},
	{
		"rt": null,
		"stimulus": "<span style= \"font-size:30px; font-family: monospace\">+</span>",
		"response": null,
		"trial_part": "fixation",
		"trial_type": "html-keyboard-response",
		"trial_index": 296,
		"time_elapsed": 715600,
		"internal_node_id": "0.0-3.0-0.239-0.239"
	},
	{
		"rt": 575,
		"stimulus": "<span style=\"font-size:30px; font-family: monospace\">Caiu</span>",
		"response": " ",
		"trial": "exp-sent",
		"word": "Caiu",
		"trial_type": "html-keyboard-response",
		"trial_index": 297,
		"time_elapsed": 716427,
		"internal_node_id": "0.0-3.0-1.239"
	},
	{
		"rt": 1414,
		"stimulus": "<span style=\"font-size:30px; font-family: monospace\">algo</span>",
		"response": " ",
		"trial": "exp-sent",
		"word": "algo",
		"trial_type": "html-keyboard-response",
		"trial_index": 298,
		"time_elapsed": 718091,
		"internal_node_id": "0.0-3.0-1.240"
	},
	{
		"rt": 1461,
		"stimulus": "<span style=\"font-size:30px; font-family: monospace\">no</span>",
		"response": " ",
		"trial": "exp-sent",
		"word": "no",
		"trial_type": "html-keyboard-response",
		"trial_index": 299,
		"time_elapsed": 719804,
		"internal_node_id": "0.0-3.0-1.241"
	},
	{
		"rt": 1445,
		"stimulus": "<span style=\"font-size:30px; font-family: monospace\">meu</span>",
		"response": " ",
		"trial": "exp-sent",
		"word": "meu",
		"trial_type": "html-keyboard-response",
		"trial_index": 300,
		"time_elapsed": 721500,
		"internal_node_id": "0.0-3.0-1.242"
	},
	{
		"rt": 1669,
		"stimulus": "<span style=\"font-size:30px; font-family: monospace\">olho</span>",
		"response": " ",
		"trial": "exp-sent",
		"word": "olho",
		"trial_type": "html-keyboard-response",
		"trial_index": 301,
		"time_elapsed": 723420,
		"internal_node_id": "0.0-3.0-1.243"
	},
	{
		"rt": 1717,
		"stimulus": "<span style=\"font-size:30px; font-family: monospace\">ontem</span>",
		"response": " ",
		"trial": "exp-sent",
		"word": "ontem",
		"trial_type": "html-keyboard-response",
		"trial_index": 302,
		"time_elapsed": 725387,
		"internal_node_id": "0.0-3.0-1.244"
	},
	{
		"rt": 1253,
		"stimulus": "<span style=\"font-size:30px; font-family: monospace\">de</span>",
		"response": " ",
		"trial": "exp-sent",
		"word": "de",
		"trial_type": "html-keyboard-response",
		"trial_index": 303,
		"time_elapsed": 726891,
		"internal_node_id": "0.0-3.0-1.245"
	},
	{
		"rt": 1093,
		"stimulus": "<span style=\"font-size:30px; font-family: monospace\">tarde.</span>",
		"response": " ",
		"trial": "exp-sent",
		"word": "tarde.",
		"trial_type": "html-keyboard-response",
		"trial_index": 304,
		"time_elapsed": 728236,
		"internal_node_id": "0.0-3.0-1.246"
	},
	{
		"rt": null,
		"stimulus": "<span style= \"font-size:30px; font-family: monospace\">+</span>",
		"response": null,
		"trial_part": "fixation",
		"trial_type": "html-keyboard-response",
		"trial_index": 305,
		"time_elapsed": 729487,
		"internal_node_id": "0.0-3.0-0.247-0.247"
	},
	{
		"rt": 66,
		"stimulus": "<span style=\"font-size:30px; font-family: monospace\">Não</span>",
		"response": " ",
		"trial": "exp-sent",
		"word": "Não",
		"trial_type": "html-keyboard-response",
		"trial_index": 306,
		"time_elapsed": 729803,
		"internal_node_id": "0.0-3.0-1.247"
	},
	{
		"rt": 1492,
		"stimulus": "<span style=\"font-size:30px; font-family: monospace\">havia</span>",
		"response": " ",
		"trial": "exp-sent",
		"word": "havia",
		"trial_type": "html-keyboard-response",
		"trial_index": 307,
		"time_elapsed": 731548,
		"internal_node_id": "0.0-3.0-1.248"
	},
	{
		"rt": 2244,
		"stimulus": "<span style=\"font-size:30px; font-family: monospace\">mais</span>",
		"response": " ",
		"trial": "exp-sent",
		"word": "mais",
		"trial_type": "html-keyboard-response",
		"trial_index": 308,
		"time_elapsed": 734044,
		"internal_node_id": "0.0-3.0-1.249"
	},
	{
		"rt": 1173,
		"stimulus": "<span style=\"font-size:30px; font-family: monospace\">nenhum</span>",
		"response": " ",
		"trial": "exp-sent",
		"word": "nenhum",
		"trial_type": "html-keyboard-response",
		"trial_index": 309,
		"time_elapsed": 735467,
		"internal_node_id": "0.0-3.0-1.250"
	},
	{
		"rt": 1557,
		"stimulus": "<span style=\"font-size:30px; font-family: monospace\">ingresso</span>",
		"response": " ",
		"trial": "exp-sent",
		"word": "ingresso",
		"trial_type": "html-keyboard-response",
		"trial_index": 310,
		"time_elapsed": 737275,
		"internal_node_id": "0.0-3.0-1.251"
	},
	{
		"rt": 1765,
		"stimulus": "<span style=\"font-size:30px; font-family: monospace\">para</span>",
		"response": " ",
		"trial": "exp-sent",
		"word": "para",
		"trial_type": "html-keyboard-response",
		"trial_index": 311,
		"time_elapsed": 739292,
		"internal_node_id": "0.0-3.0-1.252"
	},
	{
		"rt": 1205,
		"stimulus": "<span style=\"font-size:30px; font-family: monospace\">o</span>",
		"response": " ",
		"trial": "exp-sent",
		"word": "o",
		"trial_type": "html-keyboard-response",
		"trial_index": 312,
		"time_elapsed": 740748,
		"internal_node_id": "0.0-3.0-1.253"
	},
	{
		"rt": 1685,
		"stimulus": "<span style=\"font-size:30px; font-family: monospace\">evento.</span>",
		"response": " ",
		"trial": "exp-sent",
		"word": "evento.",
		"trial_type": "html-keyboard-response",
		"trial_index": 313,
		"time_elapsed": 742684,
		"internal_node_id": "0.0-3.0-1.254"
	},
	{
		"rt": null,
		"stimulus": "<span style= \"font-size:30px; font-family: monospace\">+</span>",
		"response": null,
		"trial_part": "fixation",
		"trial_type": "html-keyboard-response",
		"trial_index": 314,
		"time_elapsed": 743935,
		"internal_node_id": "0.0-3.0-0.255-0.255"
	},
	{
		"rt": 1505,
		"stimulus": "<span style=\"font-size:30px; font-family: monospace\">A</span>",
		"response": " ",
		"trial": "exp-sent",
		"word": "A",
		"trial_type": "html-keyboard-response",
		"trial_index": 315,
		"time_elapsed": 745692,
		"internal_node_id": "0.0-3.0-1.255"
	},
	{
		"rt": 1765,
		"stimulus": "<span style=\"font-size:30px; font-family: monospace\">médica</span>",
		"response": " ",
		"trial": "exp-sent",
		"word": "médica",
		"trial_type": "html-keyboard-response",
		"trial_index": 316,
		"time_elapsed": 747708,
		"internal_node_id": "0.0-3.0-1.256"
	},
	{
		"rt": 1573,
		"stimulus": "<span style=\"font-size:30px; font-family: monospace\">descobriu</span>",
		"response": " ",
		"trial": "exp-sent",
		"word": "descobriu",
		"trial_type": "html-keyboard-response",
		"trial_index": 317,
		"time_elapsed": 749532,
		"internal_node_id": "0.0-3.0-1.257"
	},
	{
		"rt": 1749,
		"stimulus": "<span style=\"font-size:30px; font-family: monospace\">uma</span>",
		"response": " ",
		"trial": "exp-sent",
		"word": "uma",
		"trial_type": "html-keyboard-response",
		"trial_index": 318,
		"time_elapsed": 751532,
		"internal_node_id": "0.0-3.0-1.258"
	},
	{
		"rt": 1461,
		"stimulus": "<span style=\"font-size:30px; font-family: monospace\">cura</span>",
		"response": " ",
		"trial": "exp-sent",
		"word": "cura",
		"trial_type": "html-keyboard-response",
		"trial_index": 319,
		"time_elapsed": 753244,
		"internal_node_id": "0.0-3.0-1.259"
	},
	{
		"rt": 1638,
		"stimulus": "<span style=\"font-size:30px; font-family: monospace\">para</span>",
		"response": " ",
		"trial": "exp-sent",
		"word": "para",
		"trial_type": "html-keyboard-response",
		"trial_index": 320,
		"time_elapsed": 755132,
		"internal_node_id": "0.0-3.0-1.260"
	},
	{
		"rt": 1573,
		"stimulus": "<span style=\"font-size:30px; font-family: monospace\">a</span>",
		"response": " ",
		"trial": "exp-sent",
		"word": "a",
		"trial_type": "html-keyboard-response",
		"trial_index": 321,
		"time_elapsed": 756956,
		"internal_node_id": "0.0-3.0-1.261"
	},
	{
		"rt": 1669,
		"stimulus": "<span style=\"font-size:30px; font-family: monospace\">doença.</span>",
		"response": " ",
		"trial": "exp-sent",
		"word": "doença.",
		"trial_type": "html-keyboard-response",
		"trial_index": 322,
		"time_elapsed": 758876,
		"internal_node_id": "0.0-3.0-1.262"
	},
	{
		"rt": null,
		"stimulus": "<span style= \"font-size:30px; font-family: monospace\">+</span>",
		"response": null,
		"trial_part": "fixation",
		"trial_type": "html-keyboard-response",
		"trial_index": 323,
		"time_elapsed": 760139,
		"internal_node_id": "0.0-3.0-0.263-0.263"
	},
	{
		"rt": 166,
		"stimulus": "<span style=\"font-size:30px; font-family: monospace\">O</span>",
		"response": " ",
		"trial": "exp-sent",
		"word": "O",
		"trial_type": "html-keyboard-response",
		"trial_index": 324,
		"time_elapsed": 760556,
		"internal_node_id": "0.0-3.0-1.263"
	},
	{
		"rt": 1285,
		"stimulus": "<span style=\"font-size:30px; font-family: monospace\">menino</span>",
		"response": " ",
		"trial": "exp-sent",
		"word": "menino",
		"trial_type": "html-keyboard-response",
		"trial_index": 325,
		"time_elapsed": 762092,
		"internal_node_id": "0.0-3.0-1.264"
	},
	{
		"rt": 2325,
		"stimulus": "<span style=\"font-size:30px; font-family: monospace\">riscou</span>",
		"response": " ",
		"trial": "exp-sent",
		"word": "riscou",
		"trial_type": "html-keyboard-response",
		"trial_index": 326,
		"time_elapsed": 764668,
		"internal_node_id": "0.0-3.0-1.265"
	},
	{
		"rt": 1620,
		"stimulus": "<span style=\"font-size:30px; font-family: monospace\">o</span>",
		"response": " ",
		"trial": "exp-sent",
		"word": "o",
		"trial_type": "html-keyboard-response",
		"trial_index": 327,
		"time_elapsed": 766540,
		"internal_node_id": "0.0-3.0-1.266"
	},
	{
		"rt": 1381,
		"stimulus": "<span style=\"font-size:30px; font-family: monospace\">caderno</span>",
		"response": " ",
		"trial": "exp-sent",
		"word": "caderno",
		"trial_type": "html-keyboard-response",
		"trial_index": 328,
		"time_elapsed": 768172,
		"internal_node_id": "0.0-3.0-1.267"
	},
	{
		"rt": 1380,
		"stimulus": "<span style=\"font-size:30px; font-family: monospace\">com</span>",
		"response": " ",
		"trial": "exp-sent",
		"word": "com",
		"trial_type": "html-keyboard-response",
		"trial_index": 329,
		"time_elapsed": 769804,
		"internal_node_id": "0.0-3.0-1.268"
	},
	{
		"rt": 932,
		"stimulus": "<span style=\"font-size:30px; font-family: monospace\">a</span>",
		"response": " ",
		"trial": "exp-sent",
		"word": "a",
		"trial_type": "html-keyboard-response",
		"trial_index": 330,
		"time_elapsed": 770987,
		"internal_node_id": "0.0-3.0-1.269"
	},
	{
		"rt": 1269,
		"stimulus": "<span style=\"font-size:30px; font-family: monospace\">caneta.</span>",
		"response": " ",
		"trial": "comp",
		"word": "caneta.",
		"trial_type": "html-keyboard-response",
		"trial_index": 331,
		"time_elapsed": 772508,
		"internal_node_id": "0.0-3.0-1.270"
	},
	{
		"rt": 5637,
		"stimulus": "<span style=\"font-size:30px; font-family: monospace\">O menino riscou a parede com a caneta?</span>",
		"response": "s",
		"question": "O menino riscou a parede com a caneta?",
		"answer": "não",
		"trial": "comp",
		"trial_type": "html-keyboard-response",
		"trial_index": 332,
		"time_elapsed": 778396,
		"internal_node_id": "0.0-3.0-2.270-0.270",
		"accuracy": false
	},
	{
		"rt": null,
		"stimulus": "<span style= \"font-size:30px; font-family: monospace\">+</span>",
		"response": null,
		"trial_part": "fixation",
		"trial_type": "html-keyboard-response",
		"trial_index": 333,
		"time_elapsed": 779897,
		"internal_node_id": "0.0-3.0-0.271-0.271"
	},
	{
		"rt": 2919,
		"stimulus": "<span style=\"font-size:30px; font-family: monospace\">No</span>",
		"response": " ",
		"trial": "exp-sent",
		"word": "No",
		"trial_type": "html-keyboard-response",
		"trial_index": 334,
		"time_elapsed": 783067,
		"internal_node_id": "0.0-3.0-1.271"
	},
	{
		"rt": 2358,
		"stimulus": "<span style=\"font-size:30px; font-family: monospace\">passado</span>",
		"response": " ",
		"trial": "exp-sent",
		"word": "passado",
		"trial_type": "html-keyboard-response",
		"trial_index": 335,
		"time_elapsed": 785676,
		"internal_node_id": "0.0-3.0-1.272"
	},
	{
		"rt": 2437,
		"stimulus": "<span style=\"font-size:30px; font-family: monospace\">houve</span>",
		"response": " ",
		"trial": "exp-sent",
		"word": "houve",
		"trial_type": "html-keyboard-response",
		"trial_index": 336,
		"time_elapsed": 788364,
		"internal_node_id": "0.0-3.0-1.273"
	},
	{
		"rt": 2213,
		"stimulus": "<span style=\"font-size:30px; font-family: monospace\">uma</span>",
		"response": " ",
		"trial": "exp-sent",
		"word": "uma",
		"trial_type": "html-keyboard-response",
		"trial_index": 337,
		"time_elapsed": 790828,
		"internal_node_id": "0.0-3.0-1.274"
	},
	{
		"rt": 2325,
		"stimulus": "<span style=\"font-size:30px; font-family: monospace\">rebelião</span>",
		"response": " ",
		"trial": "exp-sent",
		"word": "rebelião",
		"trial_type": "html-keyboard-response",
		"trial_index": 338,
		"time_elapsed": 793404,
		"internal_node_id": "0.0-3.0-1.275"
	},
	{
		"rt": 2436,
		"stimulus": "<span style=\"font-size:30px; font-family: monospace\">nesta</span>",
		"response": " ",
		"trial": "exp-sent",
		"word": "nesta",
		"trial_type": "html-keyboard-response",
		"trial_index": 339,
		"time_elapsed": 796092,
		"internal_node_id": "0.0-3.0-1.276"
	},
	{
