[
	{
		"view_history": [
			{
				"page_index": 0,
				"viewing_time": 120366
			}
		],
		"rt": 120366,
		"trial_type": "instructions",
		"trial_index": 0,
		"time_elapsed": 120386,
		"internal_node_id": "0.0-0.0"
	},
	{
		"rt": 262293,
		"response": {
			"tcle": "Concordo voluntariamente em participar da pesquisa conforme texto acima."
		},
		"question_order": [
			0
		],
		"trial_type": "survey-multi-choice",
		"trial_index": 1,
		"time_elapsed": 382874,
		"internal_node_id": "0.0-1.0"
	},
	{
		"rt": 126159,
		"response": {
			"email": "WFJR9"
		},
		"trial_type": "survey-text",
		"trial_index": 2,
		"time_elapsed": 510037,
		"internal_node_id": "0.0-2.0"
	}
]