[
	{
		"view_history": [
			{
				"page_index": 0,
				"viewing_time": 5859
			}
		],
		"rt": 5859,
		"trial_type": "instructions",
		"trial_index": 0,
		"time_elapsed": 5861,
		"internal_node_id": "0.0-0.0"
	},
	{
		"rt": 221152,
		"response": {
			"reading_habits_printed_magazines": "Raramente",
			"reading_habits_printed_newspapers": "Raramente",
			"reading_habits_books": "Todos os dias",
			"reading_habits_printed_socialmedias": "Todos os dias"
		},
		"question_order": [
			0,
			1,
			2,
			3
		],
		"trial_type": "survey-multi-choice",
		"trial_index": 1,
		"time_elapsed": 227121,
		"internal_node_id": "0.0-1.0"
	},
	{
		"rt": 170673,
		"response": {
			"reading_habits_virtual_magazines": "Raramente",
			"reading_habits_virtual_newspapers": "Raramente",
			"reading_habits_books": "Todos os dias",
			"reading_habits_virtual_socialmedias": "Todos os dias"
		},
		"question_order": [
			0,
			1,
			2,
			3
		],
		"trial_type": "survey-multi-choice",
		"trial_index": 2,
		"time_elapsed": 397899,
		"internal_node_id": "0.0-2.0"
	},
	{
		"rt": 347459,
		"response": {
			"reading_habits_other_which": "BIBLIA",
			"reading_habits_other_frequency": "TODO DIA"
		},
		"trial_type": "survey-text",
		"trial_index": 3,
		"time_elapsed": 745463,
		"internal_node_id": "0.0-3.0"
	}
]