"view_history","rt","trial_type","trial_index","time_elapsed","internal_node_id","stimulus","response","class","status","answer","correct","trial","letters"
"[{""page_index"":0,""viewing_time"":70718}]","70718","instructions","0","70724","0.0-0.0","","","","","","","",""
"","null","html-keyboard-response","1","71327","0.0-1.0-0.0","+","null","","","","","",""
"","13236","html-keyboard-response","2","84563","0.0-1.0-1.0","órgão","n","null","noncog","word","S","prac","null"
"","null","html-keyboard-response","3","85064","0.0-1.0-0.1","+","null","","","","","",""
"","3082","html-keyboard-response","4","88146","0.0-1.0-1.1","calmaria","s","null","noncog","word","S","prac","null"
"","null","html-keyboard-response","5","88648","0.0-1.0-0.2","+","null","","","","","",""
"","1402","html-keyboard-response","6","90050","0.0-1.0-1.2","oliva","s","null","cog","word","S","prac","null"
"","null","html-keyboard-response","7","90552","0.0-1.0-0.3","+","null","","","","","",""
"","3482","html-keyboard-response","8","94035","0.0-1.0-1.3","plibar","n","null","noncog","pseudo","N","prac","null"
"","null","html-keyboard-response","9","94545","0.0-1.0-0.4","+","null","","","","","",""
"","1265","html-keyboard-response","10","95811","0.0-1.0-1.4","crante","s","null","noncog","pseudo","N","prac","null"
"","null","html-keyboard-response","11","96312","0.0-1.0-0.5","+","null","","","","","",""
"","1738","html-keyboard-response","12","98050","0.0-1.0-1.5","chassi","s","null","cog","word","S","prac","null"
"","null","html-keyboard-response","13","98552","0.0-1.0-0.6","+","null","","","","","",""
"","2362","html-keyboard-response","14","100914","0.0-1.0-1.6","daja","s","null","noncog","pseudo","N","prac","null"
"[{""page_index"":0,""viewing_time"":32320}]","32320","instructions","15","133237","0.0-2.0","","","","","","","",""
"","null","html-keyboard-response","16","133853","0.0-3.0-0.0","+","null","","","","","",""
"","17512","html-keyboard-response","17","151365","0.0-3.0-1.0","gilha","s","null","noncog","pseudo","N","exp","null"
"","null","html-keyboard-response","18","151867","0.0-3.0-0.1","+","null","","","","","",""
"","3370","html-keyboard-response","19","155237","0.0-3.0-1.1","aitrou","n","null","noncog","pseudo","N","exp","null"
"","null","html-keyboard-response","20","155739","0.0-3.0-0.2","+","null","","","","","",""
"","1578","html-keyboard-response","21","157317","0.0-3.0-1.2","extravagante","s","a","cog","word","S","exp","12"
"","null","html-keyboard-response","22","157823","0.0-3.0-0.3","+","null","","","","","",""
"","2470","html-keyboard-response","23","160293","0.0-3.0-1.3","sanque","s","null","noncog","pseudo","N","exp","null"
"","null","html-keyboard-response","24","160795","0.0-3.0-0.4","+","null","","","","","",""
"","1210","html-keyboard-response","25","162005","0.0-3.0-1.4","farcas","s","null","noncog","pseudo","N","exp","null"
"","null","html-keyboard-response","26","162506","0.0-3.0-0.5","+","null","","","","","",""
"","2586","html-keyboard-response","27","165093","0.0-3.0-1.5","dipata","n","null","noncog","pseudo","N","exp","null"
"","null","html-keyboard-response","28","165600","0.0-3.0-0.6","+","null","","","","","",""
"","1668","html-keyboard-response","29","167269","0.0-3.0-1.6","vitrive","s","null","noncog","pseudo","N","exp","null"
"","null","html-keyboard-response","30","167775","0.0-3.0-0.7","+","null","","","","","",""
"","4710","html-keyboard-response","31","172485","0.0-3.0-1.7","candifência","s","null","noncog","pseudo","N","exp","null"
"","null","html-keyboard-response","32","172986","0.0-3.0-0.8","+","null","","","","","",""
"","1339","html-keyboard-response","33","174325","0.0-3.0-1.8","parceter","n","null","noncog","pseudo","N","exp","null"
"","null","html-keyboard-response","34","174826","0.0-3.0-0.9","+","null","","","","","",""
"","2154","html-keyboard-response","35","176983","0.0-3.0-1.9","raspar","s","v","noncog","word","S","exp","6"
"","null","html-keyboard-response","36","177485","0.0-3.0-0.10","+","null","","","","","",""
"","794","html-keyboard-response","37","178279","0.0-3.0-1.10","especial","s","a","cog","word","S","exp","8"
"","null","html-keyboard-response","38","178781","0.0-3.0-0.11","+","null","","","","","",""
"","938","html-keyboard-response","39","179719","0.0-3.0-1.11","tronca","s","null","noncog","pseudo","N","exp","null"
"","null","html-keyboard-response","40","180220","0.0-3.0-0.12","+","null","","","","","",""
"","4074","html-keyboard-response","41","184295","0.0-3.0-1.12","refletir","s","v","cog","word","S","exp","8"
"","null","html-keyboard-response","42","184796","0.0-3.0-0.13","+","null","","","","","",""
"","1194","html-keyboard-response","43","185991","0.0-3.0-1.13","promeção","s","null","noncog","pseudo","N","exp","null"
"","null","html-keyboard-response","44","186493","0.0-3.0-0.14","+","null","","","","","",""
"","2089","html-keyboard-response","45","188583","0.0-3.0-1.14","garastia","s","null","noncog","pseudo","N","exp","null"
"","null","html-keyboard-response","46","189088","0.0-3.0-0.15","+","null","","","","","",""
"","982","html-keyboard-response","47","190071","0.0-3.0-1.15","espaço","s","n","cog","word","S","exp","6"
"","null","html-keyboard-response","48","190573","0.0-3.0-0.16","+","null","","","","","",""
"","2490","html-keyboard-response","49","193063","0.0-3.0-1.16","prantal","s","null","noncog","pseudo","N","exp","null"
"","null","html-keyboard-response","50","193568","0.0-3.0-0.17","+","null","","","","","",""
"","1430","html-keyboard-response","51","194999","0.0-3.0-1.17","loaco","n","null","noncog","pseudo","N","exp","null"
"","null","html-keyboard-response","52","195502","0.0-3.0-0.18","+","null","","","","","",""
"","3001","html-keyboard-response","53","198503","0.0-3.0-1.18","usnado","s","null","noncog","pseudo","N","exp","null"
"","null","html-keyboard-response","54","199019","0.0-3.0-0.19","+","null","","","","","",""
"","1068","html-keyboard-response","55","200087","0.0-3.0-1.19","azul","s","n","noncog","word","S","exp","4"
"","null","html-keyboard-response","56","200588","0.0-3.0-0.20","+","null","","","","","",""
"","1851","html-keyboard-response","57","202439","0.0-3.0-1.20","mabras","s","null","noncog","pseudo","N","exp","null"
"","null","html-keyboard-response","58","202941","0.0-3.0-0.21","+","null","","","","","",""
"","1914","html-keyboard-response","59","204855","0.0-3.0-1.21","delomir","n","null","noncog","pseudo","N","exp","null"
"","null","html-keyboard-response","60","205357","0.0-3.0-0.22","+","null","","","","","",""
"","4186","html-keyboard-response","61","209543","0.0-3.0-1.22","barco","s","n","cog","word","S","exp","5"
"","null","html-keyboard-response","62","210045","0.0-3.0-0.23","+","null","","","","","",""
"","5370","html-keyboard-response","63","215415","0.0-3.0-1.23","esfoce","n","null","noncog","pseudo","N","exp","null"
"","null","html-keyboard-response","64","215917","0.0-3.0-0.24","+","null","","","","","",""
"","1082","html-keyboard-response","65","216999","0.0-3.0-1.24","dilheira","s","null","noncog","pseudo","N","exp","null"
"","null","html-keyboard-response","66","217500","0.0-3.0-0.25","+","null","","","","","",""
"","2603","html-keyboard-response","67","220103","0.0-3.0-1.25","salpicado","s","a","noncog","word","S","exp","9"
"","null","html-keyboard-response","68","220604","0.0-3.0-0.26","+","null","","","","","",""
"","2955","html-keyboard-response","69","223559","0.0-3.0-1.26","hébies","n","null","noncog","pseudo","N","exp","null"
"","null","html-keyboard-response","70","224074","0.0-3.0-0.27","+","null","","","","","",""
"","1516","html-keyboard-response","71","225591","0.0-3.0-1.27","lorfaz","s","null","noncog","pseudo","N","exp","null"
"","null","html-keyboard-response","72","226101","0.0-3.0-0.28","+","null","","","","","",""
"","6818","html-keyboard-response","73","232919","0.0-3.0-1.28","tênis","s","n","cog","word","S","exp","5"
"","null","html-keyboard-response","74","233421","0.0-3.0-0.29","+","null","","","","","",""
"","906","html-keyboard-response","75","234327","0.0-3.0-1.29","melão","s","n","cog","word","S","exp","5"
"","null","html-keyboard-response","76","234838","0.0-3.0-0.30","+","null","","","","","",""
"","6529","html-keyboard-response","77","241369","0.0-3.0-1.30","livro","s","n","cog","word","S","exp","5"
"","null","html-keyboard-response","78","241870","0.0-3.0-0.31","+","null","","","","","",""
"","1434","html-keyboard-response","79","243305","0.0-3.0-1.31","areia","s","n","noncog","word","S","exp","5"
"","null","html-keyboard-response","80","243806","0.0-3.0-0.32","+","null","","","","","",""
"","890","html-keyboard-response","81","244697","0.0-3.0-1.32","ofreta","s","null","noncog","pseudo","N","exp","null"
"","null","html-keyboard-response","82","245198","0.0-3.0-0.33","+","null","","","","","",""
"","1898","html-keyboard-response","83","247097","0.0-3.0-1.33","arranjar","s","v","cog","word","S","exp","8"
"","null","html-keyboard-response","84","247598","0.0-3.0-0.34","+","null","","","","","",""
"","1450","html-keyboard-response","85","249049","0.0-3.0-1.34","encelhor","s","null","noncog","pseudo","N","exp","null"
"","null","html-keyboard-response","86","249562","0.0-3.0-0.35","+","null","","","","","",""
"","1486","html-keyboard-response","87","251049","0.0-3.0-1.35","conjerto","s","null","noncog","pseudo","N","exp","null"
"","null","html-keyboard-response","88","251550","0.0-3.0-0.36","+","null","","","","","",""
"","794","html-keyboard-response","89","252345","0.0-3.0-1.36","fratos","s","null","noncog","pseudo","N","exp","null"
"","null","html-keyboard-response","90","252846","0.0-3.0-0.37","+","null","","","","","",""
"","1786","html-keyboard-response","91","254633","0.0-3.0-1.37","independente","s","a","noncog","word","S","exp","12"
"","null","html-keyboard-response","92","255135","0.0-3.0-0.38","+","null","","","","","",""
"","1594","html-keyboard-response","93","256729","0.0-3.0-1.38","promessa","s","n","noncog","word","S","exp","8"
"","null","html-keyboard-response","94","257230","0.0-3.0-0.39","+","null","","","","","",""
"","1018","html-keyboard-response","95","258249","0.0-3.0-1.39","revista","s","n","cog","word","S","exp","7"
"","null","html-keyboard-response","96","258762","0.0-3.0-0.40","+","null","","","","","",""
"","2047","html-keyboard-response","97","260809","0.0-3.0-1.40","delirar","s","v","noncog","word","S","exp","7"
"","null","html-keyboard-response","98","261310","0.0-3.0-0.41","+","null","","","","","",""
"","762","html-keyboard-response","99","262073","0.0-3.0-1.41","país","s","n","noncog","word","S","exp","4"
"","null","html-keyboard-response","100","262575","0.0-3.0-0.42","+","null","","","","","",""
"","857","html-keyboard-response","101","263433","0.0-3.0-1.42","detative","s","null","noncog","pseudo","N","exp","null"
"","null","html-keyboard-response","102","263946","0.0-3.0-0.43","+","null","","","","","",""
"","3118","html-keyboard-response","103","267065","0.0-3.0-1.43","sustentar","s","v","noncog","word","S","exp","9"
"","null","html-keyboard-response","104","267566","0.0-3.0-0.44","+","null","","","","","",""
"","1754","html-keyboard-response","105","269321","0.0-3.0-1.44","manais","n","null","noncog","pseudo","N","exp","null"
"","null","html-keyboard-response","106","269827","0.0-3.0-0.45","+","null","","","","","",""
"","1398","html-keyboard-response","107","271225","0.0-3.0-1.45","cinema","s","n","cog","word","S","exp","6"
"","null","html-keyboard-response","108","271726","0.0-3.0-0.46","+","null","","","","","",""
"","890","html-keyboard-response","109","272617","0.0-3.0-1.46","adoçar","s","v","noncog","word","S","exp","6"
"","null","html-keyboard-response","110","273118","0.0-3.0-0.47","+","null","","","","","",""
"","1578","html-keyboard-response","111","274697","0.0-3.0-1.47","tímido","s","a","cog","word","S","exp","6"
"","null","html-keyboard-response","112","275198","0.0-3.0-0.48","+","null","","","","","",""
"","1739","html-keyboard-response","113","276937","0.0-3.0-1.48","aivões","s","null","noncog","pseudo","N","exp","null"
"","null","html-keyboard-response","114","277438","0.0-3.0-0.49","+","null","","","","","",""
"","2154","html-keyboard-response","115","279593","0.0-3.0-1.49","selir","n","null","noncog","pseudo","N","exp","null"
"","null","html-keyboard-response","116","280097","0.0-3.0-0.50","+","null","","","","","",""
"","823","html-keyboard-response","117","280921","0.0-3.0-1.50","verde","s","a","noncog","word","S","exp","5"
"","null","html-keyboard-response","118","281423","0.0-3.0-0.51","+","null","","","","","",""
"","1113","html-keyboard-response","119","282537","0.0-3.0-1.51","bachir","s","null","noncog","pseudo","N","exp","null"
"","null","html-keyboard-response","120","283039","0.0-3.0-0.52","+","null","","","","","",""
"","842","html-keyboard-response","121","283881","0.0-3.0-1.52","lagras","s","null","noncog","pseudo","N","exp","null"
"","null","html-keyboard-response","122","284382","0.0-3.0-0.53","+","null","","","","","",""
"","2170","html-keyboard-response","123","286553","0.0-3.0-1.53","crolatário","s","null","noncog","pseudo","N","exp","null"
"","null","html-keyboard-response","124","287054","0.0-3.0-0.54","+","null","","","","","",""
"","4618","html-keyboard-response","125","291673","0.0-3.0-1.54","filme","s","n","cog","word","S","exp","5"
"","null","html-keyboard-response","126","292174","0.0-3.0-0.55","+","null","","","","","",""
"","1258","html-keyboard-response","127","293432","0.0-3.0-1.55","trabalhar","s","v","noncog","word","S","exp","9"
"","null","html-keyboard-response","128","293934","0.0-3.0-0.56","+","null","","","","","",""
"","842","html-keyboard-response","129","294776","0.0-3.0-1.56","memória","s","n","cog","word","S","exp","7"
"","null","html-keyboard-response","130","295280","0.0-3.0-0.57","+","null","","","","","",""
"","7000","html-keyboard-response","131","302283","0.0-3.0-1.57","traduzir","s","v","cog","word","S","exp","8"
"","null","html-keyboard-response","132","302784","0.0-3.0-0.58","+","null","","","","","",""
"","3866","html-keyboard-response","133","306651","0.0-3.0-1.58","verceja","s","null","noncog","pseudo","N","exp","null"
"","null","html-keyboard-response","134","307152","0.0-3.0-0.59","+","null","","","","","",""
"","2298","html-keyboard-response","135","309451","0.0-3.0-1.59","pega-pega","s","n","noncog","word","S","exp","8"
"","null","html-keyboard-response","136","309952","0.0-3.0-0.60","+","null","","","","","",""
"","1642","html-keyboard-response","137","311594","0.0-3.0-1.60","gruja","s","null","noncog","pseudo","N","exp","null"
"","null","html-keyboard-response","138","312099","0.0-3.0-0.61","+","null","","","","","",""
"","1799","html-keyboard-response","139","313899","0.0-3.0-1.61","morar","s","v","noncog","word","S","exp","5"
"","null","html-keyboard-response","140","314399","0.0-3.0-0.62","+","null","","","","","",""
"","1834","html-keyboard-response","141","316234","0.0-3.0-1.62","nacional","s","a","cog","word","S","exp","8"
"","null","html-keyboard-response","142","316735","0.0-3.0-0.63","+","null","","","","","",""
"","2203","html-keyboard-response","143","318938","0.0-3.0-1.63","agravar","s","v","cog","word","S","exp","7"
"","null","html-keyboard-response","144","319440","0.0-3.0-0.64","+","null","","","","","",""
"","2442","html-keyboard-response","145","321883","0.0-3.0-1.64","oper","s","null","noncog","pseudo","N","exp","null"
"","null","html-keyboard-response","146","322384","0.0-3.0-0.65","+","null","","","","","",""
"","1130","html-keyboard-response","147","323514","0.0-3.0-1.65","espinho","s","n","noncog","word","S","exp","7"
"","null","html-keyboard-response","148","324015","0.0-3.0-0.66","+","null","","","","","",""
"","3707","html-keyboard-response","149","327723","0.0-3.0-1.66","motros","s","null","noncog","pseudo","N","exp","null"
"","null","html-keyboard-response","150","328224","0.0-3.0-0.67","+","null","","","","","",""
"","1242","html-keyboard-response","151","329466","0.0-3.0-1.67","avenas","s","null","noncog","pseudo","N","exp","null"
"","null","html-keyboard-response","152","329967","0.0-3.0-0.68","+","null","","","","","",""
"","859","html-keyboard-response","153","330827","0.0-3.0-1.68","agressivo","s","a","cog","word","S","exp","9"
"","null","html-keyboard-response","154","331328","0.0-3.0-0.69","+","null","","","","","",""
"","1914","html-keyboard-response","155","333243","0.0-3.0-1.69","dobradiça","s","n","noncog","word","S","exp","9"
"","null","html-keyboard-response","156","333744","0.0-3.0-0.70","+","null","","","","","",""
"","1274","html-keyboard-response","157","335018","0.0-3.0-1.70","anjo","s","n","cog","word","S","exp","4"
"","null","html-keyboard-response","158","335519","0.0-3.0-0.71","+","null","","","","","",""
"","811","html-keyboard-response","159","336330","0.0-3.0-1.71","rovaz","s","null","noncog","pseudo","N","exp","null"
"","null","html-keyboard-response","160","336832","0.0-3.0-0.72","+","null","","","","","",""
"","1579","html-keyboard-response","161","338411","0.0-3.0-1.72","revear","s","null","noncog","pseudo","N","exp","null"
"","null","html-keyboard-response","162","338912","0.0-3.0-0.73","+","null","","","","","",""
"","954","html-keyboard-response","163","339867","0.0-3.0-1.73","ideisa","s","null","noncog","pseudo","N","exp","null"
"","null","html-keyboard-response","164","340368","0.0-3.0-0.74","+","null","","","","","",""
"","1258","html-keyboard-response","165","341627","0.0-3.0-1.74","tio","s","n","noncog","word","S","exp","3"
"","null","html-keyboard-response","166","342128","0.0-3.0-0.75","+","null","","","","","",""
"","2282","html-keyboard-response","167","344410","0.0-3.0-1.75","euorpa","s","null","noncog","pseudo","N","exp","null"
"","null","html-keyboard-response","168","344912","0.0-3.0-0.76","+","null","","","","","",""
"","762","html-keyboard-response","169","345674","0.0-3.0-1.76","liberal","s","a","cog","word","S","exp","7"
"","null","html-keyboard-response","170","346175","0.0-3.0-0.77","+","null","","","","","",""
"","859","html-keyboard-response","171","347035","0.0-3.0-1.77","imitar","s","v","cog","word","S","exp","6"
"","null","html-keyboard-response","172","347535","0.0-3.0-0.78","+","null","","","","","",""
"","1531","html-keyboard-response","173","349067","0.0-3.0-1.78","cerca","s","n","noncog","word","S","exp","5"
"","null","html-keyboard-response","174","349568","0.0-3.0-0.79","+","null","","","","","",""
"","1226","html-keyboard-response","175","350795","0.0-3.0-1.79","nervoso","s","a","noncog","word","S","exp","7"
"","null","html-keyboard-response","176","351295","0.0-3.0-0.80","+","null","","","","","",""
"","1611","html-keyboard-response","177","352907","0.0-3.0-1.80","aemaça","s","null","noncog","pseudo","N","exp","null"
"","null","html-keyboard-response","178","353407","0.0-3.0-0.81","+","null","","","","","",""
"","1403","html-keyboard-response","179","354811","0.0-3.0-1.81","montanha","s","n","cog","word","S","exp","8"
"","null","html-keyboard-response","180","355321","0.0-3.0-0.82","+","null","","","","","",""
"","1681","html-keyboard-response","181","357004","0.0-3.0-1.82","bandido","s","n","cog","word","S","exp","7"
"","null","html-keyboard-response","182","357515","0.0-3.0-0.83","+","null","","","","","",""
"","945","html-keyboard-response","183","358460","0.0-3.0-1.83","burtos","s","null","noncog","pseudo","N","exp","null"
"","null","html-keyboard-response","184","358961","0.0-3.0-0.84","+","null","","","","","",""
"","3451","html-keyboard-response","185","362413","0.0-3.0-1.84","âgnulo","s","null","noncog","pseudo","N","exp","null"
"","null","html-keyboard-response","186","362918","0.0-3.0-0.85","+","null","","","","","",""
"","774","html-keyboard-response","187","363692","0.0-3.0-1.85","terdia","s","null","noncog","pseudo","N","exp","null"
"","null","html-keyboard-response","188","364194","0.0-3.0-0.86","+","null","","","","","",""
"","778","html-keyboard-response","189","364972","0.0-3.0-1.86","esperar","s","v","cog","word","S","exp","7"
"","null","html-keyboard-response","190","365474","0.0-3.0-0.87","+","null","","","","","",""
"","650","html-keyboard-response","191","366124","0.0-3.0-1.87","tinta","s","n","cog","word","S","exp","5"
"","null","html-keyboard-response","192","366625","0.0-3.0-0.88","+","null","","","","","",""
"","875","html-keyboard-response","193","367500","0.0-3.0-1.88","protas","s","null","noncog","pseudo","N","exp","null"
"","null","html-keyboard-response","194","368002","0.0-3.0-0.89","+","null","","","","","",""
"","1082","html-keyboard-response","195","369084","0.0-3.0-1.89","apontar","s","v","noncog","word","S","exp","7"
"","null","html-keyboard-response","196","369592","0.0-3.0-0.90","+","null","","","","","",""
"","995","html-keyboard-response","197","370588","0.0-3.0-1.90","esprotiar","s","null","noncog","pseudo","N","exp","null"
"","null","html-keyboard-response","198","371090","0.0-3.0-0.91","+","null","","","","","",""
"","954","html-keyboard-response","199","372044","0.0-3.0-1.91","ênclio","s","null","noncog","pseudo","N","exp","null"
"","null","html-keyboard-response","200","372561","0.0-3.0-0.92","+","null","","","","","",""
"","1915","html-keyboard-response","201","374476","0.0-3.0-1.92","filosofia","s","n","cog","word","S","exp","9"
"","null","html-keyboard-response","202","374977","0.0-3.0-0.93","+","null","","","","","",""
"","715","html-keyboard-response","203","375693","0.0-3.0-1.93","chato","s","n","noncog","word","S","exp","5"
"","null","html-keyboard-response","204","376194","0.0-3.0-0.94","+","null","","","","","",""
"","1082","html-keyboard-response","205","377276","0.0-3.0-1.94","undivídio","s","null","noncog","pseudo","N","exp","null"
"","null","html-keyboard-response","206","377777","0.0-3.0-0.95","+","null","","","","","",""
"","715","html-keyboard-response","207","378492","0.0-3.0-1.95","uçar","s","null","noncog","pseudo","N","exp","null"
"","null","html-keyboard-response","208","378994","0.0-3.0-0.96","+","null","","","","","",""
"","810","html-keyboard-response","209","379804","0.0-3.0-1.96","reduzir","s","v","cog","word","S","exp","7"
"","null","html-keyboard-response","210","380316","0.0-3.0-0.97","+","null","","","","","",""
"","1360","html-keyboard-response","211","381676","0.0-3.0-1.97","nevela","s","null","noncog","pseudo","N","exp","null"
"","null","html-keyboard-response","212","382178","0.0-3.0-0.98","+","null","","","","","",""
"","1162","html-keyboard-response","213","383340","0.0-3.0-1.98","dencosto","s","null","noncog","pseudo","N","exp","null"
"","null","html-keyboard-response","214","383841","0.0-3.0-0.99","+","null","","","","","",""
"","1115","html-keyboard-response","215","384956","0.0-3.0-1.99","pimada","s","null","noncog","pseudo","N","exp","null"
"","null","html-keyboard-response","216","385458","0.0-3.0-0.100","+","null","","","","","",""
"","1018","html-keyboard-response","217","386476","0.0-3.0-1.100","ensuas","s","null","noncog","pseudo","N","exp","null"
"","null","html-keyboard-response","218","386978","0.0-3.0-0.101","+","null","","","","","",""
"","2026","html-keyboard-response","219","389004","0.0-3.0-1.101","liso","s","n","noncog","word","S","exp","4"
"","null","html-keyboard-response","220","389513","0.0-3.0-0.102","+","null","","","","","",""
"","3714","html-keyboard-response","221","393228","0.0-3.0-1.102","pantufa","s","n","cog","word","S","exp","7"
"","null","html-keyboard-response","222","393729","0.0-3.0-0.103","+","null","","","","","",""
"","3403","html-keyboard-response","223","397132","0.0-3.0-1.103","atitro","s","null","noncog","pseudo","N","exp","null"
"","null","html-keyboard-response","224","397633","0.0-3.0-0.104","+","null","","","","","",""
"","907","html-keyboard-response","225","398540","0.0-3.0-1.104","pritas","s","null","noncog","pseudo","N","exp","null"
"","null","html-keyboard-response","226","399042","0.0-3.0-0.105","+","null","","","","","",""
"","1034","html-keyboard-response","227","400076","0.0-3.0-1.105","nome","s","n","cog","word","S","exp","4"
"","null","html-keyboard-response","228","400577","0.0-3.0-0.106","+","null","","","","","",""
"","1771","html-keyboard-response","229","402348","0.0-3.0-1.106","rédesa","n","null","noncog","pseudo","N","exp","null"
"","null","html-keyboard-response","230","402850","0.0-3.0-0.107","+","null","","","","","",""
"","954","html-keyboard-response","231","403804","0.0-3.0-1.107","verdade","s","n","cog","word","S","exp","7"
"","null","html-keyboard-response","232","404305","0.0-3.0-0.108","+","null","","","","","",""
"","939","html-keyboard-response","233","405244","0.0-3.0-1.108","comércio","s","n","noncog","word","S","exp","8"
"","null","html-keyboard-response","234","405746","0.0-3.0-0.109","+","null","","","","","",""
"","1610","html-keyboard-response","235","407356","0.0-3.0-1.109","espionar","s","v","cog","word","S","exp","8"
"","null","html-keyboard-response","236","407858","0.0-3.0-0.110","+","null","","","","","",""
"","698","html-keyboard-response","237","408556","0.0-3.0-1.110","destino","s","n","cog","word","S","exp","7"
"","null","html-keyboard-response","238","409057","0.0-3.0-0.111","+","null","","","","","",""
"","1451","html-keyboard-response","239","410508","0.0-3.0-1.111","motre","s","null","noncog","pseudo","N","exp","null"
"","null","html-keyboard-response","240","411010","0.0-3.0-0.112","+","null","","","","","",""
"","1706","html-keyboard-response","241","412716","0.0-3.0-1.112","bambu","s","n","cog","word","S","exp","5"
"","null","html-keyboard-response","242","413217","0.0-3.0-0.113","+","null","","","","","",""
"","875","html-keyboard-response","243","414092","0.0-3.0-1.113","usfiga","s","null","noncog","pseudo","N","exp","null"
"","null","html-keyboard-response","244","414593","0.0-3.0-0.114","+","null","","","","","",""
"","5099","html-keyboard-response","245","419694","0.0-3.0-1.114","cascata","s","n","noncog","word","S","exp","7"
"","null","html-keyboard-response","246","420196","0.0-3.0-0.115","+","null","","","","","",""
"","1978","html-keyboard-response","247","422174","0.0-3.0-1.115","fofo","n","a","noncog","word","S","exp","4"
"","null","html-keyboard-response","248","422676","0.0-3.0-0.116","+","null","","","","","",""
"","42","html-keyboard-response","249","422718","0.0-3.0-1.116","telafonir","s","null","noncog","pseudo","N","exp","null"
"","null","html-keyboard-response","250","423231","0.0-3.0-0.117","+","null","","","","","",""
"","703","html-keyboard-response","251","423934","0.0-3.0-1.117","trenos","s","null","noncog","pseudo","N","exp","null"
"","null","html-keyboard-response","252","424435","0.0-3.0-0.118","+","null","","","","","",""
"","1307","html-keyboard-response","253","425742","0.0-3.0-1.118","macras","s","null","noncog","pseudo","N","exp","null"
"","null","html-keyboard-response","254","426243","0.0-3.0-0.119","+","null","","","","","",""
"","795","html-keyboard-response","255","427038","0.0-3.0-1.119","mudança","s","n","noncog","word","S","exp","7"
"","null","html-keyboard-response","256","427539","0.0-3.0-0.120","+","null","","","","","",""
"","811","html-keyboard-response","257","428350","0.0-3.0-1.120","enedro","s","null","noncog","pseudo","N","exp","null"
"","null","html-keyboard-response","258","428852","0.0-3.0-0.121","+","null","","","","","",""
"","970","html-keyboard-response","259","429822","0.0-3.0-1.121","uchães","s","null","noncog","pseudo","N","exp","null"
"","null","html-keyboard-response","260","430324","0.0-3.0-0.122","+","null","","","","","",""
"","666","html-keyboard-response","261","430990","0.0-3.0-1.122","fogão","s","n","noncog","word","S","exp","5"
"","null","html-keyboard-response","262","431492","0.0-3.0-0.123","+","null","","","","","",""
"","666","html-keyboard-response","263","432158","0.0-3.0-1.123","costra","s","null","noncog","pseudo","N","exp","null"
"","null","html-keyboard-response","264","432660","0.0-3.0-0.124","+","null","","","","","",""
"","634","html-keyboard-response","265","433294","0.0-3.0-1.124","suipestar","s","null","noncog","pseudo","N","exp","null"
"","null","html-keyboard-response","266","433796","0.0-3.0-0.125","+","null","","","","","",""
"","762","html-keyboard-response","267","434558","0.0-3.0-1.125","ocinto","s","null","noncog","pseudo","N","exp","null"
"","null","html-keyboard-response","268","435060","0.0-3.0-0.126","+","null","","","","","",""
"","762","html-keyboard-response","269","435822","0.0-3.0-1.126","pedaço","s","n","noncog","word","S","exp","6"
"","null","html-keyboard-response","270","436324","0.0-3.0-0.127","+","null","","","","","",""
"","442","html-keyboard-response","271","436766","0.0-3.0-1.127","cristal","s","n","cog","word","S","exp","7"
"","null","html-keyboard-response","272","437267","0.0-3.0-0.128","+","null","","","","","",""
"","1483","html-keyboard-response","273","438750","0.0-3.0-1.128","enxarto","s","null","noncog","pseudo","N","exp","null"
"","null","html-keyboard-response","274","439251","0.0-3.0-0.129","+","null","","","","","",""
"","3098","html-keyboard-response","275","442350","0.0-3.0-1.129","afonher","s","null","noncog","pseudo","N","exp","null"
"","null","html-keyboard-response","276","442852","0.0-3.0-0.130","+","null","","","","","",""
"","218","html-keyboard-response","277","443070","0.0-3.0-1.130","morno","s","a","noncog","word","S","exp","5"
"","null","html-keyboard-response","278","443571","0.0-3.0-0.131","+","null","","","","","",""
"","1115","html-keyboard-response","279","444686","0.0-3.0-1.131","francês","s","a","cog","word","S","exp","7"
"","null","html-keyboard-response","280","445191","0.0-3.0-0.132","+","null","","","","","",""
"","1927","html-keyboard-response","281","447118","0.0-3.0-1.132","preferir","s","v","cog","word","S","exp","8"
"","null","html-keyboard-response","282","447620","0.0-3.0-0.133","+","null","","","","","",""
"","3962","html-keyboard-response","283","451582","0.0-3.0-1.133","socorro","s","n","noncog","word","S","exp","7"
"","null","html-keyboard-response","284","452084","0.0-3.0-0.134","+","null","","","","","",""
"","2218","html-keyboard-response","285","454302","0.0-3.0-1.134","fusbão","s","null","noncog","pseudo","N","exp","null"
"","null","html-keyboard-response","286","454812","0.0-3.0-0.135","+","null","","","","","",""
"","1074","html-keyboard-response","287","455886","0.0-3.0-1.135","perdão","s","n","noncog","word","S","exp","6"
"","null","html-keyboard-response","288","456402","0.0-3.0-0.136","+","null","","","","","",""
"","956","html-keyboard-response","289","457358","0.0-3.0-1.136","bracos","s","null","noncog","pseudo","N","exp","null"
"","null","html-keyboard-response","290","457859","0.0-3.0-0.137","+","null","","","","","",""
"","1371","html-keyboard-response","291","459230","0.0-3.0-1.137","pitada","s","n","noncog","word","S","exp","6"
"","null","html-keyboard-response","292","459732","0.0-3.0-0.138","+","null","","","","","",""
"","1722","html-keyboard-response","293","461454","0.0-3.0-1.138","beima","s","null","noncog","pseudo","N","exp","null"
"","null","html-keyboard-response","294","461955","0.0-3.0-0.139","+","null","","","","","",""
"","2827","html-keyboard-response","295","464782","0.0-3.0-1.139","aletiê","s","null","noncog","pseudo","N","exp","null"
"","null","html-keyboard-response","296","465284","0.0-3.0-0.140","+","null","","","","","",""
"","3130","html-keyboard-response","297","468414","0.0-3.0-1.140","drama","n","n","cog","word","S","exp","5"
"","null","html-keyboard-response","298","468915","0.0-3.0-0.141","+","null","","","","","",""
"","1979","html-keyboard-response","299","470894","0.0-3.0-1.141","casuas","s","null","noncog","pseudo","N","exp","null"
"","null","html-keyboard-response","300","471396","0.0-3.0-0.142","+","null","","","","","",""
"","1450","html-keyboard-response","301","472846","0.0-3.0-1.142","papai","s","n","cog","word","S","exp","5"
"","null","html-keyboard-response","302","473348","0.0-3.0-0.143","+","null","","","","","",""
"","1322","html-keyboard-response","303","474670","0.0-3.0-1.143","atapdar","s","null","noncog","pseudo","N","exp","null"
"","null","html-keyboard-response","304","475172","0.0-3.0-0.144","+","null","","","","","",""
"","1610","html-keyboard-response","305","476784","0.0-3.0-1.144","atrasar","s","v","noncog","word","S","exp","7"
"","null","html-keyboard-response","306","477285","0.0-3.0-0.145","+","null","","","","","",""
"","3050","html-keyboard-response","307","480335","0.0-3.0-1.145","distraído","s","a","cog","word","S","exp","9"
"","null","html-keyboard-response","308","480836","0.0-3.0-0.146","+","null","","","","","",""
"","9659","html-keyboard-response","309","490495","0.0-3.0-1.146","cirado","s","null","noncog","pseudo","N","exp","null"
"","null","html-keyboard-response","310","491007","0.0-3.0-0.147","+","null","","","","","",""
"","1505","html-keyboard-response","311","492511","0.0-3.0-1.147","glória","s","n","cog","word","S","exp","6"
"","null","html-keyboard-response","312","493012","0.0-3.0-0.148","+","null","","","","","",""
"","1115","html-keyboard-response","313","494128","0.0-3.0-1.148","lapestra","s","null","noncog","pseudo","N","exp","null"
"","null","html-keyboard-response","314","494629","0.0-3.0-0.149","+","null","","","","","",""
"","921","html-keyboard-response","315","495551","0.0-3.0-1.149","medalha","s","n","cog","word","S","exp","7"
"","null","html-keyboard-response","316","496053","0.0-3.0-0.150","+","null","","","","","",""
"","1370","html-keyboard-response","317","497424","0.0-3.0-1.150","hipócrita","s","a","noncog","word","S","exp","9"
"","null","html-keyboard-response","318","497925","0.0-3.0-0.151","+","null","","","","","",""
"","1434","html-keyboard-response","319","499359","0.0-3.0-1.151","berquesa","s","null","noncog","pseudo","N","exp","null"
"","null","html-keyboard-response","320","499860","0.0-3.0-0.152","+","null","","","","","",""
"","3915","html-keyboard-response","321","503776","0.0-3.0-1.152","planalto","n","n","cog","word","S","exp","8"
"","null","html-keyboard-response","322","504276","0.0-3.0-0.153","+","null","","","","","",""
"","1083","html-keyboard-response","323","505359","0.0-3.0-1.153","manfa","n","null","noncog","pseudo","N","exp","null"
"","null","html-keyboard-response","324","505868","0.0-3.0-0.154","+","null","","","","","",""
"","771","html-keyboard-response","325","506639","0.0-3.0-1.154","fino","s","a","cog","word","S","exp","4"
"","null","html-keyboard-response","326","507141","0.0-3.0-0.155","+","null","","","","","",""
"","1434","html-keyboard-response","327","508576","0.0-3.0-1.155","ejerro","n","null","noncog","pseudo","N","exp","null"
"","null","html-keyboard-response","328","509078","0.0-3.0-0.156","+","null","","","","","",""
"","1321","html-keyboard-response","329","510399","0.0-3.0-1.156","sintonizar","s","v","noncog","word","S","exp","10"
"","null","html-keyboard-response","330","510900","0.0-3.0-0.157","+","null","","","","","",""
"","1195","html-keyboard-response","331","512095","0.0-3.0-1.157","convidado","s","n","noncog","word","S","exp","9"
"","null","html-keyboard-response","332","512597","0.0-3.0-0.158","+","null","","","","","",""
"","1642","html-keyboard-response","333","514240","0.0-3.0-1.158","grátis","s","a","cog","word","S","exp","6"
"","null","html-keyboard-response","334","514745","0.0-3.0-0.159","+","null","","","","","",""
"","1446","html-keyboard-response","335","516191","0.0-3.0-1.159","multiplicar","s","v","cog","word","S","exp","11"
"","null","html-keyboard-response","336","516693","0.0-3.0-0.160","+","null","","","","","",""
"","762","html-keyboard-response","337","517455","0.0-3.0-1.160","fasdas","s","null","noncog","pseudo","N","exp","null"
"","null","html-keyboard-response","338","517957","0.0-3.0-0.161","+","null","","","","","",""
"","1066","html-keyboard-response","339","519023","0.0-3.0-1.161","bagunceira","s","a","noncog","word","S","exp","10"
"","null","html-keyboard-response","340","519525","0.0-3.0-0.162","+","null","","","","","",""
"","970","html-keyboard-response","341","520496","0.0-3.0-1.162","grótis","s","null","noncog","pseudo","N","exp","null"
"","null","html-keyboard-response","342","520996","0.0-3.0-0.163","+","null","","","","","",""
"","859","html-keyboard-response","343","521856","0.0-3.0-1.163","dia","s","n","noncog","word","S","exp","3"
"","null","html-keyboard-response","344","522364","0.0-3.0-0.164","+","null","","","","","",""
"","1811","html-keyboard-response","345","524176","0.0-3.0-1.164","hedoru","s","null","noncog","pseudo","N","exp","null"
"","null","html-keyboard-response","346","524677","0.0-3.0-0.165","+","null","","","","","",""
"","1130","html-keyboard-response","347","525808","0.0-3.0-1.165","tela","s","n","noncog","word","S","exp","4"
"","null","html-keyboard-response","348","526309","0.0-3.0-0.166","+","null","","","","","",""
"","1002","html-keyboard-response","349","527311","0.0-3.0-1.166","faínas","s","null","noncog","pseudo","N","exp","null"
"","null","html-keyboard-response","350","527813","0.0-3.0-0.167","+","null","","","","","",""
"","1130","html-keyboard-response","351","528944","0.0-3.0-1.167","prenas","s","null","noncog","pseudo","N","exp","null"
"","null","html-keyboard-response","352","529445","0.0-3.0-0.168","+","null","","","","","",""
"","938","html-keyboard-response","353","530384","0.0-3.0-1.168","perbas","s","null","noncog","pseudo","N","exp","null"
"","null","html-keyboard-response","354","530885","0.0-3.0-0.169","+","null","","","","","",""
"","1930","html-keyboard-response","355","532816","0.0-3.0-1.169","mal","s","a","cog","word","S","exp","3"
"","null","html-keyboard-response","356","533317","0.0-3.0-0.170","+","null","","","","","",""
"","1386","html-keyboard-response","357","534703","0.0-3.0-1.170","alpica","s","null","noncog","pseudo","N","exp","null"
"","null","html-keyboard-response","358","535204","0.0-3.0-0.171","+","null","","","","","",""
"","1371","html-keyboard-response","359","536577","0.0-3.0-1.171","franda","s","null","noncog","pseudo","N","exp","null"
"","null","html-keyboard-response","360","537078","0.0-3.0-0.172","+","null","","","","","",""
"","1434","html-keyboard-response","361","538513","0.0-3.0-1.172","plinta","s","null","noncog","pseudo","N","exp","null"
"","null","html-keyboard-response","362","539014","0.0-3.0-0.173","+","null","","","","","",""
"","4042","html-keyboard-response","363","543057","0.0-3.0-1.173","morija","s","null","noncog","pseudo","N","exp","null"
"","null","html-keyboard-response","364","543558","0.0-3.0-0.174","+","null","","","","","",""
"","1258","html-keyboard-response","365","544817","0.0-3.0-1.174","temperar","s","v","noncog","word","S","exp","8"
"","null","html-keyboard-response","366","545318","0.0-3.0-0.175","+","null","","","","","",""
"","1739","html-keyboard-response","367","547057","0.0-3.0-1.175","frotes","s","null","noncog","pseudo","N","exp","null"
"","null","html-keyboard-response","368","547559","0.0-3.0-0.176","+","null","","","","","",""
"","1929","html-keyboard-response","369","549489","0.0-3.0-1.176","animado","s","a","noncog","word","S","exp","7"
"","null","html-keyboard-response","370","549990","0.0-3.0-0.177","+","null","","","","","",""
"","1323","html-keyboard-response","371","551313","0.0-3.0-1.177","cápsula","s","n","noncog","word","S","exp","7"
"","null","html-keyboard-response","372","551814","0.0-3.0-0.178","+","null","","","","","",""
"","1643","html-keyboard-response","373","553457","0.0-3.0-1.178","telefone","s","n","cog","word","S","exp","8"
"","null","html-keyboard-response","374","553972","0.0-3.0-0.179","+","null","","","","","",""
"","1020","html-keyboard-response","375","554993","0.0-3.0-1.179","aperor","s","null","noncog","pseudo","N","exp","null"
"","null","html-keyboard-response","376","555494","0.0-3.0-0.180","+","null","","","","","",""
"","1370","html-keyboard-response","377","556865","0.0-3.0-1.180","tatear","n","v","cog","word","S","exp","6"
"","null","html-keyboard-response","378","557366","0.0-3.0-0.181","+","null","","","","","",""
"","826","html-keyboard-response","379","558193","0.0-3.0-1.181","pulmão","s","n","noncog","word","S","exp","6"
"","null","html-keyboard-response","380","558694","0.0-3.0-0.182","+","null","","","","","",""
"","762","html-keyboard-response","381","559457","0.0-3.0-1.182","sábio","s","n","noncog","word","S","exp","5"
"","null","html-keyboard-response","382","559961","0.0-3.0-0.183","+","null","","","","","",""
"","871","html-keyboard-response","383","560833","0.0-3.0-1.183","jantar","s","v","noncog","word","S","exp","6"
"","null","html-keyboard-response","384","561334","0.0-3.0-0.184","+","null","","","","","",""
"","762","html-keyboard-response","385","562097","0.0-3.0-1.184","braras","s","null","noncog","pseudo","N","exp","null"
"","null","html-keyboard-response","386","562598","0.0-3.0-0.185","+","null","","","","","",""
"","1722","html-keyboard-response","387","564321","0.0-3.0-1.185","carona","s","n","noncog","word","S","exp","6"
"","null","html-keyboard-response","388","564821","0.0-3.0-0.186","+","null","","","","","",""
"","1003","html-keyboard-response","389","565825","0.0-3.0-1.186","oricia","s","null","noncog","pseudo","N","exp","null"
"","null","html-keyboard-response","390","566325","0.0-3.0-0.187","+","null","","","","","",""
"","2379","html-keyboard-response","391","568705","0.0-3.0-1.187","aparme","n","null","noncog","pseudo","N","exp","null"
"","null","html-keyboard-response","392","569206","0.0-3.0-0.188","+","null","","","","","",""
"","1067","html-keyboard-response","393","570273","0.0-3.0-1.188","prever","s","v","cog","word","S","exp","6"
"","null","html-keyboard-response","394","570773","0.0-3.0-0.189","+","null","","","","","",""
"","763","html-keyboard-response","395","571537","0.0-3.0-1.189","mua","n","null","noncog","pseudo","N","exp","null"
"","null","html-keyboard-response","396","572038","0.0-3.0-0.190","+","null","","","","","",""
"","826","html-keyboard-response","397","572865","0.0-3.0-1.190","senareta","s","null","noncog","pseudo","N","exp","null"
"","null","html-keyboard-response","398","573380","0.0-3.0-0.191","+","null","","","","","",""
"","876","html-keyboard-response","399","574257","0.0-3.0-1.191","bancada","s","n","noncog","word","S","exp","7"
"","null","html-keyboard-response","400","574758","0.0-3.0-0.192","+","null","","","","","",""
"","1099","html-keyboard-response","401","575857","0.0-3.0-1.192","dacada","s","null","noncog","pseudo","N","exp","null"
"","null","html-keyboard-response","402","576357","0.0-3.0-0.193","+","null","","","","","",""
"","1131","html-keyboard-response","403","577489","0.0-3.0-1.193","civil","s","a","cog","word","S","exp","5"
"","null","html-keyboard-response","404","577991","0.0-3.0-0.194","+","null","","","","","",""
"","2090","html-keyboard-response","405","580081","0.0-3.0-1.194","vervas","s","null","noncog","pseudo","N","exp","null"
"","null","html-keyboard-response","406","580582","0.0-3.0-0.195","+","null","","","","","",""
"","650","html-keyboard-response","407","581233","0.0-3.0-1.195","ótimo","s","a","noncog","word","S","exp","5"
"","null","html-keyboard-response","408","581734","0.0-3.0-0.196","+","null","","","","","",""
"","746","html-keyboard-response","409","582481","0.0-3.0-1.196","viver","s","v","cog","word","S","exp","5"
"","null","html-keyboard-response","410","582982","0.0-3.0-0.197","+","null","","","","","",""
"","651","html-keyboard-response","411","583633","0.0-3.0-1.197","crutas","s","null","noncog","pseudo","N","exp","null"
"","null","html-keyboard-response","412","584134","0.0-3.0-0.198","+","null","","","","","",""
"","1099","html-keyboard-response","413","585233","0.0-3.0-1.198","quenzina","s","null","noncog","pseudo","N","exp","null"
"","null","html-keyboard-response","414","585734","0.0-3.0-0.199","+","null","","","","","",""
"","1338","html-keyboard-response","415","587073","0.0-3.0-1.199","mania","s","n","cog","word","S","exp","5"
"","null","html-keyboard-response","416","587574","0.0-3.0-0.200","+","null","","","","","",""
"","970","html-keyboard-response","417","588545","0.0-3.0-1.200","pangos","s","null","noncog","pseudo","N","exp","null"
"","null","html-keyboard-response","418","589045","0.0-3.0-0.201","+","null","","","","","",""
"","1051","html-keyboard-response","419","590097","0.0-3.0-1.201","irratinte","s","null","noncog","pseudo","N","exp","null"
"","null","html-keyboard-response","420","590598","0.0-3.0-0.202","+","null","","","","","",""
"","681","html-keyboard-response","421","591280","0.0-3.0-1.202","carro","s","n","noncog","word","S","exp","5"
"","null","html-keyboard-response","422","591782","0.0-3.0-0.203","+","null","","","","","",""
"","1851","html-keyboard-response","423","593633","0.0-3.0-1.203","pneucania","s","null","noncog","pseudo","N","exp","null"
"","null","html-keyboard-response","424","594134","0.0-3.0-0.204","+","null","","","","","",""
"","1114","html-keyboard-response","425","595249","0.0-3.0-1.204","instruído","s","a","noncog","word","S","exp","9"
"","null","html-keyboard-response","426","595750","0.0-3.0-0.205","+","null","","","","","",""
"","4555","html-keyboard-response","427","600306","0.0-3.0-1.205","ronronar","n","v","cog","word","S","exp","8"
"","null","html-keyboard-response","428","600807","0.0-3.0-0.206","+","null","","","","","",""
"","442","html-keyboard-response","429","601250","0.0-3.0-1.206","matinal","s","a","cog","word","S","exp","7"
"","null","html-keyboard-response","430","601752","0.0-3.0-0.207","+","null","","","","","",""
"","842","html-keyboard-response","431","602594","0.0-3.0-1.207","gordo","s","a","noncog","word","S","exp","5"
"","null","html-keyboard-response","432","603095","0.0-3.0-0.208","+","null","","","","","",""
"","2106","html-keyboard-response","433","605202","0.0-3.0-1.208","deselegante","s","a","noncog","word","S","exp","11"
"","null","html-keyboard-response","434","605704","0.0-3.0-0.209","+","null","","","","","",""
"","698","html-keyboard-response","435","606402","0.0-3.0-1.209","açúcar","s","n","noncog","word","S","exp","6"
"","null","html-keyboard-response","436","606903","0.0-3.0-0.210","+","null","","","","","",""
"","938","html-keyboard-response","437","607842","0.0-3.0-1.210","chorão","s","a","noncog","word","S","exp","6"
"","null","html-keyboard-response","438","608343","0.0-3.0-0.211","+","null","","","","","",""
"","987","html-keyboard-response","439","609330","0.0-3.0-1.211","alfabeto","s","n","cog","word","S","exp","8"
"","null","html-keyboard-response","440","609840","0.0-3.0-0.212","+","null","","","","","",""
"","818","html-keyboard-response","441","610658","0.0-3.0-1.212","jastor","s","null","noncog","pseudo","N","exp","null"
"","null","html-keyboard-response","442","611159","0.0-3.0-0.213","+","null","","","","","",""
"","4282","html-keyboard-response","443","615442","0.0-3.0-1.213","resmungar","n","v","noncog","word","S","exp","9"
"","null","html-keyboard-response","444","615956","0.0-3.0-0.214","+","null","","","","","",""
"","1262","html-keyboard-response","445","617218","0.0-3.0-1.214","trair","s","v","cog","word","S","exp","5"
"","null","html-keyboard-response","446","617720","0.0-3.0-0.215","+","null","","","","","",""
"","634","html-keyboard-response","447","618354","0.0-3.0-1.215","gertas","s","null","noncog","pseudo","N","exp","null"
"","null","html-keyboard-response","448","618856","0.0-3.0-0.216","+","null","","","","","",""
"","1130","html-keyboard-response","449","619986","0.0-3.0-1.216","lagoa","s","n","cog","word","S","exp","5"
"","null","html-keyboard-response","450","620487","0.0-3.0-0.217","+","null","","","","","",""
"","923","html-keyboard-response","451","621410","0.0-3.0-1.217","incomodar","s","v","noncog","word","S","exp","9"
"","null","html-keyboard-response","452","621912","0.0-3.0-0.218","+","null","","","","","",""
"","1162","html-keyboard-response","453","623074","0.0-3.0-1.218","grave","s","a","cog","word","S","exp","5"
"","null","html-keyboard-response","454","623575","0.0-3.0-0.219","+","null","","","","","",""
"","1419","html-keyboard-response","455","624994","0.0-3.0-1.219","oecano","n","null","noncog","pseudo","N","exp","null"
"","null","html-keyboard-response","456","625503","0.0-3.0-0.220","+","null","","","","","",""
"","227","html-keyboard-response","457","625730","0.0-3.0-1.220","taberia","s","null","noncog","pseudo","N","exp","null"
"","null","html-keyboard-response","458","626245","0.0-3.0-0.221","+","null","","","","","",""
"","813","html-keyboard-response","459","627058","0.0-3.0-1.221","brincar","s","v","noncog","word","S","exp","7"
"","null","html-keyboard-response","460","627560","0.0-3.0-0.222","+","null","","","","","",""
"","1050","html-keyboard-response","461","628610","0.0-3.0-1.222","disbrituir","s","null","noncog","pseudo","N","exp","null"
"","null","html-keyboard-response","462","629112","0.0-3.0-0.223","+","null","","","","","",""
"","1162","html-keyboard-response","463","630274","0.0-3.0-1.223","enxerido","s","a","noncog","word","S","exp","8"
"","null","html-keyboard-response","464","630776","0.0-3.0-0.224","+","null","","","","","",""
"","890","html-keyboard-response","465","631666","0.0-3.0-1.224","tartos","s","null","noncog","pseudo","N","exp","null"
"","null","html-keyboard-response","466","632168","0.0-3.0-0.225","+","null","","","","","",""
"","3146","html-keyboard-response","467","635314","0.0-3.0-1.225","ilhure","n","null","noncog","pseudo","N","exp","null"
"","null","html-keyboard-response","468","635815","0.0-3.0-0.226","+","null","","","","","",""
"","715","html-keyboard-response","469","636530","0.0-3.0-1.226","abieso","s","null","noncog","pseudo","N","exp","null"
"","null","html-keyboard-response","470","637034","0.0-3.0-0.227","+","null","","","","","",""
"","1080","html-keyboard-response","471","638114","0.0-3.0-1.227","árovre","s","null","noncog","pseudo","N","exp","null"
"","null","html-keyboard-response","472","638616","0.0-3.0-0.228","+","null","","","","","",""
"","986","html-keyboard-response","473","639602","0.0-3.0-1.228","orupas","s","null","noncog","pseudo","N","exp","null"
"","null","html-keyboard-response","474","640103","0.0-3.0-0.229","+","null","","","","","",""
"","1035","html-keyboard-response","475","641138","0.0-3.0-1.229","risbos","s","null","noncog","pseudo","N","exp","null"
"","null","html-keyboard-response","476","641639","0.0-3.0-0.230","+","null","","","","","",""
"","1083","html-keyboard-response","477","642722","0.0-3.0-1.230","escumo","s","null","noncog","pseudo","N","exp","null"
"","null","html-keyboard-response","478","643226","0.0-3.0-0.231","+","null","","","","","",""
"","1143","html-keyboard-response","479","644370","0.0-3.0-1.231","cenada","s","null","noncog","pseudo","N","exp","null"
"","null","html-keyboard-response","480","644872","0.0-3.0-0.232","+","null","","","","","",""
"","666","html-keyboard-response","481","645538","0.0-3.0-1.232","boreta","s","null","noncog","pseudo","N","exp","null"
"","null","html-keyboard-response","482","646040","0.0-3.0-0.233","+","null","","","","","",""
"","1290","html-keyboard-response","483","647330","0.0-3.0-1.233","nivelado","s","a","cog","word","S","exp","8"
"","null","html-keyboard-response","484","647834","0.0-3.0-0.234","+","null","","","","","",""
"","1752","html-keyboard-response","485","649586","0.0-3.0-1.234","bibarconato","s","null","noncog","pseudo","N","exp","null"
"","null","html-keyboard-response","486","650101","0.0-3.0-0.235","+","null","","","","","",""
"","2029","html-keyboard-response","487","652130","0.0-3.0-1.235","propaganda","s","n","cog","word","S","exp","10"
"","null","html-keyboard-response","488","652632","0.0-3.0-0.236","+","null","","","","","",""
"","1402","html-keyboard-response","489","654034","0.0-3.0-1.236","cravo","s","n","noncog","word","S","exp","5"
"","null","html-keyboard-response","490","654535","0.0-3.0-0.237","+","null","","","","","",""
"","1962","html-keyboard-response","491","656499","0.0-3.0-1.237","carregar","s","v","noncog","word","S","exp","8"
"","null","html-keyboard-response","492","657005","0.0-3.0-0.238","+","null","","","","","",""
"","901","html-keyboard-response","493","657907","0.0-3.0-1.238","podilo","s","null","noncog","pseudo","N","exp","null"
"","null","html-keyboard-response","494","658408","0.0-3.0-0.239","+","null","","","","","",""
"","795","html-keyboard-response","495","659203","0.0-3.0-1.239","afual","s","null","noncog","pseudo","N","exp","null"
