"view_history","rt","trial_type","trial_index","time_elapsed","internal_node_id","stimulus","response","trial_part","word","question","answer","trial","accuracy"
"[{""page_index"":0,""viewing_time"":34426},{""page_index"":1,""viewing_time"":2776}]","37202","instructions","0","37203","0.0-0.0","","","","","","","",""
"","null","html-keyboard-response","1","38304","0.0-1.0-0.0-0.0","<span style= ""font-size:30px; font-family: monospace"">+</span>","null","fixation","","","","",""
"","15139","audio-keyboard-response","2","53803","0.0-1.0-1.0","../audio/prac-question-1-1.mp3"," ","","O","","","",""
"","24869","audio-keyboard-response","3","78955","0.0-1.0-1.1","../audio/prac-question-1-2.mp3"," ","","dia","","","",""
"","22512","audio-keyboard-response","4","101739","0.0-1.0-1.2","../audio/prac-question-1-3.mp3"," ","","estará","","","",""
"","5699","audio-keyboard-response","5","107722","0.0-1.0-1.3","../audio/prac-question-1-4.mp3"," ","","cheio","","","",""
"","8221","audio-keyboard-response","6","116219","0.0-1.0-1.4","../audio/prac-question-1-5.mp3"," ","","de","","","",""
"","8099","audio-keyboard-response","7","124594","0.0-1.0-1.5","../audio/prac-question-1-6.mp3"," ","","nuvens","","","",""
"","7101","audio-keyboard-response","8","131970","0.0-1.0-1.6","../audio/prac-question-1-7.mp3"," ","","hoje.","","","",""
"","null","html-keyboard-response","9","133226","0.0-1.0-0.7-0.7","<span style= ""font-size:30px; font-family: monospace"">+</span>","null","fixation","","","","",""
"","6400","audio-keyboard-response","10","139906","0.0-1.0-1.7","../audio/prac-question-2-1.mp3"," ","","A","","","",""
"","10541","audio-keyboard-response","11","150722","0.0-1.0-1.8","../audio/prac-question-2-2.mp3"," ","","caneca","","","",""
"","44629","audio-keyboard-response","12","195626","0.0-1.0-1.9","../audio/prac-question-2-3.mp3"," ","","colorida","","","",""
"","3560","audio-keyboard-response","13","199545","0.0-1.0-1.10","../audio/prac-question-2-4.mp3"," ","","caiu","","","",""
"","9768","audio-keyboard-response","14","209594","0.0-1.0-1.11","../audio/prac-question-2-5.mp3"," ","","da","","","",""
"","4541","audio-keyboard-response","15","214409","0.0-1.0-1.12","../audio/prac-question-2-6.mp3"," ","","mesa","","","",""
"","5181","audio-keyboard-response","16","219866","0.0-1.0-1.13","../audio/prac-question-2-7.mp3"," ","","de","","","",""
"","2851","audio-keyboard-response","17","222985","0.0-1.0-1.14","../audio/prac-question-2-8.mp3"," ","","jantar.","","","",""
"","40187","html-keyboard-response","18","263433","0.0-1.0-2.14-0.14","<span style=""font-size:25px; font-family: monospace"">A caneca era colorida?</span>","s","","","A caneca era colorida?","null","prac-sent","false"
"[{""page_index"":0,""viewing_time"":25956}]","25956","instructions","19","289889","0.0-2.0","","","","","","","",""
"","null","html-keyboard-response","20","290992","0.0-3.0-0.0-0.0","<span style= ""font-size:30px; font-family: monospace"">+</span>","null","fixation","","","","",""
"","4960","audio-keyboard-response","21","296553","0.0-3.0-1.0","../audio/22-1-masc.mp3"," ","","Eu","","","",""
"","3192","audio-keyboard-response","22","300025","0.0-3.0-1.1","../audio/22-2-masc.mp3"," ","","detesto","","","",""
"","2640","audio-keyboard-response","23","302937","0.0-3.0-1.2","../audio/22-3-masc.mp3"," ","","fumaça","","","",""
"","2669","audio-keyboard-response","24","305880","0.0-3.0-1.3","../audio/22-4-masc.mp3"," ","","de","","","",""
"","2629","audio-keyboard-response","25","308792","0.0-3.0-1.4","../audio/22-5-masc.mp3"," ","","cachimbo","","","",""
"","1819","audio-keyboard-response","26","310888","0.0-3.0-1.5","../audio/22-6-masc.mp3"," ","","e","","","",""
"","2520","audio-keyboard-response","27","313672","0.0-3.0-1.6","../audio/22-7-masc.mp3"," ","","de","","","",""
"","2400","audio-keyboard-response","28","316360","0.0-3.0-1.7","../audio/22-8-masc.mp3"," ","","cigarro.","","","",""
"","null","html-keyboard-response","29","317619","0.0-3.0-0.8-0.8","<span style= ""font-size:30px; font-family: monospace"">+</span>","null","fixation","","","","",""
"","2240","audio-keyboard-response","30","320136","0.0-3.0-1.8","../audio/24-1-fem.mp3"," ","","As","","","",""
"","2699","audio-keyboard-response","31","323128","0.0-3.0-1.9","../audio/24-2-fem.mp3"," ","","crianças","","","",""
"","2400","audio-keyboard-response","32","325800","0.0-3.0-1.10","../audio/24-3-fem.mp3"," ","","vão","","","",""
"","2101","audio-keyboard-response","33","328184","0.0-3.0-1.11","../audio/24-4-fem.mp3"," ","","ao","","","",""
"","1840","audio-keyboard-response","34","330296","0.0-3.0-1.12","../audio/24-5-fem.mp3"," ","","cinema","","","",""
"","1749","audio-keyboard-response","35","332328","0.0-3.0-1.13","../audio/24-6-fem.mp3"," ","","mais","","","",""
"","1531","audio-keyboard-response","36","334120","0.0-3.0-1.14","../audio/24-7-fem.mp3"," ","","tarde.","","","",""
"","null","html-keyboard-response","37","335399","0.0-3.0-0.15-0.15","<span style= ""font-size:30px; font-family: monospace"">+</span>","null","fixation","","","","",""
"","2400","audio-keyboard-response","38","338072","0.0-3.0-1.15","../audio/21-1-fem.mp3"," ","","Precisamos","","","",""
"","1112","audio-keyboard-response","39","339464","0.0-3.0-1.16","../audio/21-2-fem.mp3"," ","","de","","","",""
"","2328","audio-keyboard-response","40","342072","0.0-3.0-1.17","../audio/21-3-fem.mp3"," ","","paciência","","","",""
"","1389","audio-keyboard-response","41","343736","0.0-3.0-1.18","../audio/21-4-fem.mp3"," ","","e","","","",""
"","1640","audio-keyboard-response","42","345655","0.0-3.0-1.19","../audio/21-5-fem.mp3"," ","","bondade","","","",""
"","2379","audio-keyboard-response","43","348312","0.0-3.0-1.20","../audio/21-6-fem.mp3"," ","","para","","","",""
"","1739","audio-keyboard-response","44","350328","0.0-3.0-1.21","../audio/21-7-fem.mp3"," ","","um","","","",""
"","1949","audio-keyboard-response","45","352552","0.0-3.0-1.22","../audio/21-8-fem.mp3"," ","","mundo","","","",""
"","2200","audio-keyboard-response","46","355032","0.0-3.0-1.23","../audio/21-9-fem.mp3"," ","","melhor.","","","",""
"","null","html-keyboard-response","47","356292","0.0-3.0-0.24-0.24","<span style= ""font-size:30px; font-family: monospace"">+</span>","null","fixation","","","","",""
"","4349","audio-keyboard-response","48","360920","0.0-3.0-1.24","../audio/23-1-masc.mp3"," ","","Português","","","",""
"","3072","audio-keyboard-response","49","364264","0.0-3.0-1.25","../audio/23-2-masc.mp3"," ","","é","","","",""
"","1789","audio-keyboard-response","50","366319","0.0-3.0-1.26","../audio/23-3-masc.mp3"," ","","um","","","",""
"","1931","audio-keyboard-response","51","368527","0.0-3.0-1.27","../audio/23-4-masc.mp3"," ","","assunto","","","",""
"","1851","audio-keyboard-response","52","370655","0.0-3.0-1.28","../audio/23-5-masc.mp3"," ","","elementar","","","",""
"","1731","audio-keyboard-response","53","372655","0.0-3.0-1.29","../audio/23-6-masc.mp3"," ","","para","","","",""
"","1520","audio-keyboard-response","54","374447","0.0-3.0-1.30","../audio/23-7-masc.mp3"," ","","os","","","",""
"","1379","audio-keyboard-response","55","376111","0.0-3.0-1.31","../audio/23-8-masc.mp3"," ","","alunos.","","","",""
"","null","html-keyboard-response","56","377401","0.0-3.0-0.32-0.32","<span style= ""font-size:30px; font-family: monospace"">+</span>","null","fixation","","","","",""
"","2920","audio-keyboard-response","57","380591","0.0-3.0-1.32","../audio/25-1-fem.mp3"," ","","Ela","","","",""
"","2131","audio-keyboard-response","58","383007","0.0-3.0-1.33","../audio/25-2-fem.mp3"," ","","faz","","","",""
"","2309","audio-keyboard-response","59","385583","0.0-3.0-1.34","../audio/25-3-fem.mp3"," ","","tanto","","","",""
"","2560","audio-keyboard-response","60","388463","0.0-3.0-1.35","../audio/25-4-fem.mp3"," ","","cabelo","","","",""
"","3091","audio-keyboard-response","61","391839","0.0-3.0-1.36","../audio/25-5-fem.mp3"," ","","liso","","","",""
"","1371","audio-keyboard-response","62","393471","0.0-3.0-1.37","../audio/25-6-fem.mp3"," ","","quanto","","","",""
"","1611","audio-keyboard-response","63","395359","0.0-3.0-1.38","../audio/25-7-fem.mp3"," ","","cacheado.","","","",""
"","70853","html-keyboard-response","64","466472","0.0-3.0-2.38-0.38","<span style=""font-size:25px; font-family: monospace"">Ela só faz cabelo cacheado?</span>","s","","","Ela só faz cabelo cacheado?","null","exp-sent","false"
"","null","html-keyboard-response","65","467975","0.0-3.0-0.39-0.39","<span style= ""font-size:30px; font-family: monospace"">+</span>","null","fixation","","","","",""
"","3731","audio-keyboard-response","66","472312","0.0-3.0-1.39","../audio/14-1-fem.mp3"," ","","O","","","",""
"","2509","audio-keyboard-response","67","475095","0.0-3.0-1.40","../audio/14-2-fem.mp3"," ","","cachorro","","","",""
"","1600","audio-keyboard-response","68","476984","0.0-3.0-1.41","../audio/14-3-fem.mp3"," ","","é","","","",""
"","1320","audio-keyboard-response","69","478583","0.0-3.0-1.42","../audio/14-4-fem.mp3"," ","","muito","","","",""
"","1139","audio-keyboard-response","70","480007","0.0-3.0-1.43","../audio/14-5-fem.mp3"," ","","fiel","","","",""
"","920","audio-keyboard-response","71","481207","0.0-3.0-1.44","../audio/14-6-fem.mp3"," ","","a","","","",""
"","1381","audio-keyboard-response","72","482855","0.0-3.0-1.45","../audio/14-7-fem.mp3"," ","","seus","","","",""
"","1400","audio-keyboard-response","73","484535","0.0-3.0-1.46","../audio/14-8-fem.mp3"," ","","donos.","","","",""
"","null","html-keyboard-response","74","485823","0.0-3.0-0.47-0.47","<span style= ""font-size:30px; font-family: monospace"">+</span>","null","fixation","","","","",""
"","1589","audio-keyboard-response","75","487703","0.0-3.0-1.47","../audio/12-1-masc.mp3"," ","","O","","","",""
"","1701","audio-keyboard-response","76","489671","0.0-3.0-1.48","../audio/12-2-masc.mp3"," ","","dia","","","",""
"","1891","audio-keyboard-response","77","491831","0.0-3.0-1.49","../audio/12-3-masc.mp3"," ","","estava","","","",""
"","3288","audio-keyboard-response","78","495399","0.0-3.0-1.50","../audio/12-4-masc.mp3"," ","","quente,","","","",""
"","2051","audio-keyboard-response","79","497735","0.0-3.0-1.51","../audio/12-5-masc.mp3"," ","","tranquilo","","","",""
"","1280","audio-keyboard-response","80","499302","0.0-3.0-1.52","../audio/12-6-masc.mp3"," ","","e","","","",""
"","2891","audio-keyboard-response","81","502471","0.0-3.0-1.53","../audio/12-7-masc.mp3"," ","","ensolarado.","","","",""
"","null","html-keyboard-response","82","503737","0.0-3.0-0.54-0.54","<span style= ""font-size:30px; font-family: monospace"">+</span>","null","fixation","","","","",""
"","1440","audio-keyboard-response","83","505447","0.0-3.0-1.54","../audio/13-1-masc.mp3"," ","","Para","","","",""
"","1821","audio-keyboard-response","84","507543","0.0-3.0-1.55","../audio/13-2-masc.mp3"," ","","mim","","","",""
"","1680","audio-keyboard-response","85","509511","0.0-3.0-1.56","../audio/13-3-masc.mp3"," ","","é","","","",""
"","2488","audio-keyboard-response","86","512279","0.0-3.0-1.57","../audio/13-4-masc.mp3"," ","","muito","","","",""
"","2141","audio-keyboard-response","87","514694","0.0-3.0-1.58","../audio/13-5-masc.mp3"," ","","difícil","","","",""
"","2291","audio-keyboard-response","88","517270","0.0-3.0-1.59","../audio/13-6-masc.mp3"," ","","acordar","","","",""
"","1440","audio-keyboard-response","89","518983","0.0-3.0-1.60","../audio/13-7-masc.mp3"," ","","cedo.","","","",""
"","null","html-keyboard-response","90","520263","0.0-3.0-0.61-0.61","<span style= ""font-size:30px; font-family: monospace"">+</span>","null","fixation","","","","",""
"","1960","audio-keyboard-response","91","522503","0.0-3.0-1.61","../audio/11-1-masc.mp3"," ","","Elas","","","",""
"","2091","audio-keyboard-response","92","524871","0.0-3.0-1.62","../audio/11-2-masc.mp3"," ","","gostam","","","",""
"","3120","audio-keyboard-response","93","528279","0.0-3.0-1.63","../audio/11-3-masc.mp3"," ","","muito","","","",""
"","2579","audio-keyboard-response","94","531126","0.0-3.0-1.64","../audio/11-4-masc.mp3"," ","","de","","","",""
"","1861","audio-keyboard-response","95","533271","0.0-3.0-1.65","../audio/11-5-masc.mp3"," ","","aritmética","","","",""
"","1109","audio-keyboard-response","96","534663","0.0-3.0-1.66","../audio/11-6-masc.mp3"," ","","e","","","",""
"","1280","audio-keyboard-response","97","536231","0.0-3.0-1.67","../audio/11-7-masc.mp3"," ","","de","","","",""
"","1859","audio-keyboard-response","98","538359","0.0-3.0-1.68","../audio/11-8-masc.mp3"," ","","leitura.","","","",""
"","null","html-keyboard-response","99","539633","0.0-3.0-0.69-0.69","<span style= ""font-size:30px; font-family: monospace"">+</span>","null","fixation","","","","",""
"","1240","audio-keyboard-response","100","541143","0.0-3.0-1.69","../audio/15-1-masc.mp3"," ","","Meu","","","",""
"","1120","audio-keyboard-response","101","542551","0.0-3.0-1.70","../audio/15-2-masc.mp3"," ","","primo","","","",""
"","859","audio-keyboard-response","102","543687","0.0-3.0-1.71","../audio/15-3-masc.mp3"," ","","é","","","",""
"","861","audio-keyboard-response","103","544823","0.0-3.0-1.72","../audio/15-4-masc.mp3"," ","","um","","","",""
"","1709","audio-keyboard-response","104","546807","0.0-3.0-1.73","../audio/15-5-masc.mp3"," ","","grande","","","",""
"","3061","audio-keyboard-response","105","550151","0.0-3.0-1.74","../audio/15-6-masc.mp3"," ","","vendedor","","","",""
"","1909","audio-keyboard-response","106","552327","0.0-3.0-1.75","../audio/15-7-masc.mp3"," ","","de","","","",""
"","1901","audio-keyboard-response","107","554503","0.0-3.0-1.76","../audio/15-8-masc.mp3"," ","","carros.","","","",""
"","24541","html-keyboard-response","108","579303","0.0-3.0-2.76-0.76","<span style=""font-size:25px; font-family: monospace"">O primo é um vendedor de carros?</span>","s","","","O primo é um vendedor de carros?","null","exp-sent","false"
"","null","html-keyboard-response","109","580843","0.0-3.0-0.77-0.77","<span style= ""font-size:30px; font-family: monospace"">+</span>","null","fixation","","","","",""
"","3621","audio-keyboard-response","110","584743","0.0-3.0-1.77","../audio/07-1-masc.mp3"," ","","Meu","","","",""
"","2989","audio-keyboard-response","111","588007","0.0-3.0-1.78","../audio/07-2-masc.mp3"," ","","filho","","","",""
"","1251","audio-keyboard-response","112","589527","0.0-3.0-1.79","../audio/07-3-masc.mp3"," ","","é","","","",""
"","3200","audio-keyboard-response","113","592999","0.0-3.0-1.80","../audio/07-4-masc.mp3"," ","","muito","","","",""
"","2440","audio-keyboard-response","114","595719","0.0-3.0-1.81","../audio/07-5-masc.mp3"," ","","responsável","","","",""
"","1941","audio-keyboard-response","115","597943","0.0-3.0-1.82","../audio/07-6-masc.mp3"," ","","nos","","","",""
"","4269","audio-keyboard-response","116","602487","0.0-3.0-1.83","../audio/07-7-masc.mp3"," ","","estudos.","","","",""
"","null","html-keyboard-response","117","603752","0.0-3.0-0.84-0.84","<span style= ""font-size:30px; font-family: monospace"">+</span>","null","fixation","","","","",""
"","4051","audio-keyboard-response","118","608087","0.0-3.0-1.84","../audio/06-1-fem.mp3"," ","","Ouvimos","","","",""
"","1632","audio-keyboard-response","119","609983","0.0-3.0-1.85","../audio/06-2-fem.mp3"," ","","a","","","",""
"","2949","audio-keyboard-response","120","613215","0.0-3.0-1.86","../audio/06-3-fem.mp3"," ","","fala","","","",""
"","1640","audio-keyboard-response","121","615135","0.0-3.0-1.87","../audio/06-4-fem.mp3"," ","","do","","","",""
"","1648","audio-keyboard-response","122","617070","0.0-3.0-1.88","../audio/06-5-fem.mp3"," ","","profeta","","","",""
"","1139","audio-keyboard-response","123","618479","0.0-3.0-1.89","../audio/06-6-fem.mp3"," ","","no","","","",""
"","1440","audio-keyboard-response","124","620191","0.0-3.0-1.90","../audio/06-7-fem.mp3"," ","","púlpito","","","",""
"","1240","audio-keyboard-response","125","621710","0.0-3.0-1.91","../audio/06-8-fem.mp3"," ","","da","","","",""
"","1861","audio-keyboard-response","126","623855","0.0-3.0-1.92","../audio/06-9-fem.mp3"," ","","igreja.","","","",""
"","null","html-keyboard-response","127","625134","0.0-3.0-0.93-0.93","<span style= ""font-size:30px; font-family: monospace"">+</span>","null","fixation","","","","",""
"","1520","audio-keyboard-response","128","626926","0.0-3.0-1.93","../audio/09-1-masc.mp3"," ","","O","","","",""
"","1869","audio-keyboard-response","129","629070","0.0-3.0-1.94","../audio/09-2-masc.mp3"," ","","rapaz","","","",""
"","2368","audio-keyboard-response","130","631711","0.0-3.0-1.95","../audio/09-3-masc.mp3"," ","","limpou","","","",""
"","1699","audio-keyboard-response","131","633678","0.0-3.0-1.96","../audio/09-4-masc.mp3"," ","","o","","","",""
"","1411","audio-keyboard-response","132","635359","0.0-3.0-1.97","../audio/09-5-masc.mp3"," ","","terreno","","","",""
"","2149","audio-keyboard-response","133","637790","0.0-3.0-1.98","../audio/09-6-masc.mp3"," ","","com","","","",""
"","1200","audio-keyboard-response","134","639262","0.0-3.0-1.99","../audio/09-7-masc.mp3"," ","","uma","","","",""
"","1459","audio-keyboard-response","135","640990","0.0-3.0-1.100","../audio/09-8-masc.mp3"," ","","pá.","","","",""
"","null","html-keyboard-response","136","642274","0.0-3.0-0.101-0.101","<span style= ""font-size:30px; font-family: monospace"">+</span>","null","fixation","","","","",""
"","941","audio-keyboard-response","137","643486","0.0-3.0-1.101","../audio/08-1-fem.mp3"," ","","A","","","",""
"","1829","audio-keyboard-response","138","645599","0.0-3.0-1.102","../audio/08-2-fem.mp3"," ","","receita","","","",""
"","2021","audio-keyboard-response","139","647886","0.0-3.0-1.103","../audio/08-3-fem.mp3"," ","","pede","","","",""
"","2269","audio-keyboard-response","140","650430","0.0-3.0-1.104","../audio/08-4-fem.mp3"," ","","um","","","",""
"","1619","audio-keyboard-response","141","652319","0.0-3.0-1.105","../audio/08-5-fem.mp3"," ","","litro","","","",""
"","1811","audio-keyboard-response","142","654415","0.0-3.0-1.106","../audio/08-6-fem.mp3"," ","","de","","","",""
"","2139","audio-keyboard-response","143","656831","0.0-3.0-1.107","../audio/08-7-fem.mp3"," ","","leite","","","",""
"","1459","audio-keyboard-response","144","658558","0.0-3.0-1.108","../audio/08-8-fem.mp3"," ","","integral.","","","",""
"","null","html-keyboard-response","145","659834","0.0-3.0-0.109-0.109","<span style= ""font-size:30px; font-family: monospace"">+</span>","null","fixation","","","","",""
"","1421","audio-keyboard-response","146","661535","0.0-3.0-1.109","../audio/10-1-masc.mp3"," ","","O","","","",""
"","1979","audio-keyboard-response","147","663791","0.0-3.0-1.110","../audio/10-2-masc.mp3"," ","","pássaro","","","",""
"","1701","audio-keyboard-response","148","665775","0.0-3.0-1.111","../audio/10-3-masc.mp3"," ","","azul","","","",""
"","3360","audio-keyboard-response","149","669407","0.0-3.0-1.112","../audio/10-4-masc.mp3"," ","","estava","","","",""
"","2731","audio-keyboard-response","150","672422","0.0-3.0-1.113","../audio/10-5-masc.mp3"," ","","vivo","","","",""
"","1099","audio-keyboard-response","151","673798","0.0-3.0-1.114","../audio/10-6-masc.mp3"," ","","e","","","",""
"","1061","audio-keyboard-response","152","675142","0.0-3.0-1.115","../audio/10-7-masc.mp3"," ","","em","","","",""
"","2029","audio-keyboard-response","153","677462","0.0-3.0-1.116","../audio/10-8-masc.mp3"," ","","segurança.","","","",""
"","40226","html-keyboard-response","154","717958","0.0-3.0-2.116-0.116","<span style=""font-size:25px; font-family: monospace"">O pássaro vermelho estava em segurança?</span>","s","","","O pássaro vermelho estava em segurança?","null","exp-sent","false"
"","null","html-keyboard-response","155","719460","0.0-3.0-0.117-0.117","<span style= ""font-size:30px; font-family: monospace"">+</span>","null","fixation","","","","",""
"","2789","audio-keyboard-response","156","722614","0.0-3.0-1.117","../audio/64-1-masc.mp3"," ","","O","","","",""
"","1931","audio-keyboard-response","157","724822","0.0-3.0-1.118","../audio/64-2-masc.mp3"," ","","dia","","","",""
"","2120","audio-keyboard-response","158","727222","0.0-3.0-1.119","../audio/64-3-masc.mp3"," ","","começou","","","",""
"","1779","audio-keyboard-response","159","729286","0.0-3.0-1.120","../audio/64-4-masc.mp3"," ","","com","","","",""
"","1680","audio-keyboard-response","160","731238","0.0-3.0-1.121","../audio/64-5-masc.mp3"," ","","garoa","","","",""
"","2019","audio-keyboard-response","161","733522","0.0-3.0-1.122","../audio/64-6-masc.mp3"," ","","gelada","","","",""
"","992","audio-keyboard-response","162","734786","0.0-3.0-1.123","../audio/64-7-masc.mp3"," ","","e","","","",""
"","2219","audio-keyboard-response","163","737282","0.0-3.0-1.124","../audio/64-8-masc.mp3"," ","","leve.","","","",""
"","null","html-keyboard-response","164","738549","0.0-3.0-0.125-0.125","<span style= ""font-size:30px; font-family: monospace"">+</span>","null","fixation","","","","",""
"","1640","audio-keyboard-response","165","740450","0.0-3.0-1.125","../audio/61-1-fem.mp3"," ","","Aquele","","","",""
"","1360","audio-keyboard-response","166","742098","0.0-3.0-1.126","../audio/61-2-fem.mp3"," ","","senhor","","","",""
"","1019","audio-keyboard-response","167","743394","0.0-3.0-1.127","../audio/61-3-fem.mp3"," ","","é","","","",""
"","2048","audio-keyboard-response","168","745714","0.0-3.0-1.128","../audio/61-4-fem.mp3"," ","","muito","","","",""
"","1469","audio-keyboard-response","169","747474","0.0-3.0-1.129","../audio/61-5-fem.mp3"," ","","sovina","","","",""
"","960","audio-keyboard-response","170","748706","0.0-3.0-1.130","../audio/61-6-fem.mp3"," ","","e","","","",""
"","2109","audio-keyboard-response","171","751090","0.0-3.0-1.131","../audio/61-7-fem.mp3"," ","","inflexível.","","","",""
"","null","html-keyboard-response","172","752348","0.0-3.0-0.132-0.132","<span style= ""font-size:30px; font-family: monospace"">+</span>","null","fixation","","","","",""
"","1859","audio-keyboard-response","173","754482","0.0-3.0-1.132","../audio/62-1-masc.mp3"," ","","As","","","",""
"","2021","audio-keyboard-response","174","756786","0.0-3.0-1.133","../audio/62-2-masc.mp3"," ","","artesãs","","","",""
"","1539","audio-keyboard-response","175","758594","0.0-3.0-1.134","../audio/62-3-masc.mp3"," ","","gostam","","","",""
"","1309","audio-keyboard-response","176","760178","0.0-3.0-1.135","../audio/62-4-masc.mp3"," ","","de","","","",""
"","1859","audio-keyboard-response","177","762322","0.0-3.0-1.136","../audio/62-5-masc.mp3"," ","","maquiagem","","","",""
"","2501","audio-keyboard-response","178","765106","0.0-3.0-1.137","../audio/62-6-masc.mp3"," ","","e","","","",""
"","1360","audio-keyboard-response","179","766738","0.0-3.0-1.138","../audio/62-7-masc.mp3"," ","","de","","","",""
"","1640","audio-keyboard-response","180","768658","0.0-3.0-1.139","../audio/62-8-masc.mp3"," ","","crochê.","","","",""
"","null","html-keyboard-response","181","769928","0.0-3.0-0.140-0.140","<span style= ""font-size:30px; font-family: monospace"">+</span>","null","fixation","","","","",""
"","1669","audio-keyboard-response","182","771874","0.0-3.0-1.140","../audio/63-1-masc.mp3"," ","","A","","","",""
"","2589","audio-keyboard-response","183","774738","0.0-3.0-1.141","../audio/63-2-masc.mp3"," ","","chuva","","","",""
"","1629","audio-keyboard-response","184","776658","0.0-3.0-1.142","../audio/63-3-masc.mp3"," ","","entrou","","","",""
"","1240","audio-keyboard-response","185","778178","0.0-3.0-1.143","../audio/63-4-masc.mp3"," ","","pela","","","",""
"","2051","audio-keyboard-response","186","780498","0.0-3.0-1.144","../audio/63-5-masc.mp3"," ","","abertura","","","",""
"","1280","audio-keyboard-response","187","782050","0.0-3.0-1.145","../audio/63-6-masc.mp3"," ","","na","","","",""
"","1619","audio-keyboard-response","188","783954","0.0-3.0-1.146","../audio/63-7-masc.mp3"," ","","janela.","","","",""
"","null","html-keyboard-response","189","785238","0.0-3.0-0.147-0.147","<span style= ""font-size:30px; font-family: monospace"">+</span>","null","fixation","","","","",""
"","1141","audio-keyboard-response","190","786658","0.0-3.0-1.147","../audio/65-1-masc.mp3"," ","","O","","","",""
"","1669","audio-keyboard-response","191","788610","0.0-3.0-1.148","../audio/65-2-masc.mp3"," ","","fantasma","","","",""
"","1571","audio-keyboard-response","192","790450","0.0-3.0-1.149","../audio/65-3-masc.mp3"," ","","veio","","","",""
"","1120","audio-keyboard-response","193","791858","0.0-3.0-1.150","../audio/65-4-masc.mp3"," ","","da","","","",""
"","1499","audio-keyboard-response","194","793632","0.0-3.0-1.151","../audio/65-5-masc.mp3"," ","","escuridão","","","",""
"","819","audio-keyboard-response","195","794720","0.0-3.0-1.152","../audio/65-6-masc.mp3"," ","","do","","","",""
"","1491","audio-keyboard-response","196","796480","0.0-3.0-1.153","../audio/65-7-masc.mp3"," ","","armário.","","","",""
"","26566","html-keyboard-response","197","823312","0.0-3.0-2.153-0.153","<span style=""font-size:25px; font-family: monospace"">O fantasma veio da escuridão do armário?</span>","n","","","O fantasma veio da escuridão do armário?","null","exp-sent","false"
"","null","html-keyboard-response","198","824846","0.0-3.0-0.154-0.154","<span style= ""font-size:30px; font-family: monospace"">+</span>","null","fixation","","","","",""
"","5811","audio-keyboard-response","199","830928","0.0-3.0-1.154","../audio/43-1-fem.mp3"," ","","Eu","","","",""
"","1960","audio-keyboard-response","200","833168","0.0-3.0-1.155","../audio/43-2-fem.mp3"," ","","achei","","","",""
"","931","audio-keyboard-response","201","834368","0.0-3.0-1.156","../audio/43-3-fem.mp3"," ","","um","","","",""
"","1251","audio-keyboard-response","202","835888","0.0-3.0-1.157","../audio/43-4-fem.mp3"," ","","colchão","","","",""
"","1261","audio-keyboard-response","203","837424","0.0-3.0-1.158","../audio/43-5-fem.mp3"," ","","velho","","","",""
"","1139","audio-keyboard-response","204","838832","0.0-3.0-1.159","../audio/43-6-fem.mp3"," ","","e","","","",""
"","1621","audio-keyboard-response","205","840736","0.0-3.0-1.160","../audio/43-7-fem.mp3"," ","","imundo","","","",""
"","1189","audio-keyboard-response","206","842208","0.0-3.0-1.161","../audio/43-8-fem.mp3"," ","","na","","","",""
"","1160","audio-keyboard-response","207","843648","0.0-3.0-1.162","../audio/43-9-fem.mp3"," ","","casa.","","","",""
"","null","html-keyboard-response","208","844926","0.0-3.0-0.163-0.163","<span style= ""font-size:30px; font-family: monospace"">+</span>","null","fixation","","","","",""
"","1040","audio-keyboard-response","209","846240","0.0-3.0-1.163","../audio/44-1-masc.mp3"," ","","Meus","","","",""
"","5141","audio-keyboard-response","210","851648","0.0-3.0-1.164","../audio/44-2-masc.mp3"," ","","irmãos","","","",""
"","1120","audio-keyboard-response","211","853056","0.0-3.0-1.165","../audio/44-3-masc.mp3"," ","","brigam","","","",""
"","851","audio-keyboard-response","212","854171","0.0-3.0-1.166","../audio/44-4-masc.mp3"," ","","por","","","",""
"","1099","audio-keyboard-response","213","855547","0.0-3.0-1.167","../audio/44-5-masc.mp3"," ","","bobagem","","","",""
"","901","audio-keyboard-response","214","856731","0.0-3.0-1.168","../audio/44-6-masc.mp3"," ","","todos","","","",""
"","909","audio-keyboard-response","215","857915","0.0-3.0-1.169","../audio/44-7-masc.mp3"," ","","os","","","",""
"","1341","audio-keyboard-response","216","859531","0.0-3.0-1.170","../audio/44-8-masc.mp3"," ","","dias.","","","",""
"","null","html-keyboard-response","217","860792","0.0-3.0-0.171-0.171","<span style= ""font-size:30px; font-family: monospace"">+</span>","null","fixation","","","","",""
"","1571","audio-keyboard-response","218","862635","0.0-3.0-1.171","../audio/41-1-fem.mp3"," ","","A","","","",""
"","1491","audio-keyboard-response","219","864395","0.0-3.0-1.172","../audio/41-2-fem.mp3"," ","","novela","","","",""
"","1200","audio-keyboard-response","220","865867","0.0-3.0-1.173","../audio/41-3-fem.mp3"," ","","falava","","","",""
"","1189","audio-keyboard-response","221","867323","0.0-3.0-1.174","../audio/41-4-fem.mp3"," ","","de","","","",""
"","1251","audio-keyboard-response","222","868843","0.0-3.0-1.175","../audio/41-5-fem.mp3"," ","","paixão","","","",""
"","720","audio-keyboard-response","223","869835","0.0-3.0-1.176","../audio/41-6-fem.mp3"," ","","e","","","",""
"","1251","audio-keyboard-response","224","871371","0.0-3.0-1.177","../audio/41-7-fem.mp3"," ","","comédia.","","","",""
"","null","html-keyboard-response","225","872642","0.0-3.0-0.178-0.178","<span style= ""font-size:30px; font-family: monospace"">+</span>","null","fixation","","","","",""
"","909","audio-keyboard-response","226","873835","0.0-3.0-1.178","../audio/42-1-masc.mp3"," ","","Eu","","","",""
"","709","audio-keyboard-response","227","874811","0.0-3.0-1.179","../audio/42-2-masc.mp3"," ","","fui","","","",""
"","779","audio-keyboard-response","228","875867","0.0-3.0-1.180","../audio/42-3-masc.mp3"," ","","a","","","",""
"","861","audio-keyboard-response","229","877003","0.0-3.0-1.181","../audio/42-4-masc.mp3"," ","","uma","","","",""
"","1069","audio-keyboard-response","230","878347","0.0-3.0-1.182","../audio/42-5-masc.mp3"," ","","loja","","","",""
"","928","audio-keyboard-response","231","879547","0.0-3.0-1.183","../audio/42-6-masc.mp3"," ","","de","","","",""
"","1069","audio-keyboard-response","232","880891","0.0-3.0-1.184","../audio/42-7-masc.mp3"," ","","móveis","","","",""
"","909","audio-keyboard-response","233","882075","0.0-3.0-1.185","../audio/42-8-masc.mp3"," ","","no","","","",""
"","709","audio-keyboard-response","234","883067","0.0-3.0-1.186","../audio/42-9-masc.mp3"," ","","bairro.","","","",""
"","null","html-keyboard-response","235","884331","0.0-3.0-0.187-0.187","<span style= ""font-size:30px; font-family: monospace"">+</span>","null","fixation","","","","",""
"","160","audio-keyboard-response","236","884763","0.0-3.0-1.187","../audio/45-1-masc.mp3"," ","","O","","","",""
"","1080","audio-keyboard-response","237","886123","0.0-3.0-1.188","../audio/45-2-masc.mp3"," ","","homem","","","",""
"","1011","audio-keyboard-response","238","887419","0.0-3.0-1.189","../audio/45-3-masc.mp3"," ","","pagou","","","",""
"","760","audio-keyboard-response","239","888459","0.0-3.0-1.190","../audio/45-4-masc.mp3"," ","","o","","","",""
"","1109","audio-keyboard-response","240","889851","0.0-3.0-1.191","../audio/45-5-masc.mp3"," ","","aluguel","","","",""
"","989","audio-keyboard-response","241","891131","0.0-3.0-1.192","../audio/45-6-masc.mp3"," ","","com","","","",""
"","1440","audio-keyboard-response","242","892859","0.0-3.0-1.193","../audio/45-7-masc.mp3"," ","","atraso.","","","",""
"","17108","html-keyboard-response","243","910219","0.0-3.0-2.193-0.193","<span style=""font-size:25px; font-family: monospace"">O homem pagou o aluguel em dia?</span>","n","","","O homem pagou o aluguel em dia?","null","exp-sent","false"
"","null","html-keyboard-response","244","911735","0.0-3.0-0.194-0.194","<span style= ""font-size:30px; font-family: monospace"">+</span>","null","fixation","","","","",""
"","899","audio-keyboard-response","245","912907","0.0-3.0-1.194","../audio/56-1-masc.mp3"," ","","A","","","",""
"","1112","audio-keyboard-response","246","914301","0.0-3.0-1.195","../audio/56-2-masc.mp3"," ","","moça","","","",""
"","819","audio-keyboard-response","247","915389","0.0-3.0-1.196","../audio/56-3-masc.mp3"," ","","foi","","","",""
"","861","audio-keyboard-response","248","916525","0.0-3.0-1.197","../audio/56-4-masc.mp3"," ","","à","","","",""
"","1051","audio-keyboard-response","249","917853","0.0-3.0-1.198","../audio/56-5-masc.mp3"," ","","agência","","","",""
"","1429","audio-keyboard-response","250","919565","0.0-3.0-1.199","../audio/56-6-masc.mp3"," ","","bancária","","","",""
"","1051","audio-keyboard-response","251","920877","0.0-3.0-1.200","../audio/56-7-masc.mp3"," ","","ontem","","","",""
"","691","audio-keyboard-response","252","921853","0.0-3.0-1.201","../audio/56-8-masc.mp3"," ","","de","","","",""
"","981","audio-keyboard-response","253","923101","0.0-3.0-1.202","../audio/56-9-masc.mp3"," ","","tarde.","","","",""
"","null","html-keyboard-response","254","924384","0.0-3.0-0.203-0.203","<span style= ""font-size:30px; font-family: monospace"">+</span>","null","fixation","","","","",""
"","1141","audio-keyboard-response","255","925805","0.0-3.0-1.203","../audio/58-1-fem.mp3"," ","","Havia","","","",""
"","1320","audio-keyboard-response","256","927405","0.0-3.0-1.204","../audio/58-2-fem.mp3"," ","","apenas","","","",""
"","739","audio-keyboard-response","257","928429","0.0-3.0-1.205","../audio/58-3-fem.mp3"," ","","um","","","",""
"","1240","audio-keyboard-response","258","929949","0.0-3.0-1.206","../audio/58-4-fem.mp3"," ","","último","","","",""
"","1088","audio-keyboard-response","259","931309","0.0-3.0-1.207","../audio/58-5-fem.mp3"," ","","herdeiro","","","",""
"","739","audio-keyboard-response","260","932317","0.0-3.0-1.208","../audio/58-6-fem.mp3"," ","","do","","","",""
"","1211","audio-keyboard-response","261","933821","0.0-3.0-1.209","../audio/58-7-fem.mp3"," ","","dinheiro.","","","",""
"","null","html-keyboard-response","262","935093","0.0-3.0-0.210-0.210","<span style= ""font-size:30px; font-family: monospace"">+</span>","null","fixation","","","","",""
"","149","audio-keyboard-response","263","935517","0.0-3.0-1.210","../audio/59-1-masc.mp3"," ","","O","","","",""
"","1211","audio-keyboard-response","264","937005","0.0-3.0-1.211","../audio/59-2-masc.mp3"," ","","carteiro","","","",""
"","941","audio-keyboard-response","265","938221","0.0-3.0-1.212","../audio/59-3-masc.mp3"," ","","fez","","","",""
"","899","audio-keyboard-response","266","939389","0.0-3.0-1.213","../audio/59-4-masc.mp3"," ","","uma","","","",""
"","1088","audio-keyboard-response","267","940749","0.0-3.0-1.214","../audio/59-5-masc.mp3"," ","","tentativa","","","",""
"","749","audio-keyboard-response","268","941773","0.0-3.0-1.215","../audio/59-6-masc.mp3"," ","","de","","","",""
"","1080","audio-keyboard-response","269","943117","0.0-3.0-1.216","../audio/59-7-masc.mp3"," ","","entrega.","","","",""
"","null","html-keyboard-response","270","944394","0.0-3.0-0.217-0.217","<span style= ""font-size:30px; font-family: monospace"">+</span>","null","fixation","","","","",""
"","672","audio-keyboard-response","271","945341","0.0-3.0-1.217","../audio/57-1-masc.mp3"," ","","O","","","",""
"","1280","audio-keyboard-response","272","946893","0.0-3.0-1.218","../audio/57-2-masc.mp3"," ","","capitão","","","",""
"","840","audio-keyboard-response","273","947997","0.0-3.0-1.219","../audio/57-3-masc.mp3"," ","","deu","","","",""
"","811","audio-keyboard-response","274","949085","0.0-3.0-1.220","../audio/57-4-masc.mp3"," ","","uma","","","",""
"","1469","audio-keyboard-response","275","950829","0.0-3.0-1.221","../audio/57-5-masc.mp3"," ","","instrução","","","",""
"","712","audio-keyboard-response","276","951821","0.0-3.0-1.222","../audio/57-6-masc.mp3"," ","","para","","","",""
"","808","audio-keyboard-response","277","952909","0.0-3.0-1.223","../audio/57-7-masc.mp3"," ","","as","","","",""
"","1261","audio-keyboard-response","278","954445","0.0-3.0-1.224","../audio/57-8-masc.mp3"," ","","pessoas.","","","",""
"","null","html-keyboard-response","279","955714","0.0-3.0-0.225-0.225","<span style= ""font-size:30px; font-family: monospace"">+</span>","null","fixation","","","","",""
"","261","audio-keyboard-response","280","956253","0.0-3.0-1.225","../audio/60-1-fem.mp3"," ","","Ondas","","","",""
"","1040","audio-keyboard-response","281","957565","0.0-3.0-1.226","../audio/60-2-fem.mp3"," ","","têm","","","",""
"","1200","audio-keyboard-response","282","959053","0.0-3.0-1.227","../audio/60-3-fem.mp3"," ","","um","","","",""
"","1040","audio-keyboard-response","283","960365","0.0-3.0-1.228","../audio/60-4-fem.mp3"," ","","impacto","","","",""
"","1051","audio-keyboard-response","284","961693","0.0-3.0-1.229","../audio/60-5-fem.mp3"," ","","destrutivo","","","",""
"","1131","audio-keyboard-response","285","963101","0.0-3.0-1.230","../audio/60-6-fem.mp3"," ","","no","","","",""
"","1389","audio-keyboard-response","286","964765","0.0-3.0-1.231","../audio/60-7-fem.mp3"," ","","litoral.","","","",""
"","9376","html-keyboard-response","287","974401","0.0-3.0-2.231-0.231","<span style=""font-size:25px; font-family: monospace"">Ondas têm um impacto destrutivo?</span>","s","","","Ondas têm um impacto destrutivo?","null","exp-sent","false"
"","null","html-keyboard-response","288","975927","0.0-3.0-0.232-0.232","<span style= ""font-size:30px; font-family: monospace"">+</span>","null","fixation","","","","",""
"","1309","audio-keyboard-response","289","977521","0.0-3.0-1.232","../audio/53-1-masc.mp3"," ","","O","","","",""
"","1072","audio-keyboard-response","290","978865","0.0-3.0-1.233","../audio/53-2-masc.mp3"," ","","médico","","","",""
"","920","audio-keyboard-response","291","980049","0.0-3.0-1.234","../audio/53-3-masc.mp3"," ","","foi","","","",""
"","1269","audio-keyboard-response","292","981601","0.0-3.0-1.235","../audio/53-4-masc.mp3"," ","","bastante","","","",""
"","1101","audio-keyboard-response","293","982977","0.0-3.0-1.236","../audio/53-5-masc.mp3"," ","","preciso","","","",""
"","1120","audio-keyboard-response","294","984369","0.0-3.0-1.237","../audio/53-6-masc.mp3"," ","","durante","","","",""
"","811","audio-keyboard-response","295","985457","0.0-3.0-1.238","../audio/53-7-masc.mp3"," ","","a","","","",""
"","1371","audio-keyboard-response","296","987105","0.0-3.0-1.239","../audio/53-8-masc.mp3"," ","","cirurgia.","","","",""
"","null","html-keyboard-response","297","988367","0.0-3.0-0.240-0.240","<span style= ""font-size:30px; font-family: monospace"">+</span>","null","fixation","","","","",""
"","781","audio-keyboard-response","298","989425","0.0-3.0-1.240","../audio/52-1-masc.mp3"," ","","Às","","","",""
"","1019","audio-keyboard-response","299","990721","0.0-3.0-1.241","../audio/52-2-masc.mp3"," ","","vezes","","","",""
"","1101","audio-keyboard-response","300","992097","0.0-3.0-1.242","../audio/52-3-masc.mp3"," ","","eu","","","",""
"","1019","audio-keyboard-response","301","993393","0.0-3.0-1.243","../audio/52-4-masc.mp3"," ","","tenho","","","",""
"","1240","audio-keyboard-response","302","994913","0.0-3.0-1.244","../audio/52-5-masc.mp3"," ","","azia","","","",""
"","1379","audio-keyboard-response","303","996561","0.0-3.0-1.245","../audio/52-6-masc.mp3"," ","","depois","","","",""
"","840","audio-keyboard-response","304","997681","0.0-3.0-1.246","../audio/52-7-masc.mp3"," ","","da","","","",""
"","1181","audio-keyboard-response","305","999137","0.0-3.0-1.247","../audio/52-8-masc.mp3"," ","","janta.","","","",""
"","null","html-keyboard-response","306","1000417","0.0-3.0-0.248-0.248","<span style= ""font-size:30px; font-family: monospace"">+</span>","null","fixation","","","","",""
"","1709","audio-keyboard-response","307","1002417","0.0-3.0-1.248","../audio/54-1-masc.mp3"," ","","Estou","","","",""
"","1899","audio-keyboard-response","308","1004593","0.0-3.0-1.249","../audio/54-2-masc.mp3"," ","","com","","","",""
"","1229","audio-keyboard-response","309","1006097","0.0-3.0-1.250","../audio/54-3-masc.mp3"," ","","medo","","","",""
"","829","audio-keyboard-response","310","1007201","0.0-3.0-1.251","../audio/54-4-masc.mp3"," ","","da","","","",""
"","1141","audio-keyboard-response","311","1008625","0.0-3.0-1.252","../audio/54-5-masc.mp3"," ","","atual","","","",""
"","1840","audio-keyboard-response","312","1010753","0.0-3.0-1.253","../audio/54-6-masc.mp3"," ","","organização","","","",""
"","979","audio-keyboard-response","313","1012001","0.0-3.0-1.254","../audio/54-7-masc.mp3"," ","","do","","","",""
"","1720","audio-keyboard-response","314","1014001","0.0-3.0-1.255","../audio/54-8-masc.mp3"," ","","país.","","","",""
"","null","html-keyboard-response","315","1015267","0.0-3.0-0.256-0.256","<span style= ""font-size:30px; font-family: monospace"">+</span>","null","fixation","","","","",""
"","1448","audio-keyboard-response","316","1016993","0.0-3.0-1.256","../audio/51-1-fem.mp3"," ","","Suco","","","",""
"","979","audio-keyboard-response","317","1018241","0.0-3.0-1.257","../audio/51-2-fem.mp3"," ","","de","","","",""
"","1491","audio-keyboard-response","318","1020001","0.0-3.0-1.258","../audio/51-3-fem.mp3"," ","","acerola","","","",""
"","691","audio-keyboard-response","319","1020961","0.0-3.0-1.259","../audio/51-4-fem.mp3"," ","","é","","","",""
"","992","audio-keyboard-response","320","1022225","0.0-3.0-1.260","../audio/51-5-fem.mp3"," ","","azedo","","","",""
"","691","audio-keyboard-response","321","1023185","0.0-3.0-1.261","../audio/51-6-fem.mp3"," ","","e","","","",""
"","960","audio-keyboard-response","322","1024417","0.0-3.0-1.262","../audio/51-7-fem.mp3"," ","","até","","","",""
"","1131","audio-keyboard-response","323","1025825","0.0-3.0-1.263","../audio/51-8-fem.mp3"," ","","barato.","","","",""
"","null","html-keyboard-response","324","1027107","0.0-3.0-0.264-0.264","<span style= ""font-size:30px; font-family: monospace"">+</span>","null","fixation","","","","",""
"","141","audio-keyboard-response","325","1027537","0.0-3.0-1.264","../audio/55-1-masc.mp3"," ","","O","","","",""
"","1251","audio-keyboard-response","326","1029057","0.0-3.0-1.265","../audio/55-2-masc.mp3"," ","","insulto","","","",""
"","1160","audio-keyboard-response","327","1030481","0.0-3.0-1.266","../audio/55-3-masc.mp3"," ","","recente","","","",""
"","891","audio-keyboard-response","328","1031649","0.0-3.0-1.267","../audio/55-4-masc.mp3"," ","","causou","","","",""
"","1400","audio-keyboard-response","329","1033329","0.0-3.0-1.268","../audio/55-5-masc.mp3"," ","","indignação","","","",""
"","840","audio-keyboard-response","330","1034450","0.0-3.0-1.269","../audio/55-6-masc.mp3"," ","","em","","","",""
"","1000","audio-keyboard-response","331","1035730","0.0-3.0-1.270","../audio/55-7-masc.mp3"," ","","todos.","","","",""
"","7534","html-keyboard-response","332","1043523","0.0-3.0-2.270-0.270","<span style=""font-size:25px; font-family: monospace"">O insulto causou calmaria?</span>","n","","","O insulto causou calmaria?","null","exp-sent","false"
"","null","html-keyboard-response","333","1045059","0.0-3.0-0.271-0.271","<span style= ""font-size:30px; font-family: monospace"">+</span>","null","fixation","","","","",""
"","1451","audio-keyboard-response","334","1046786","0.0-3.0-1.271","../audio/67-1-fem.mp3"," ","","Minha","","","",""
"","1149","audio-keyboard-response","335","1048210","0.0-3.0-1.272","../audio/67-2-fem.mp3"," ","","tia","","","",""
"","1291","audio-keyboard-response","336","1049778","0.0-3.0-1.273","../audio/67-3-fem.mp3"," ","","comprou","","","",""
"","851","audio-keyboard-response","337","1050899","0.0-3.0-1.274","../audio/67-4-fem.mp3"," ","","um","","","",""
"","1179","audio-keyboard-response","338","1052354","0.0-3.0-1.275","../audio/67-5-fem.mp3"," ","","cordão","","","",""
"","891","audio-keyboard-response","339","1053522","0.0-3.0-1.276","../audio/67-6-fem.mp3"," ","","para","","","",""
"","720","audio-keyboard-response","340","1054514","0.0-3.0-1.277","../audio/67-7-fem.mp3"," ","","o","","","",""
"","979","audio-keyboard-response","341","1055762","0.0-3.0-1.278","../audio/67-8-fem.mp3"," ","","varal.","","","",""
"","null","html-keyboard-response","342","1057029","0.0-3.0-0.279-0.279","<span style= ""font-size:30px; font-family: monospace"">+</span>","null","fixation","","","","",""
"","1120","audio-keyboard-response","343","1058434","0.0-3.0-1.279","../audio/68-1-masc.mp3"," ","","Meu","","","",""
"","989","audio-keyboard-response","344","1059698","0.0-3.0-1.280","../audio/68-2-masc.mp3"," ","","irmão","","","",""
"","1008","audio-keyboard-response","345","1060994","0.0-3.0-1.281","../audio/68-3-masc.mp3"," ","","teve","","","",""
"","829","audio-keyboard-response","346","1062098","0.0-3.0-1.282","../audio/68-4-masc.mp3"," ","","um","","","",""
"","1160","audio-keyboard-response","347","1063522","0.0-3.0-1.283","../audio/68-5-masc.mp3"," ","","noivado","","","",""
"","1011","audio-keyboard-response","348","1064819","0.0-3.0-1.284","../audio/68-6-masc.mp3"," ","","longo","","","",""
"","669","audio-keyboard-response","349","1065762","0.0-3.0-1.285","../audio/68-7-masc.mp3"," ","","e","","","",""
"","1261","audio-keyboard-response","350","1067298","0.0-3.0-1.286","../audio/68-8-masc.mp3"," ","","maravilhoso.","","","",""
"","null","html-keyboard-response","351","1068559","0.0-3.0-0.287-0.287","<span style= ""font-size:30px; font-family: monospace"">+</span>","null","fixation","","","","",""
"","901","audio-keyboard-response","352","1069730","0.0-3.0-1.287","../audio/69-1-fem.mp3"," ","","A","","","",""
"","1149","audio-keyboard-response","353","1071154","0.0-3.0-1.288","../audio/69-2-fem.mp3"," ","","loja","","","",""
"","1261","audio-keyboard-response","354","1072691","0.0-3.0-1.289","../audio/69-3-fem.mp3"," ","","recebeu","","","",""
"","920","audio-keyboard-response","355","1073890","0.0-3.0-1.290","../audio/69-4-fem.mp3"," ","","uma","","","",""
"","1120","audio-keyboard-response","356","1075298","0.0-3.0-1.291","../audio/69-5-fem.mp3"," ","","poltrona","","","",""
"","1000","audio-keyboard-response","357","1076562","0.0-3.0-1.292","../audio/69-6-fem.mp3"," ","","de","","","",""
"","1120","audio-keyboard-response","358","1077954","0.0-3.0-1.293","../audio/69-7-fem.mp3"," ","","couro","","","",""
"","989","audio-keyboard-response","359","1079218","0.0-3.0-1.294","../audio/69-8-fem.mp3"," ","","preto.","","","",""
"","null","html-keyboard-response","360","1080489","0.0-3.0-0.295-0.295","<span style= ""font-size:30px; font-family: monospace"">+</span>","null","fixation","","","","",""
"","69","audio-keyboard-response","361","1080834","0.0-3.0-1.295","../audio/66-1-fem.mp3"," ","","Não","","","",""
"","1309","audio-keyboard-response","362","1082418","0.0-3.0-1.296","../audio/66-2-fem.mp3"," ","","gosto","","","",""
"","851","audio-keyboard-response","363","1083538","0.0-3.0-1.297","../audio/66-3-fem.mp3"," ","","de","","","",""
"","1291","audio-keyboard-response","364","1085106","0.0-3.0-1.298","../audio/66-4-fem.mp3"," ","","gente","","","",""
"","1411","audio-keyboard-response","365","1086787","0.0-3.0-1.299","../audio/66-5-fem.mp3"," ","","egoísta","","","",""
"","1120","audio-keyboard-response","366","1088178","0.0-3.0-1.300","../audio/66-6-fem.mp3"," ","","nem","","","",""
"","1200","audio-keyboard-response","367","1089650","0.0-3.0-1.301","../audio/66-7-fem.mp3"," ","","chata.","","","",""
"","null","html-keyboard-response","368","1090938","0.0-3.0-0.302-0.302","<span style= ""font-size:30px; font-family: monospace"">+</span>","null","fixation","","","","",""
"","869","audio-keyboard-response","369","1092082","0.0-3.0-1.302","../audio/70-1-fem.mp3"," ","","O","","","",""
"","821","audio-keyboard-response","370","1093170","0.0-3.0-1.303","../audio/70-2-fem.mp3"," ","","meu","","","",""
"","1011","audio-keyboard-response","371","1094450","0.0-3.0-1.304","../audio/70-3-fem.mp3"," ","","filho","","","",""
"","880","audio-keyboard-response","372","1095620","0.0-3.0-1.305","../audio/70-4-fem.mp3"," ","","tem","","","",""
"","1080","audio-keyboard-response","373","1096964","0.0-3.0-1.306","../audio/70-5-fem.mp3"," ","","medo","","","",""
"","901","audio-keyboard-response","374","1098148","0.0-3.0-1.307","../audio/70-6-fem.mp3"," ","","de","","","",""
"","1368","audio-keyboard-response","375","1099796","0.0-3.0-1.308","../audio/70-7-fem.mp3"," ","","enguia","","","",""
"","579","audio-keyboard-response","376","1100644","0.0-3.0-1.309","../audio/70-8-fem.mp3"," ","","e","","","",""
"","672","audio-keyboard-response","377","1101588","0.0-3.0-1.310","../audio/70-9-fem.mp3"," ","","beija-flor.","","","",""
"","10193","html-keyboard-response","378","1112036","0.0-3.0-2.310-0.310","<span style=""font-size:25px; font-family: monospace"">O filho tem medo de tigre?</span>","n","","","O filho tem medo de tigre?","null","exp-sent","false"
"","null","html-keyboard-response","379","1113560","0.0-3.0-0.311-0.311","<span style= ""font-size:30px; font-family: monospace"">+</span>","null","fixation","","","","",""
"","1181","audio-keyboard-response","380","1115012","0.0-3.0-1.311","../audio/34-1-masc.mp3"," ","","Cobrança","","","",""
"","1200","audio-keyboard-response","381","1116500","0.0-3.0-1.312","../audio/34-2-masc.mp3"," ","","excessiva","","","",""
"","1149","audio-keyboard-response","382","1117924","0.0-3.0-1.313","../audio/34-3-masc.mp3"," ","","é","","","",""
"","709","audio-keyboard-response","383","1118900","0.0-3.0-1.314","../audio/34-4-masc.mp3"," ","","um","","","",""
"","960","audio-keyboard-response","384","1120132","0.0-3.0-1.315","../audio/34-5-masc.mp3"," ","","fardo","","","",""
"","1011","audio-keyboard-response","385","1121412","0.0-3.0-1.316","../audio/34-6-masc.mp3"," ","","para","","","",""
"","731","audio-keyboard-response","386","1122420","0.0-3.0-1.317","../audio/34-7-masc.mp3"," ","","a","","","",""
"","1389","audio-keyboard-response","387","1124100","0.0-3.0-1.318","../audio/34-8-masc.mp3"," ","","cabeça.","","","",""
"","null","html-keyboard-response","388","1125380","0.0-3.0-0.319-0.319","<span style= ""font-size:30px; font-family: monospace"">+</span>","null","fixation","","","","",""
"","829","audio-keyboard-response","389","1126484","0.0-3.0-1.319","../audio/31-1-masc.mp3"," ","","O","","","",""
"","1141","audio-keyboard-response","390","1127908","0.0-3.0-1.320","../audio/31-2-masc.mp3"," ","","padeiro","","","",""
"","1048","audio-keyboard-response","391","1129236","0.0-3.0-1.321","../audio/31-3-masc.mp3"," ","","usou","","","",""
"","829","audio-keyboard-response","392","1130340","0.0-3.0-1.322","../audio/31-4-masc.mp3"," ","","a","","","",""
"","1320","audio-keyboard-response","393","1131940","0.0-3.0-1.323","../audio/31-5-masc.mp3"," ","","balança","","","",""
"","880","audio-keyboard-response","394","1133092","0.0-3.0-1.324","../audio/31-6-masc.mp3"," ","","o","","","",""
"","1160","audio-keyboard-response","395","1134532","0.0-3.0-1.325","../audio/31-7-masc.mp3"," ","","dia","","","",""
"","1429","audio-keyboard-response","396","1136244","0.0-3.0-1.326","../audio/31-8-masc.mp3"," ","","inteiro.","","","",""
"","null","html-keyboard-response","397","1137511","0.0-3.0-0.327-0.327","<span style= ""font-size:30px; font-family: monospace"">+</span>","null","fixation","","","","",""
"","760","audio-keyboard-response","398","1138548","0.0-3.0-1.327","../audio/32-1-masc.mp3"," ","","A","","","",""
"","1000","audio-keyboard-response","399","1139828","0.0-3.0-1.328","../audio/32-2-masc.mp3"," ","","tia","","","",""
"","1128","audio-keyboard-response","400","1141236","0.0-3.0-1.329","../audio/32-3-masc.mp3"," ","","comprou","","","",""
"","811","audio-keyboard-response","401","1142324","0.0-3.0-1.330","../audio/32-4-masc.mp3"," ","","um","","","",""
"","1040","audio-keyboard-response","402","1143636","0.0-3.0-1.331","../audio/32-5-masc.mp3"," ","","pilão","","","",""
"","1080","audio-keyboard-response","403","1144996","0.0-3.0-1.332","../audio/32-6-masc.mp3"," ","","para","","","",""
"","1021","audio-keyboard-response","404","1146292","0.0-3.0-1.333","../audio/32-7-masc.mp3"," ","","a","","","",""
"","1440","audio-keyboard-response","405","1148004","0.0-3.0-1.334","../audio/32-8-masc.mp3"," ","","cozinha.","","","",""
"","null","html-keyboard-response","406","1149290","0.0-3.0-0.335-0.335","<span style= ""font-size:30px; font-family: monospace"">+</span>","null","fixation","","","","",""
"","2051","audio-keyboard-response","407","1151620","0.0-3.0-1.335","../audio/33-1-masc.mp3"," ","","Eles","","","",""
"","1088","audio-keyboard-response","408","1152996","0.0-3.0-1.336","../audio/33-2-masc.mp3"," ","","sabem","","","",""
"","1029","audio-keyboard-response","409","1154292","0.0-3.0-1.337","../audio/33-3-masc.mp3"," ","","do","","","",""
"","931","audio-keyboard-response","410","1155508","0.0-3.0-1.338","../audio/33-4-masc.mp3"," ","","seu","","","",""
"","1419","audio-keyboard-response","411","1157204","0.0-3.0-1.339","../audio/33-5-masc.mp3"," ","","privilégio","","","",""
"","1141","audio-keyboard-response","412","1158611","0.0-3.0-1.340","../audio/33-6-masc.mp3"," ","","nessa","","","",""
"","2051","audio-keyboard-response","413","1160932","0.0-3.0-1.341","../audio/33-7-masc.mp3"," ","","confusão.","","","",""
"","null","html-keyboard-response","414","1162220","0.0-3.0-0.342-0.342","<span style= ""font-size:30px; font-family: monospace"">+</span>","null","fixation","","","","",""
"","1200","audio-keyboard-response","415","1163700","0.0-3.0-1.342","../audio/35-1-masc.mp3"," ","","A","","","",""
"","1651","audio-keyboard-response","416","1165620","0.0-3.0-1.343","../audio/35-2-masc.mp3"," ","","receita","","","",""
"","971","audio-keyboard-response","417","1166868","0.0-3.0-1.344","../audio/35-3-masc.mp3"," ","","para","","","",""
"","789","audio-keyboard-response","418","1167924","0.0-3.0-1.345","../audio/35-4-masc.mp3"," ","","a","","","",""
"","1461","audio-keyboard-response","419","1169652","0.0-3.0-1.346","../audio/35-5-masc.mp3"," ","","preparação","","","",""
"","781","audio-keyboard-response","420","1170708","0.0-3.0-1.347","../audio/35-6-masc.mp3"," ","","do","","","",""
"","960","audio-keyboard-response","421","1171940","0.0-3.0-1.348","../audio/35-7-masc.mp3"," ","","bolo","","","",""
"","869","audio-keyboard-response","422","1173092","0.0-3.0-1.349","../audio/35-8-masc.mp3"," ","","é","","","",""
"","1048","audio-keyboard-response","423","1174436","0.0-3.0-1.350","../audio/35-9-masc.mp3"," ","","leve.","","","",""
"","6951","html-keyboard-response","424","1181652","0.0-3.0-2.350-0.350","<span style=""font-size:25px; font-family: monospace"">A receita do bolo é pesada?</span>","s","","","A receita do bolo é pesada?","null","exp-sent","false"
"","null","html-keyboard-response","425","1183180","0.0-3.0-0.351-0.351","<span style= ""font-size:30px; font-family: monospace"">+</span>","null","fixation","","","","",""
"","949","audio-keyboard-response","426","1184404","0.0-3.0-1.351","../audio/73-1-masc.mp3"," ","","O","","","",""
"","1472","audio-keyboard-response","427","1186148","0.0-3.0-1.352","../audio/73-2-masc.mp3"," ","","cliente","","","",""
"","709","audio-keyboard-response","428","1187140","0.0-3.0-1.353","../audio/73-3-masc.mp3"," ","","era","","","",""
"","1109","audio-keyboard-response","429","1188516","0.0-3.0-1.354","../audio/73-4-masc.mp3"," ","","um","","","",""
"","1059","audio-keyboard-response","430","1189844","0.0-3.0-1.355","../audio/73-5-masc.mp3"," ","","homem","","","",""
"","1411","audio-keyboard-response","431","1191524","0.0-3.0-1.356","../audio/73-6-masc.mp3"," ","","muito","","","",""
"","1440","audio-keyboard-response","432","1193236","0.0-3.0-1.357","../audio/73-7-masc.mp3"," ","","educado.","","","",""
"","null","html-keyboard-response","433","1194520","0.0-3.0-0.358-0.358","<span style= ""font-size:30px; font-family: monospace"">+</span>","null","fixation","","","","",""
"","971","audio-keyboard-response","434","1195764","0.0-3.0-1.358","../audio/72-1-fem.mp3"," ","","A","","","",""
"","1331","audio-keyboard-response","435","1197380","0.0-3.0-1.359","../audio/72-2-fem.mp3"," ","","vencedora","","","",""
"","1309","audio-keyboard-response","436","1198980","0.0-3.0-1.360","../audio/72-3-fem.mp3"," ","","recebeu","","","",""
"","1189","audio-keyboard-response","437","1200451","0.0-3.0-1.361","../audio/72-4-fem.mp3"," ","","um","","","",""
"","1040","audio-keyboard-response","438","1201780","0.0-3.0-1.362","../audio/72-5-fem.mp3"," ","","prêmio","","","",""
"","1080","audio-keyboard-response","439","1203156","0.0-3.0-1.363","../audio/72-6-fem.mp3"," ","","em","","","",""
"","1379","audio-keyboard-response","440","1204804","0.0-3.0-1.364","../audio/72-7-fem.mp3"," ","","dinheiro.","","","",""
"","null","html-keyboard-response","441","1206090","0.0-3.0-0.365-0.365","<span style= ""font-size:30px; font-family: monospace"">+</span>","null","fixation","","","","",""
"","229","audio-keyboard-response","442","1206596","0.0-3.0-1.365","../audio/71-1-masc.mp3"," ","","Minhas","","","",""
"","1509","audio-keyboard-response","443","1208371","0.0-3.0-1.366","../audio/71-2-masc.mp3"," ","","comidas","","","",""
"","1360","audio-keyboard-response","444","1210020","0.0-3.0-1.367","../audio/71-3-masc.mp3"," ","","favoritas","","","",""
"","960","audio-keyboard-response","445","1211252","0.0-3.0-1.368","../audio/71-4-masc.mp3"," ","","são","","","",""
"","1128","audio-keyboard-response","446","1212676","0.0-3.0-1.369","../audio/71-5-masc.mp3"," ","","morango","","","",""
"","701","audio-keyboard-response","447","1213652","0.0-3.0-1.370","../audio/71-6-masc.mp3"," ","","e","","","",""
"","899","audio-keyboard-response","448","1214830","0.0-3.0-1.371","../audio/71-7-masc.mp3"," ","","uva.","","","",""
"","null","html-keyboard-response","449","1216114","0.0-3.0-0.372-0.372","<span style= ""font-size:30px; font-family: monospace"">+</span>","null","fixation","","","","",""
"","1080","audio-keyboard-response","450","1217470","0.0-3.0-1.372","../audio/74-1-masc.mp3"," ","","Este","","","",""
"","979","audio-keyboard-response","451","1218718","0.0-3.0-1.373","../audio/74-2-masc.mp3"," ","","emprego","","","",""
"","752","audio-keyboard-response","452","1219742","0.0-3.0-1.374","../audio/74-3-masc.mp3"," ","","é","","","",""
"","1109","audio-keyboard-response","453","1221134","0.0-3.0-1.375","../audio/74-4-masc.mp3"," ","","muito","","","",""
"","1200","audio-keyboard-response","454","1222622","0.0-3.0-1.376","../audio/74-5-masc.mp3"," ","","cansativo","","","",""
"","800","audio-keyboard-response","455","1223694","0.0-3.0-1.377","../audio/74-6-masc.mp3"," ","","a","","","",""
"","1109","audio-keyboard-response","456","1225070","0.0-3.0-1.378","../audio/74-7-masc.mp3"," ","","longo","","","",""
"","1008","audio-keyboard-response","457","1226350","0.0-3.0-1.379","../audio/74-8-masc.mp3"," ","","prazo.","","","",""
"","null","html-keyboard-response","458","1227624","0.0-3.0-0.380-0.380","<span style= ""font-size:30px; font-family: monospace"">+</span>","null","fixation","","","","",""
"","1699","audio-keyboard-response","459","1229598","0.0-3.0-1.380","../audio/75-1-fem.mp3"," ","","Só","","","",""
"","1520","audio-keyboard-response","460","1231390","0.0-3.0-1.381","../audio/75-2-fem.mp3"," ","","existe","","","",""
"","960","audio-keyboard-response","461","1232622","0.0-3.0-1.382","../audio/75-3-fem.mp3"," ","","uma","","","",""
"","1320","audio-keyboard-response","462","1234206","0.0-3.0-1.383","../audio/75-4-fem.mp3"," ","","pessoa","","","",""
"","1280","audio-keyboard-response","463","1235758","0.0-3.0-1.384","../audio/75-5-fem.mp3"," ","","canhota","","","",""
"","1021","audio-keyboard-response","464","1237054","0.0-3.0-1.385","../audio/75-6-fem.mp3"," ","","nesta","","","",""
"","1379","audio-keyboard-response","465","1238718","0.0-3.0-1.386","../audio/75-7-fem.mp3"," ","","cidade.","","","",""
"","27840","html-keyboard-response","466","1266814","0.0-3.0-2.386-0.386","<span style=""font-size:25px; font-family: monospace"">Só existe uma pessoa canhota na cidade?</span>","n","","","Só existe uma pessoa canhota na cidade?","null","exp-sent","false"
"","null","html-keyboard-response","467","1268354","0.0-3.0-0.387-0.387","<span style= ""font-size:30px; font-family: monospace"">+</span>","null","fixation","","","","",""
"","2872","audio-keyboard-response","468","1271486","0.0-3.0-1.387","../audio/28-1-masc.mp3"," ","","O","","","",""
"","1251","audio-keyboard-response","469","1273006","0.0-3.0-1.388","../audio/28-2-masc.mp3"," ","","time","","","",""
"","909","audio-keyboard-response","470","1274190","0.0-3.0-1.389","../audio/28-3-masc.mp3"," ","","quer","","","",""
"","792","audio-keyboard-response","471","1275250","0.0-3.0-1.390","../audio/28-4-masc.mp3"," ","","a","","","",""
"","1291","audio-keyboard-response","472","1276818","0.0-3.0-1.391","../audio/28-5-masc.mp3"," ","","vitória","","","",""
"","1160","audio-keyboard-response","473","1278242","0.0-3.0-1.392","../audio/28-6-masc.mp3"," ","","no","","","",""
"","1309","audio-keyboard-response","474","1279826","0.0-3.0-1.393","../audio/28-7-masc.mp3"," ","","jogo","","","",""
"","819","audio-keyboard-response","475","1280914","0.0-3.0-1.394","../audio/28-8-masc.mp3"," ","","de","","","",""
"","1061","audio-keyboard-response","476","1282258","0.0-3.0-1.395","../audio/28-9-masc.mp3"," ","","vôlei.","","","",""
"","null","html-keyboard-response","477","1283538","0.0-3.0-0.396-0.396","<span style= ""font-size:30px; font-family: monospace"">+</span>","null","fixation","","","","",""
"","1208","audio-keyboard-response","478","1285026","0.0-3.0-1.396","../audio/26-1-fem.mp3"," ","","Amanhã","","","",""
"","1168","audio-keyboard-response","479","1286466","0.0-3.0-1.397","../audio/26-2-fem.mp3"," ","","temos","","","",""
"","880","audio-keyboard-response","480","1287618","0.0-3.0-1.398","../audio/26-3-fem.mp3"," ","","festa","","","",""
"","880","audio-keyboard-response","481","1288786","0.0-3.0-1.399","../audio/26-4-fem.mp3"," ","","na","","","",""
"","1291","audio-keyboard-response","482","1290354","0.0-3.0-1.400","../audio/26-5-fem.mp3"," ","","piscina","","","",""
"","752","audio-keyboard-response","483","1291378","0.0-3.0-1.401","../audio/26-6-fem.mp3"," ","","o","","","",""
"","992","audio-keyboard-response","484","1292658","0.0-3.0-1.402","../audio/26-7-fem.mp3"," ","","dia","","","",""
"","920","audio-keyboard-response","485","1293842","0.0-3.0-1.403","../audio/26-8-fem.mp3"," ","","todo.","","","",""
"","null","html-keyboard-response","486","1295108","0.0-3.0-0.404-0.404","<span style= ""font-size:30px; font-family: monospace"">+</span>","null","fixation","","","","",""
"","152","audio-keyboard-response","487","1295538","0.0-3.0-1.404","../audio/27-1-fem.mp3"," ","","O","","","",""
"","1171","audio-keyboard-response","488","1296994","0.0-3.0-1.405","../audio/27-2-fem.mp3"," ","","dinheiro","","","",""
"","1011","audio-keyboard-response","489","1298274","0.0-3.0-1.406","../audio/27-3-fem.mp3"," ","","chegou","","","",""
"","661","audio-keyboard-response","490","1299202","0.0-3.0-1.407","../audio/27-4-fem.mp3"," ","","à","","","",""
"","931","audio-keyboard-response","491","1300402","0.0-3.0-1.408","../audio/27-5-fem.mp3"," ","","elite","","","",""
"","1141","audio-keyboard-response","492","1301810","0.0-3.0-1.409","../audio/27-6-fem.mp3"," ","","deste","","","",""
"","1269","audio-keyboard-response","493","1303362","0.0-3.0-1.410","../audio/27-7-fem.mp3"," ","","país.","","","",""
"","null","html-keyboard-response","494","1304638","0.0-3.0-0.411-0.411","<span style= ""font-size:30px; font-family: monospace"">+</span>","null","fixation","","","","",""
"","1131","audio-keyboard-response","495","1306050","0.0-3.0-1.411","../audio/29-1-fem.mp3"," ","","Hoje","","","",""
"","1120","audio-keyboard-response","496","1307458","0.0-3.0-1.412","../audio/29-2-fem.mp3"," ","","vamos","","","",""
"","829","audio-keyboard-response","497","1308562","0.0-3.0-1.413","../audio/29-3-fem.mp3"," ","","fazer","","","",""
"","949","audio-keyboard-response","498","1309794","0.0-3.0-1.414","../audio/29-4-fem.mp3"," ","","uma","","","",""
"","1411","audio-keyboard-response","499","1311474","0.0-3.0-1.415","../audio/29-5-fem.mp3"," ","","atividade","","","",""
"","941","audio-keyboard-response","500","1312690","0.0-3.0-1.416","../audio/29-6-fem.mp3"," ","","sobre","","","",""
"","1168","audio-keyboard-response","501","1314146","0.0-3.0-1.417","../audio/29-7-fem.mp3"," ","","fauna","","","",""
"","1280","audio-keyboard-response","502","1315698","0.0-3.0-1.418","../audio/29-8-fem.mp3"," ","","marinha.","","","",""
"","null","html-keyboard-response","503","1316969","0.0-3.0-0.419-0.419","<span style= ""font-size:30px; font-family: monospace"">+</span>","null","fixation","","","","",""
"","869","audio-keyboard-response","504","1318114","0.0-3.0-1.419","../audio/30-1-masc.mp3"," ","","O","","","",""
"","1440","audio-keyboard-response","505","1319826","0.0-3.0-1.420","../audio/30-2-masc.mp3"," ","","funcionário","","","",""
"","1240","audio-keyboard-response","506","1321346","0.0-3.0-1.421","../audio/30-3-masc.mp3"," ","","entregou","","","",""
"","880","audio-keyboard-response","507","1322498","0.0-3.0-1.422","../audio/30-4-masc.mp3"," ","","o","","","",""
"","1349","audio-keyboard-response","508","1324114","0.0-3.0-1.423","../audio/30-5-masc.mp3"," ","","restante","","","",""
"","840","audio-keyboard-response","509","1325234","0.0-3.0-1.424","../audio/30-6-masc.mp3"," ","","do","","","",""
"","1131","audio-keyboard-response","510","1326642","0.0-3.0-1.425","../audio/30-7-masc.mp3"," ","","dinheiro.","","","",""
"","5792","html-keyboard-response","511","1332690","0.0-3.0-2.425-0.425","<span style=""font-size:25px; font-family: monospace"">O funcionário entregou o contrato?</span>","s","","","O funcionário entregou o contrato?","null","exp-sent","false"
"","null","html-keyboard-response","512","1334228","0.0-3.0-0.426-0.426","<span style= ""font-size:30px; font-family: monospace"">+</span>","null","fixation","","","","",""
"","931","audio-keyboard-response","513","1335440","0.0-3.0-1.426","../audio/76-1-fem.mp3"," ","","O","","","",""
"","1251","audio-keyboard-response","514","1336976","0.0-3.0-1.427","../audio/76-2-fem.mp3"," ","","bisavô","","","",""
"","1099","audio-keyboard-response","515","1338352","0.0-3.0-1.428","../audio/76-3-fem.mp3"," ","","comprou","","","",""
"","840","audio-keyboard-response","516","1339472","0.0-3.0-1.429","../audio/76-4-fem.mp3"," ","","um","","","",""
"","1360","audio-keyboard-response","517","1341104","0.0-3.0-1.430","../audio/76-5-fem.mp3"," ","","ralador","","","",""
"","1211","audio-keyboard-response","518","1342592","0.0-3.0-1.431","../audio/76-6-fem.mp3"," ","","de","","","",""
"","960","audio-keyboard-response","519","1343824","0.0-3.0-1.432","../audio/76-7-fem.mp3"," ","","queijo.","","","",""
"","null","html-keyboard-response","520","1345096","0.0-3.0-0.433-0.433","<span style= ""font-size:30px; font-family: monospace"">+</span>","null","fixation","","","","",""
"","221","audio-keyboard-response","521","1345600","0.0-3.0-1.433","../audio/77-1-masc.mp3"," ","","A","","","",""
"","1141","audio-keyboard-response","522","1347008","0.0-3.0-1.434","../audio/77-2-masc.mp3"," ","","criança","","","",""
"","899","audio-keyboard-response","523","1348192","0.0-3.0-1.435","../audio/77-3-masc.mp3"," ","","ficou","","","",""
"","680","audio-keyboard-response","524","1349152","0.0-3.0-1.436","../audio/77-4-masc.mp3"," ","","muito","","","",""
"","971","audio-keyboard-response","525","1350400","0.0-3.0-1.437","../audio/77-5-masc.mp3"," ","","feliz","","","",""
"","771","audio-keyboard-response","526","1351440","0.0-3.0-1.438","../audio/77-6-masc.mp3"," ","","com","","","",""
"","741","audio-keyboard-response","527","1352448","0.0-3.0-1.439","../audio/77-7-masc.mp3"," ","","o","","","",""
"","1000","audio-keyboard-response","528","1353728","0.0-3.0-1.440","../audio/77-8-masc.mp3"," ","","brinquedo.","","","",""
"","null","html-keyboard-response","529","1355006","0.0-3.0-0.441-0.441","<span style= ""font-size:30px; font-family: monospace"">+</span>","null","fixation","","","","",""
"","189","audio-keyboard-response","530","1355472","0.0-3.0-1.441","../audio/79-1-fem.mp3"," ","","A","","","",""
"","1341","audio-keyboard-response","531","1357088","0.0-3.0-1.442","../audio/79-2-fem.mp3"," ","","médica","","","",""
"","1149","audio-keyboard-response","532","1358512","0.0-3.0-1.443","../audio/79-3-fem.mp3"," ","","verificou","","","",""
"","712","audio-keyboard-response","533","1359488","0.0-3.0-1.444","../audio/79-4-fem.mp3"," ","","a","","","",""
"","1059","audio-keyboard-response","534","1360832","0.0-3.0-1.445","../audio/79-5-fem.mp3"," ","","gengiva","","","",""
"","912","audio-keyboard-response","535","1362016","0.0-3.0-1.446","../audio/79-6-fem.mp3"," ","","por","","","",""
"","1109","audio-keyboard-response","536","1363392","0.0-3.0-1.447","../audio/79-7-fem.mp3"," ","","último.","","","",""
"","null","html-keyboard-response","537","1364667","0.0-3.0-0.448-0.448","<span style= ""font-size:30px; font-family: monospace"">+</span>","null","fixation","","","","",""
"","981","audio-keyboard-response","538","1365920","0.0-3.0-1.448","../audio/78-1-masc.mp3"," ","","Eles","","","",""
"","989","audio-keyboard-response","539","1367184","0.0-3.0-1.449","../audio/78-2-masc.mp3"," ","","trazem","","","",""
"","739","audio-keyboard-response","540","1368192","0.0-3.0-1.450","../audio/78-3-masc.mp3"," ","","um","","","",""
"","1101","audio-keyboard-response","541","1369568","0.0-3.0-1.451","../audio/78-4-masc.mp3"," ","","fato","","","",""
"","1000","audio-keyboard-response","542","1370864","0.0-3.0-1.452","../audio/78-5-masc.mp3"," ","","urgente","","","",""
"","1192","audio-keyboard-response","543","1372336","0.0-3.0-1.453","../audio/78-6-masc.mp3"," ","","todos","","","",""
"","1000","audio-keyboard-response","544","1373600","0.0-3.0-1.454","../audio/78-7-masc.mp3"," ","","os","","","",""
"","789","audio-keyboard-response","545","1374672","0.0-3.0-1.455","../audio/78-8-masc.mp3"," ","","dias.","","","",""
"","null","html-keyboard-response","546","1375956","0.0-3.0-0.456-0.456","<span style= ""font-size:30px; font-family: monospace"">+</span>","null","fixation","","","","",""
"","901","audio-keyboard-response","547","1377136","0.0-3.0-1.456","../audio/80-1-masc.mp3"," ","","Meu","","","",""
"","909","audio-keyboard-response","548","1378320","0.0-3.0-1.457","../audio/80-2-masc.mp3"," ","","primo","","","",""
"","941","audio-keyboard-response","549","1379536","0.0-3.0-1.458","../audio/80-3-masc.mp3"," ","","conheceu","","","",""
"","880","audio-keyboard-response","550","1380704","0.0-3.0-1.459","../audio/80-4-masc.mp3"," ","","um","","","",""
"","1669","audio-keyboard-response","551","1382640","0.0-3.0-1.460","../audio/80-5-masc.mp3"," ","","jovem","","","",""
"","1461","audio-keyboard-response","552","1384368","0.0-3.0-1.461","../audio/80-6-masc.mp3"," ","","amável","","","",""
"","949","audio-keyboard-response","553","1385600","0.0-3.0-1.462","../audio/80-7-masc.mp3"," ","","e","","","",""
"","1459","audio-keyboard-response","554","1387344","0.0-3.0-1.463","../audio/80-8-masc.mp3"," ","","confiante.","","","",""
"","7737","html-keyboard-response","555","1395344","0.0-3.0-2.463-0.463","<span style=""font-size:25px; font-family: monospace"">O primo conheceu um jovem irritante?</span>","s","","","O primo conheceu um jovem irritante?","null","exp-sent","false"
"","null","html-keyboard-response","556","1396869","0.0-3.0-0.464-0.464","<span style= ""font-size:30px; font-family: monospace"">+</span>","null","fixation","","","","",""
"","912","audio-keyboard-response","557","1398051","0.0-3.0-1.464","../audio/39-1-fem.mp3"," ","","O","","","",""
"","1331","audio-keyboard-response","558","1399651","0.0-3.0-1.465","../audio/39-2-fem.mp3"," ","","conselho","","","",""
"","848","audio-keyboard-response","559","1400787","0.0-3.0-1.466","../audio/39-3-fem.mp3"," ","","foi","","","",""
"","880","audio-keyboard-response","560","1401939","0.0-3.0-1.467","../audio/39-4-fem.mp3"," ","","muito","","","",""
"","1040","audio-keyboard-response","561","1403251","0.0-3.0-1.468","../audio/39-5-fem.mp3"," ","","útil","","","",""
"","840","audio-keyboard-response","562","1404371","0.0-3.0-1.469","../audio/39-6-fem.mp3"," ","","para","","","",""
"","1040","audio-keyboard-response","563","1405699","0.0-3.0-1.470","../audio/39-7-fem.mp3"," ","","minha","","","",""
"","968","audio-keyboard-response","564","1406947","0.0-3.0-1.471","../audio/39-8-fem.mp3"," ","","tia.","","","",""
"","null","html-keyboard-response","565","1408229","0.0-3.0-0.472-0.472","<span style= ""font-size:30px; font-family: monospace"">+</span>","null","fixation","","","","",""
"","712","audio-keyboard-response","566","1409219","0.0-3.0-1.472","../audio/38-1-fem.mp3"," ","","A","","","",""
"","1392","audio-keyboard-response","567","1410899","0.0-3.0-1.473","../audio/38-2-fem.mp3"," ","","empresa","","","",""
"","1080","audio-keyboard-response","568","1412243","0.0-3.0-1.474","../audio/38-3-fem.mp3"," ","","criou","","","",""
"","680","audio-keyboard-response","569","1413203","0.0-3.0-1.475","../audio/38-4-fem.mp3"," ","","a","","","",""
"","1219","audio-keyboard-response","570","1414707","0.0-3.0-1.476","../audio/38-5-fem.mp3"," ","","patente","","","",""
"","768","audio-keyboard-response","571","1415747","0.0-3.0-1.477","../audio/38-6-fem.mp3"," ","","da","","","",""
"","1581","audio-keyboard-response","572","1417603","0.0-3.0-1.478","../audio/38-7-fem.mp3"," ","","frigideira.","","","",""
"","null","html-keyboard-response","573","1418880","0.0-3.0-0.479-0.479","<span style= ""font-size:30px; font-family: monospace"">+</span>","null","fixation","","","","",""
"","981","audio-keyboard-response","574","1420131","0.0-3.0-1.479","../audio/36-1-masc.mp3"," ","","Meu","","","",""
"","1120","audio-keyboard-response","575","1421523","0.0-3.0-1.480","../audio/36-2-masc.mp3"," ","","tio","","","",""
"","1011","audio-keyboard-response","576","1422803","0.0-3.0-1.481","../audio/36-3-masc.mp3"," ","","comprou","","","",""
"","819","audio-keyboard-response","577","1423907","0.0-3.0-1.482","../audio/36-4-masc.mp3"," ","","um","","","",""
"","1032","audio-keyboard-response","578","1425219","0.0-3.0-1.483","../audio/36-5-masc.mp3"," ","","filtro","","","",""
"","888","audio-keyboard-response","579","1426387","0.0-3.0-1.484","../audio/36-6-masc.mp3"," ","","de","","","",""
"","1080","audio-keyboard-response","580","1427731","0.0-3.0-1.485","../audio/36-7-masc.mp3"," ","","água","","","",""
"","1011","audio-keyboard-response","581","1429011","0.0-3.0-1.486","../audio/36-8-masc.mp3"," ","","hoje","","","",""
"","1469","audio-keyboard-response","582","1430755","0.0-3.0-1.487","../audio/36-9-masc.mp3"," ","","cedo.","","","",""
"","null","html-keyboard-response","583","1432019","0.0-3.0-0.488-0.488","<span style= ""font-size:30px; font-family: monospace"">+</span>","null","fixation","","","","",""
"","832","audio-keyboard-response","584","1433139","0.0-3.0-1.488","../audio/37-1-fem.mp3"," ","","Eu","","","",""
"","1360","audio-keyboard-response","585","1434787","0.0-3.0-1.489","../audio/37-2-fem.mp3"," ","","adoro","","","",""
"","1021","audio-keyboard-response","586","1436083","0.0-3.0-1.490","../audio/37-3-fem.mp3"," ","","suco","","","",""
"","981","audio-keyboard-response","587","1437331","0.0-3.0-1.491","../audio/37-4-fem.mp3"," ","","de","","","",""
"","1171","audio-keyboard-response","588","1438771","0.0-3.0-1.492","../audio/37-5-fem.mp3"," ","","manga","","","",""
"","941","audio-keyboard-response","589","1439971","0.0-3.0-1.493","../audio/37-6-fem.mp3"," ","","com","","","",""
"","1349","audio-keyboard-response","590","1441603","0.0-3.0-1.494","../audio/37-7-fem.mp3"," ","","hortelã.","","","",""
"","null","html-keyboard-response","591","1442880","0.0-3.0-0.495-0.495","<span style= ""font-size:30px; font-family: monospace"">+</span>","null","fixation","","","","",""
"","1011","audio-keyboard-response","592","1444163","0.0-3.0-1.495","../audio/40-1-masc.mp3"," ","","O","","","",""
"","1171","audio-keyboard-response","593","1445603","0.0-3.0-1.496","../audio/40-2-masc.mp3"," ","","jogo","","","",""
"","1091","audio-keyboard-response","594","1446963","0.0-3.0-1.497","../audio/40-3-masc.mp3"," ","","falava","","","",""
"","829","audio-keyboard-response","595","1448067","0.0-3.0-1.498","../audio/40-4-masc.mp3"," ","","de","","","",""
"","1040","audio-keyboard-response","596","1449379","0.0-3.0-1.499","../audio/40-5-masc.mp3"," ","","fantasia","","","",""
"","749","audio-keyboard-response","597","1450403","0.0-3.0-1.500","../audio/40-6-masc.mp3"," ","","e","","","",""
"","880","audio-keyboard-response","598","1451555","0.0-3.0-1.501","../audio/40-7-masc.mp3"," ","","de","","","",""
"","1269","audio-keyboard-response","599","1453107","0.0-3.0-1.502","../audio/40-8-masc.mp3"," ","","aventura.","","","",""
"","4745","html-keyboard-response","600","1458109","0.0-3.0-2.502-0.502","<span style=""font-size:25px; font-family: monospace"">O jogo tinha fantasia e aventura?</span>","s","","","O jogo tinha fantasia e aventura?","null","exp-sent","false"
"","null","html-keyboard-response","601","1459644","0.0-3.0-0.503-0.503","<span style= ""font-size:30px; font-family: monospace"">+</span>","null","fixation","","","","",""
"","1488","audio-keyboard-response","602","1461421","0.0-3.0-1.503","../audio/04-1-fem.mp3"," ","","Duzentos","","","",""
"","899","audio-keyboard-response","603","1462589","0.0-3.0-1.504","../audio/04-2-fem.mp3"," ","","carros","","","",""
"","941","audio-keyboard-response","604","1463806","0.0-3.0-1.505","../audio/04-3-fem.mp3"," ","","passaram","","","",""
"","840","audio-keyboard-response","605","1464925","0.0-3.0-1.506","../audio/04-4-fem.mp3"," ","","pela","","","",""
"","1131","audio-keyboard-response","606","1466333","0.0-3.0-1.507","../audio/04-5-fem.mp3"," ","","ponte","","","",""
"","1112","audio-keyboard-response","607","1467726","0.0-3.0-1.508","../audio/04-6-fem.mp3"," ","","hoje","","","",""
"","739","audio-keyboard-response","608","1468749","0.0-3.0-1.509","../audio/04-7-fem.mp3"," ","","de","","","",""
"","1032","audio-keyboard-response","609","1470046","0.0-3.0-1.510","../audio/04-8-fem.mp3"," ","","tarde.","","","",""
"","null","html-keyboard-response","610","1471334","0.0-3.0-0.511-0.511","<span style= ""font-size:30px; font-family: monospace"">+</span>","null","fixation","","","","",""
"","840","audio-keyboard-response","611","1472461","0.0-3.0-1.511","../audio/01-1-masc.mp3"," ","","O","","","",""
"","949","audio-keyboard-response","612","1473677","0.0-3.0-1.512","../audio/01-2-masc.mp3"," ","","menino","","","",""
"","989","audio-keyboard-response","613","1474942","0.0-3.0-1.513","../audio/01-3-masc.mp3"," ","","derrubou","","","",""
"","731","audio-keyboard-response","614","1475949","0.0-3.0-1.514","../audio/01-4-masc.mp3"," ","","a","","","",""
"","1352","audio-keyboard-response","615","1477565","0.0-3.0-1.515","../audio/01-5-masc.mp3"," ","","guitarra","","","",""
"","789","audio-keyboard-response","616","1478637","0.0-3.0-1.516","../audio/01-6-masc.mp3"," ","","no","","","",""
"","869","audio-keyboard-response","617","1479789","0.0-3.0-1.517","../audio/01-7-masc.mp3"," ","","chão.","","","",""
"","null","html-keyboard-response","618","1481073","0.0-3.0-0.518-0.518","<span style= ""font-size:30px; font-family: monospace"">+</span>","null","fixation","","","","",""
"","781","audio-keyboard-response","619","1482125","0.0-3.0-1.518","../audio/02-2-fem.mp3"," ","","Havia","","","",""
"","701","audio-keyboard-response","620","1483085","0.0-3.0-1.519","../audio/02-2-fem.mp3"," ","","um","","","",""
"","880","audio-keyboard-response","621","1484237","0.0-3.0-1.520","../audio/02-3-fem.mp3"," ","","cheiro","","","",""
"","741","audio-keyboard-response","622","1485245","0.0-3.0-1.521","../audio/02-4-fem.mp3"," ","","de","","","",""
"","771","audio-keyboard-response","623","1486285","0.0-3.0-1.522","../audio/02-5-fem.mp3"," ","","gasolina","","","",""
"","1019","audio-keyboard-response","624","1487581","0.0-3.0-1.523","../audio/02-6-fem.mp3"," ","","na","","","",""
"","1280","audio-keyboard-response","625","1489133","0.0-3.0-1.524","../audio/02-7-fem.mp3"," ","","garagem.","","","",""
"","null","html-keyboard-response","626","1490414","0.0-3.0-0.525-0.525","<span style= ""font-size:30px; font-family: monospace"">+</span>","null","fixation","","","","",""
"","992","audio-keyboard-response","627","1491693","0.0-3.0-1.525","../audio/03-1-masc.mp3"," ","","O","","","",""
"","1080","audio-keyboard-response","628","1493037","0.0-3.0-1.526","../audio/03-2-masc.mp3"," ","","coelho","","","",""
"","840","audio-keyboard-response","629","1494157","0.0-3.0-1.527","../audio/03-3-masc.mp3"," ","","foi","","","",""
"","1021","audio-keyboard-response","630","1495454","0.0-3.0-1.528","../audio/03-4-masc.mp3"," ","","bastante","","","",""
"","1128","audio-keyboard-response","631","1496861","0.0-3.0-1.529","../audio/03-5-masc.mp3"," ","","dócil","","","",""
"","2040","audio-keyboard-response","632","1499165","0.0-3.0-1.530","../audio/03-6-masc.mp3"," ","","com","","","",""
"","979","audio-keyboard-response","633","1500429","0.0-3.0-1.531","../audio/03-7-masc.mp3"," ","","as","","","",""
"","1131","audio-keyboard-response","634","1501837","0.0-3.0-1.532","../audio/03-8-masc.mp3"," ","","crianças.","","","",""
"","null","html-keyboard-response","635","1503094","0.0-3.0-0.533-0.533","<span style= ""font-size:30px; font-family: monospace"">+</span>","null","fixation","","","","",""
"","651","audio-keyboard-response","636","1504030","0.0-3.0-1.533","../audio/05-1-masc.mp3"," ","","A","","","",""
"","1032","audio-keyboard-response","637","1505326","0.0-3.0-1.534","../audio/05-2-masc.mp3"," ","","vendedora","","","",""
"","960","audio-keyboard-response","638","1506558","0.0-3.0-1.535","../audio/05-3-masc.mp3"," ","","ajudou","","","",""
"","731","audio-keyboard-response","639","1507565","0.0-3.0-1.536","../audio/05-4-masc.mp3"," ","","um","","","",""
"","1171","audio-keyboard-response","640","1509005","0.0-3.0-1.537","../audio/05-5-masc.mp3"," ","","turista","","","",""
"","880","audio-keyboard-response","641","1510157","0.0-3.0-1.538","../audio/05-6-masc.mp3"," ","","na","","","",""
"","1051","audio-keyboard-response","642","1511485","0.0-3.0-1.539","../audio/05-7-masc.mp3"," ","","loja.","","","",""
"","5140","html-keyboard-response","643","1516893","0.0-3.0-2.539-0.539","<span style=""font-size:25px; font-family: monospace"">A vendedora ajudou um turista?</span>","s","","","A vendedora ajudou um turista?","null","exp-sent","false"
"","null","html-keyboard-response","644","1518429","0.0-3.0-0.540-0.540","<span style= ""font-size:30px; font-family: monospace"">+</span>","null","fixation","","","","",""
"","560","audio-keyboard-response","645","1519267","0.0-3.0-1.540","../audio/19-1-fem.mp3"," ","","O","","","",""
"","869","audio-keyboard-response","646","1520403","0.0-3.0-1.541","../audio/19-2-fem.mp3"," ","","menino","","","",""
"","789","audio-keyboard-response","647","1521475","0.0-3.0-1.542","../audio/19-3-fem.mp3"," ","","ganhou","","","",""
"","920","audio-keyboard-response","648","1522675","0.0-3.0-1.543","../audio/19-4-fem.mp3"," ","","uma","","","",""
"","669","audio-keyboard-response","649","1523635","0.0-3.0-1.544","../audio/19-5-fem.mp3"," ","","bala","","","",""
"","840","audio-keyboard-response","650","1524755","0.0-3.0-1.545","../audio/19-6-fem.mp3"," ","","depois","","","",""
"","781","audio-keyboard-response","651","1525811","0.0-3.0-1.546","../audio/19-7-fem.mp3"," ","","do","","","",""
"","931","audio-keyboard-response","652","1527011","0.0-3.0-1.547","../audio/19-8-fem.mp3"," ","","almoço.","","","",""
"","null","html-keyboard-response","653","1528269","0.0-3.0-0.548-0.548","<span style= ""font-size:30px; font-family: monospace"">+</span>","null","fixation","","","","",""
"","691","audio-keyboard-response","654","1529235","0.0-3.0-1.548","../audio/18-1-fem.mp3"," ","","O","","","",""
"","901","audio-keyboard-response","655","1530419","0.0-3.0-1.549","../audio/18-2-fem.mp3"," ","","enredo","","","",""
"","749","audio-keyboard-response","656","1531443","0.0-3.0-1.550","../audio/18-3-fem.mp3"," ","","traz","","","",""
"","669","audio-keyboard-response","657","1532387","0.0-3.0-1.551","../audio/18-4-fem.mp3"," ","","um","","","",""
"","971","audio-keyboard-response","658","1533635","0.0-3.0-1.552","../audio/18-5-fem.mp3"," ","","dragão","","","",""
"","640","audio-keyboard-response","659","1534547","0.0-3.0-1.553","../audio/18-6-fem.mp3"," ","","forte","","","",""
"","659","audio-keyboard-response","660","1535475","0.0-3.0-1.554","../audio/18-7-fem.mp3"," ","","e","","","",""
"","1952","audio-keyboard-response","661","1537699","0.0-3.0-1.555","../audio/18-8-fem.mp3"," ","","solitário.","","","",""
"","null","html-keyboard-response","662","1538979","0.0-3.0-0.556-0.556","<span style= ""font-size:30px; font-family: monospace"">+</span>","null","fixation","","","","",""
"","1600","audio-keyboard-response","663","1540851","0.0-3.0-1.556","../audio/16-1-fem.mp3"," ","","Eu","","","",""
"","6560","audio-keyboard-response","664","1547699","0.0-3.0-1.557","../audio/16-2-fem.mp3"," ","","nunca","","","",""
"","3640","audio-keyboard-response","665","1551635","0.0-3.0-1.558","../audio/16-3-fem.mp3"," ","","conheci","","","",""
"","1109","audio-keyboard-response","666","1553027","0.0-3.0-1.559","../audio/16-4-fem.mp3"," ","","um","","","",""
"","1552","audio-keyboard-response","667","1554851","0.0-3.0-1.560","../audio/16-5-fem.mp3"," ","","general","","","",""
"","931","audio-keyboard-response","668","1556051","0.0-3.0-1.561","../audio/16-6-fem.mp3"," ","","do","","","",""
"","1629","audio-keyboard-response","669","1557955","0.0-3.0-1.562","../audio/16-7-fem.mp3"," ","","exército.","","","",""
"","null","html-keyboard-response","670","1559219","0.0-3.0-0.563-0.563","<span style= ""font-size:30px; font-family: monospace"">+</span>","null","fixation","","","","",""
"","1011","audio-keyboard-response","671","1560499","0.0-3.0-1.563","../audio/17-1-fem.mp3"," ","","Falaram","","","",""
"","909","audio-keyboard-response","672","1561683","0.0-3.0-1.564","../audio/17-2-fem.mp3"," ","","da","","","",""
"","1149","audio-keyboard-response","673","1563107","0.0-3.0-1.565","../audio/17-3-fem.mp3"," ","","lei","","","",""
"","1240","audio-keyboard-response","674","1564611","0.0-3.0-1.566","../audio/17-4-fem.mp3"," ","","no","","","",""
"","1789","audio-keyboard-response","675","1566675","0.0-3.0-1.567","../audio/17-5-fem.mp3"," ","","ministério","","","",""
"","1589","audio-keyboard-response","676","1568547","0.0-3.0-1.568","../audio/17-6-fem.mp3"," ","","diversas","","","",""
"","1360","audio-keyboard-response","677","1570179","0.0-3.0-1.569","../audio/17-7-fem.mp3"," ","","vezes.","","","",""
"","null","html-keyboard-response","678","1571459","0.0-3.0-0.570-0.570","<span style= ""font-size:30px; font-family: monospace"">+</span>","null","fixation","","","","",""
"","269","audio-keyboard-response","679","1572003","0.0-3.0-1.570","../audio/20-1-masc.mp3"," ","","O","","","",""
"","1181","audio-keyboard-response","680","1573459","0.0-3.0-1.571","../audio/20-2-masc.mp3"," ","","colega","","","",""
"","1120","audio-keyboard-response","681","1574867","0.0-3.0-1.572","../audio/20-3-masc.mp3"," ","","parecia","","","",""
"","1261","audio-keyboard-response","682","1576403","0.0-3.0-1.573","../audio/20-4-masc.mp3"," ","","muito","","","",""
"","1419","audio-keyboard-response","683","1578115","0.0-3.0-1.574","../audio/20-5-masc.mp3"," ","","gripado","","","",""
"","1061","audio-keyboard-response","684","1579439","0.0-3.0-1.575","../audio/20-6-masc.mp3"," ","","no","","","",""
"","1091","audio-keyboard-response","685","1580815","0.0-3.0-1.576","../audio/20-7-masc.mp3"," ","","dia","","","",""
"","1579","audio-keyboard-response","686","1582671","0.0-3.0-1.577","../audio/20-8-masc.mp3"," ","","anterior.","","","",""
"","12450","html-keyboard-response","687","1595375","0.0-3.0-2.577-0.577","<span style=""font-size:25px; font-family: monospace"">O colega parecia muito gripado?</span>","n","","","O colega parecia muito gripado?","null","exp-sent","false"
"","null","html-keyboard-response","688","1596894","0.0-3.0-0.578-0.578","<span style= ""font-size:30px; font-family: monospace"">+</span>","null","fixation","","","","",""
"","15920","audio-keyboard-response","689","1613087","0.0-3.0-1.578","../audio/49-1-fem.mp3"," ","","Eu","","","",""
"","928","audio-keyboard-response","690","1614303","0.0-3.0-1.579","../audio/49-2-fem.mp3"," ","","quero","","","",""
"","1109","audio-keyboard-response","691","1615679","0.0-3.0-1.580","../audio/49-3-fem.mp3"," ","","um","","","",""
"","899","audio-keyboard-response","692","1616863","0.0-3.0-1.581","../audio/49-4-fem.mp3"," ","","lanche","","","",""
"","1101","audio-keyboard-response","693","1618239","0.0-3.0-1.582","../audio/49-5-fem.mp3"," ","","duplo","","","",""
"","880","audio-keyboard-response","694","1619391","0.0-3.0-1.583","../audio/49-6-fem.mp3"," ","","e","","","",""
"","1021","audio-keyboard-response","695","1620687","0.0-3.0-1.584","../audio/49-7-fem.mp3"," ","","um","","","",""
"","1219","audio-keyboard-response","696","1622191","0.0-3.0-1.585","../audio/49-8-fem.mp3"," ","","suco.","","","",""
"","null","html-keyboard-response","697","1623465","0.0-3.0-0.586-0.586","<span style= ""font-size:30px; font-family: monospace"">+</span>","null","fixation","","","","",""
"","691","audio-keyboard-response","698","1624431","0.0-3.0-1.586","../audio/48-1-masc.mp3"," ","","Ela","","","",""
"","872","audio-keyboard-response","699","1625567","0.0-3.0-1.587","../audio/48-2-masc.mp3"," ","","come","","","",""
"","1069","audio-keyboard-response","700","1626911","0.0-3.0-1.588","../audio/48-3-masc.mp3"," ","","feijão","","","",""
"","1112","audio-keyboard-response","701","1628286","0.0-3.0-1.589","../audio/48-4-masc.mp3"," ","","com","","","",""
"","1309","audio-keyboard-response","702","1629871","0.0-3.0-1.590","../audio/48-5-masc.mp3"," ","","arroz","","","",""
"","869","audio-keyboard-response","703","1631023","0.0-3.0-1.591","../audio/48-6-masc.mp3"," ","","todos","","","",""
"","960","audio-keyboard-response","704","1632255","0.0-3.0-1.592","../audio/48-7-masc.mp3"," ","","os","","","",""
"","1688","audio-keyboard-response","705","1634223","0.0-3.0-1.593","../audio/48-8-masc.mp3"," ","","dias.","","","",""
"","null","html-keyboard-response","706","1635486","0.0-3.0-0.594-0.594","<span style= ""font-size:30px; font-family: monospace"">+</span>","null","fixation","","","","",""
"","1000","audio-keyboard-response","707","1636767","0.0-3.0-1.594","../audio/47-1-fem.mp3"," ","","O","","","",""
"","1029","audio-keyboard-response","708","1638078","0.0-3.0-1.595","../audio/47-2-fem.mp3"," ","","tio","","","",""
"","1621","audio-keyboard-response","709","1639969","0.0-3.0-1.596","../audio/47-3-fem.mp3"," ","","recusou","","","",""
"","1200","audio-keyboard-response","710","1641457","0.0-3.0-1.597","../audio/47-4-fem.mp3"," ","","a","","","",""
"","1949","audio-keyboard-response","711","1643682","0.0-3.0-1.598","../audio/47-5-fem.mp3"," ","","sobremesa","","","",""
"","1560","audio-keyboard-response","712","1645537","0.0-3.0-1.599","../audio/47-6-fem.mp3"," ","","no","","","",""
"","1811","audio-keyboard-response","713","1647617","0.0-3.0-1.600","../audio/47-7-fem.mp3"," ","","almoço.","","","",""
"","null","html-keyboard-response","714","1648908","0.0-3.0-0.601-0.601","<span style= ""font-size:30px; font-family: monospace"">+</span>","null","fixation","","","","",""
"","771","audio-keyboard-response","715","1649953","0.0-3.0-1.601","../audio/46-1-masc.mp3"," ","","Meu","","","",""
"","1032","audio-keyboard-response","716","1651249","0.0-3.0-1.602","../audio/46-2-masc.mp3"," ","","primo","","","",""
"","1229","audio-keyboard-response","717","1652753","0.0-3.0-1.603","../audio/46-3-masc.mp3"," ","","estava","","","",""
"","1331","audio-keyboard-response","718","1654353","0.0-3.0-1.604","../audio/46-4-masc.mp3"," ","","muito","","","",""
"","1421","audio-keyboard-response","719","1656049","0.0-3.0-1.605","../audio/46-5-masc.mp3"," ","","deprimido","","","",""
"","1139","audio-keyboard-response","720","1657473","0.0-3.0-1.606","../audio/46-6-masc.mp3"," ","","no","","","",""
"","1781","audio-keyboard-response","721","1659537","0.0-3.0-1.607","../audio/46-7-masc.mp3"," ","","inverno.","","","",""
"","null","html-keyboard-response","722","1660798","0.0-3.0-0.608-0.608","<span style= ""font-size:30px; font-family: monospace"">+</span>","null","fixation","","","","",""
"","211","audio-keyboard-response","723","1661281","0.0-3.0-1.608","../audio/50-1-masc.mp3"," ","","O","","","",""
"","1040","audio-keyboard-response","724","1662593","0.0-3.0-1.609","../audio/50-2-masc.mp3"," ","","pássaro","","","",""
"","1312","audio-keyboard-response","725","1664177","0.0-3.0-1.610","../audio/50-3-masc.mp3"," ","","fugiu","","","",""
"","1152","audio-keyboard-response","726","1665617","0.0-3.0-1.611","../audio/50-4-masc.mp3"," ","","da","","","",""
"","1312","audio-keyboard-response","727","1667217","0.0-3.0-1.612","../audio/50-5-masc.mp3"," ","","gaiola","","","",""
"","1331","audio-keyboard-response","728","1668833","0.0-3.0-1.613","../audio/50-6-masc.mp3"," ","","pela","","","",""
"","1912","audio-keyboard-response","729","1671009","0.0-3.0-1.614","../audio/50-7-masc.mp3"," ","","portinhola.","","","",""
"","5086","html-keyboard-response","730","1676354","0.0-3.0-2.614-0.614","<span style=""font-size:25px; font-family: monospace"">O pássaro fugiu da gaiola?</span>","n","","","O pássaro fugiu da gaiola?","null","exp-sent","false"
"[{""page_index"":0,""viewing_time"":29224}]","29224","instructions","731","1706081","0.0-4.0","","","","","","","",""
