[
	{
		"view_history": [
			{
				"page_index": 0,
				"viewing_time": 34426
			},
			{
				"page_index": 1,
				"viewing_time": 2776
			}
		],
		"rt": 37202,
		"trial_type": "instructions",
		"trial_index": 0,
		"time_elapsed": 37203,
		"internal_node_id": "0.0-0.0"
	},
	{
		"rt": null,
		"stimulus": "<span style= \"font-size:30px; font-family: monospace\">+</span>",
		"response": null,
		"trial_part": "fixation",
		"trial_type": "html-keyboard-response",
		"trial_index": 1,
		"time_elapsed": 38304,
		"internal_node_id": "0.0-1.0-0.0-0.0"
	},
	{
		"rt": 15139,
		"stimulus": "../audio/prac-question-1-1.mp3",
		"response": " ",
		"word": "O",
		"trial_type": "audio-keyboard-response",
		"trial_index": 2,
		"time_elapsed": 53803,
		"internal_node_id": "0.0-1.0-1.0"
	},
	{
		"rt": 24869,
		"stimulus": "../audio/prac-question-1-2.mp3",
		"response": " ",
		"word": "dia",
		"trial_type": "audio-keyboard-response",
		"trial_index": 3,
		"time_elapsed": 78955,
		"internal_node_id": "0.0-1.0-1.1"
	},
	{
		"rt": 22512,
		"stimulus": "../audio/prac-question-1-3.mp3",
		"response": " ",
		"word": "estará",
		"trial_type": "audio-keyboard-response",
		"trial_index": 4,
		"time_elapsed": 101739,
		"internal_node_id": "0.0-1.0-1.2"
	},
	{
		"rt": 5699,
		"stimulus": "../audio/prac-question-1-4.mp3",
		"response": " ",
		"word": "cheio",
		"trial_type": "audio-keyboard-response",
		"trial_index": 5,
		"time_elapsed": 107722,
		"internal_node_id": "0.0-1.0-1.3"
	},
	{
		"rt": 8221,
		"stimulus": "../audio/prac-question-1-5.mp3",
		"response": " ",
		"word": "de",
		"trial_type": "audio-keyboard-response",
		"trial_index": 6,
		"time_elapsed": 116219,
		"internal_node_id": "0.0-1.0-1.4"
	},
	{
		"rt": 8099,
		"stimulus": "../audio/prac-question-1-6.mp3",
		"response": " ",
		"word": "nuvens",
		"trial_type": "audio-keyboard-response",
		"trial_index": 7,
		"time_elapsed": 124594,
		"internal_node_id": "0.0-1.0-1.5"
	},
	{
		"rt": 7101,
		"stimulus": "../audio/prac-question-1-7.mp3",
		"response": " ",
		"word": "hoje.",
		"trial_type": "audio-keyboard-response",
		"trial_index": 8,
		"time_elapsed": 131970,
		"internal_node_id": "0.0-1.0-1.6"
	},
	{
		"rt": null,
		"stimulus": "<span style= \"font-size:30px; font-family: monospace\">+</span>",
		"response": null,
		"trial_part": "fixation",
		"trial_type": "html-keyboard-response",
		"trial_index": 9,
		"time_elapsed": 133226,
		"internal_node_id": "0.0-1.0-0.7-0.7"
	},
	{
		"rt": 6400,
		"stimulus": "../audio/prac-question-2-1.mp3",
		"response": " ",
		"word": "A",
		"trial_type": "audio-keyboard-response",
		"trial_index": 10,
		"time_elapsed": 139906,
		"internal_node_id": "0.0-1.0-1.7"
	},
	{
		"rt": 10541,
		"stimulus": "../audio/prac-question-2-2.mp3",
		"response": " ",
		"word": "caneca",
		"trial_type": "audio-keyboard-response",
		"trial_index": 11,
		"time_elapsed": 150722,
		"internal_node_id": "0.0-1.0-1.8"
	},
	{
		"rt": 44629,
		"stimulus": "../audio/prac-question-2-3.mp3",
		"response": " ",
		"word": "colorida",
		"trial_type": "audio-keyboard-response",
		"trial_index": 12,
		"time_elapsed": 195626,
		"internal_node_id": "0.0-1.0-1.9"
	},
	{
		"rt": 3560,
		"stimulus": "../audio/prac-question-2-4.mp3",
		"response": " ",
		"word": "caiu",
		"trial_type": "audio-keyboard-response",
		"trial_index": 13,
		"time_elapsed": 199545,
		"internal_node_id": "0.0-1.0-1.10"
	},
	{
		"rt": 9768,
		"stimulus": "../audio/prac-question-2-5.mp3",
		"response": " ",
		"word": "da",
		"trial_type": "audio-keyboard-response",
		"trial_index": 14,
		"time_elapsed": 209594,
		"internal_node_id": "0.0-1.0-1.11"
	},
	{
		"rt": 4541,
		"stimulus": "../audio/prac-question-2-6.mp3",
		"response": " ",
		"word": "mesa",
		"trial_type": "audio-keyboard-response",
		"trial_index": 15,
		"time_elapsed": 214409,
		"internal_node_id": "0.0-1.0-1.12"
	},
	{
		"rt": 5181,
		"stimulus": "../audio/prac-question-2-7.mp3",
		"response": " ",
		"word": "de",
		"trial_type": "audio-keyboard-response",
		"trial_index": 16,
		"time_elapsed": 219866,
		"internal_node_id": "0.0-1.0-1.13"
	},
	{
		"rt": 2851,
		"stimulus": "../audio/prac-question-2-8.mp3",
		"response": " ",
		"word": "jantar.",
		"trial_type": "audio-keyboard-response",
		"trial_index": 17,
		"time_elapsed": 222985,
		"internal_node_id": "0.0-1.0-1.14"
	},
	{
		"rt": 40187,
		"stimulus": "<span style=\"font-size:25px; font-family: monospace\">A caneca era colorida?</span>",
		"response": "s",
		"question": "A caneca era colorida?",
		"answer": "null",
		"trial": "prac-sent",
		"trial_type": "html-keyboard-response",
		"trial_index": 18,
		"time_elapsed": 263433,
		"internal_node_id": "0.0-1.0-2.14-0.14",
		"accuracy": false
	},
	{
		"view_history": [
			{
				"page_index": 0,
				"viewing_time": 25956
			}
		],
		"rt": 25956,
		"trial_type": "instructions",
		"trial_index": 19,
		"time_elapsed": 289889,
		"internal_node_id": "0.0-2.0"
	},
	{
		"rt": null,
		"stimulus": "<span style= \"font-size:30px; font-family: monospace\">+</span>",
		"response": null,
		"trial_part": "fixation",
		"trial_type": "html-keyboard-response",
		"trial_index": 20,
		"time_elapsed": 290992,
		"internal_node_id": "0.0-3.0-0.0-0.0"
	},
	{
		"rt": 4960,
		"stimulus": "../audio/22-1-masc.mp3",
		"response": " ",
		"word": "Eu",
		"trial_type": "audio-keyboard-response",
		"trial_index": 21,
		"time_elapsed": 296553,
		"internal_node_id": "0.0-3.0-1.0"
	},
	{
		"rt": 3192,
		"stimulus": "../audio/22-2-masc.mp3",
		"response": " ",
		"word": "detesto",
		"trial_type": "audio-keyboard-response",
		"trial_index": 22,
		"time_elapsed": 300025,
		"internal_node_id": "0.0-3.0-1.1"
	},
	{
		"rt": 2640,
		"stimulus": "../audio/22-3-masc.mp3",
		"response": " ",
		"word": "fumaça",
		"trial_type": "audio-keyboard-response",
		"trial_index": 23,
		"time_elapsed": 302937,
		"internal_node_id": "0.0-3.0-1.2"
	},
	{
		"rt": 2669,
		"stimulus": "../audio/22-4-masc.mp3",
		"response": " ",
		"word": "de",
		"trial_type": "audio-keyboard-response",
		"trial_index": 24,
		"time_elapsed": 305880,
		"internal_node_id": "0.0-3.0-1.3"
	},
	{
		"rt": 2629,
		"stimulus": "../audio/22-5-masc.mp3",
		"response": " ",
		"word": "cachimbo",
		"trial_type": "audio-keyboard-response",
		"trial_index": 25,
		"time_elapsed": 308792,
		"internal_node_id": "0.0-3.0-1.4"
	},
	{
		"rt": 1819,
		"stimulus": "../audio/22-6-masc.mp3",
		"response": " ",
		"word": "e",
		"trial_type": "audio-keyboard-response",
		"trial_index": 26,
		"time_elapsed": 310888,
		"internal_node_id": "0.0-3.0-1.5"
	},
	{
		"rt": 2520,
		"stimulus": "../audio/22-7-masc.mp3",
		"response": " ",
		"word": "de",
		"trial_type": "audio-keyboard-response",
		"trial_index": 27,
		"time_elapsed": 313672,
		"internal_node_id": "0.0-3.0-1.6"
	},
	{
		"rt": 2400,
		"stimulus": "../audio/22-8-masc.mp3",
		"response": " ",
		"word": "cigarro.",
		"trial_type": "audio-keyboard-response",
		"trial_index": 28,
		"time_elapsed": 316360,
		"internal_node_id": "0.0-3.0-1.7"
	},
	{
		"rt": null,
		"stimulus": "<span style= \"font-size:30px; font-family: monospace\">+</span>",
		"response": null,
		"trial_part": "fixation",
		"trial_type": "html-keyboard-response",
		"trial_index": 29,
		"time_elapsed": 317619,
		"internal_node_id": "0.0-3.0-0.8-0.8"
	},
	{
		"rt": 2240,
		"stimulus": "../audio/24-1-fem.mp3",
		"response": " ",
		"word": "As",
		"trial_type": "audio-keyboard-response",
		"trial_index": 30,
		"time_elapsed": 320136,
		"internal_node_id": "0.0-3.0-1.8"
	},
	{
		"rt": 2699,
		"stimulus": "../audio/24-2-fem.mp3",
		"response": " ",
		"word": "crianças",
		"trial_type": "audio-keyboard-response",
		"trial_index": 31,
		"time_elapsed": 323128,
		"internal_node_id": "0.0-3.0-1.9"
	},
	{
		"rt": 2400,
		"stimulus": "../audio/24-3-fem.mp3",
		"response": " ",
		"word": "vão",
		"trial_type": "audio-keyboard-response",
		"trial_index": 32,
		"time_elapsed": 325800,
		"internal_node_id": "0.0-3.0-1.10"
	},
	{
		"rt": 2101,
		"stimulus": "../audio/24-4-fem.mp3",
		"response": " ",
		"word": "ao",
		"trial_type": "audio-keyboard-response",
		"trial_index": 33,
		"time_elapsed": 328184,
		"internal_node_id": "0.0-3.0-1.11"
	},
	{
		"rt": 1840,
		"stimulus": "../audio/24-5-fem.mp3",
		"response": " ",
		"word": "cinema",
		"trial_type": "audio-keyboard-response",
		"trial_index": 34,
		"time_elapsed": 330296,
		"internal_node_id": "0.0-3.0-1.12"
	},
	{
		"rt": 1749,
		"stimulus": "../audio/24-6-fem.mp3",
		"response": " ",
		"word": "mais",
		"trial_type": "audio-keyboard-response",
		"trial_index": 35,
		"time_elapsed": 332328,
		"internal_node_id": "0.0-3.0-1.13"
	},
	{
		"rt": 1531,
		"stimulus": "../audio/24-7-fem.mp3",
		"response": " ",
		"word": "tarde.",
		"trial_type": "audio-keyboard-response",
		"trial_index": 36,
		"time_elapsed": 334120,
		"internal_node_id": "0.0-3.0-1.14"
	},
	{
		"rt": null,
		"stimulus": "<span style= \"font-size:30px; font-family: monospace\">+</span>",
		"response": null,
		"trial_part": "fixation",
		"trial_type": "html-keyboard-response",
		"trial_index": 37,
		"time_elapsed": 335399,
		"internal_node_id": "0.0-3.0-0.15-0.15"
	},
	{
		"rt": 2400,
		"stimulus": "../audio/21-1-fem.mp3",
		"response": " ",
		"word": "Precisamos",
		"trial_type": "audio-keyboard-response",
		"trial_index": 38,
		"time_elapsed": 338072,
		"internal_node_id": "0.0-3.0-1.15"
	},
	{
		"rt": 1112,
		"stimulus": "../audio/21-2-fem.mp3",
		"response": " ",
		"word": "de",
		"trial_type": "audio-keyboard-response",
		"trial_index": 39,
		"time_elapsed": 339464,
		"internal_node_id": "0.0-3.0-1.16"
	},
	{
		"rt": 2328,
		"stimulus": "../audio/21-3-fem.mp3",
		"response": " ",
		"word": "paciência",
		"trial_type": "audio-keyboard-response",
		"trial_index": 40,
		"time_elapsed": 342072,
		"internal_node_id": "0.0-3.0-1.17"
	},
	{
		"rt": 1389,
		"stimulus": "../audio/21-4-fem.mp3",
		"response": " ",
		"word": "e",
		"trial_type": "audio-keyboard-response",
		"trial_index": 41,
		"time_elapsed": 343736,
		"internal_node_id": "0.0-3.0-1.18"
	},
	{
		"rt": 1640,
		"stimulus": "../audio/21-5-fem.mp3",
		"response": " ",
		"word": "bondade",
		"trial_type": "audio-keyboard-response",
		"trial_index": 42,
		"time_elapsed": 345655,
		"internal_node_id": "0.0-3.0-1.19"
	},
	{
		"rt": 2379,
		"stimulus": "../audio/21-6-fem.mp3",
		"response": " ",
		"word": "para",
		"trial_type": "audio-keyboard-response",
		"trial_index": 43,
		"time_elapsed": 348312,
		"internal_node_id": "0.0-3.0-1.20"
	},
	{
		"rt": 1739,
		"stimulus": "../audio/21-7-fem.mp3",
		"response": " ",
		"word": "um",
		"trial_type": "audio-keyboard-response",
		"trial_index": 44,
		"time_elapsed": 350328,
		"internal_node_id": "0.0-3.0-1.21"
	},
	{
		"rt": 1949,
		"stimulus": "../audio/21-8-fem.mp3",
		"response": " ",
		"word": "mundo",
		"trial_type": "audio-keyboard-response",
		"trial_index": 45,
		"time_elapsed": 352552,
		"internal_node_id": "0.0-3.0-1.22"
	},
	{
		"rt": 2200,
		"stimulus": "../audio/21-9-fem.mp3",
		"response": " ",
		"word": "melhor.",
		"trial_type": "audio-keyboard-response",
		"trial_index": 46,
		"time_elapsed": 355032,
		"internal_node_id": "0.0-3.0-1.23"
	},
	{
		"rt": null,
		"stimulus": "<span style= \"font-size:30px; font-family: monospace\">+</span>",
		"response": null,
		"trial_part": "fixation",
		"trial_type": "html-keyboard-response",
		"trial_index": 47,
		"time_elapsed": 356292,
		"internal_node_id": "0.0-3.0-0.24-0.24"
	},
	{
		"rt": 4349,
		"stimulus": "../audio/23-1-masc.mp3",
		"response": " ",
		"word": "Português",
		"trial_type": "audio-keyboard-response",
		"trial_index": 48,
		"time_elapsed": 360920,
		"internal_node_id": "0.0-3.0-1.24"
	},
	{
		"rt": 3072,
		"stimulus": "../audio/23-2-masc.mp3",
		"response": " ",
		"word": "é",
		"trial_type": "audio-keyboard-response",
		"trial_index": 49,
		"time_elapsed": 364264,
		"internal_node_id": "0.0-3.0-1.25"
	},
	{
		"rt": 1789,
		"stimulus": "../audio/23-3-masc.mp3",
		"response": " ",
		"word": "um",
		"trial_type": "audio-keyboard-response",
		"trial_index": 50,
		"time_elapsed": 366319,
		"internal_node_id": "0.0-3.0-1.26"
	},
	{
		"rt": 1931,
		"stimulus": "../audio/23-4-masc.mp3",
		"response": " ",
		"word": "assunto",
		"trial_type": "audio-keyboard-response",
		"trial_index": 51,
		"time_elapsed": 368527,
		"internal_node_id": "0.0-3.0-1.27"
	},
	{
		"rt": 1851,
		"stimulus": "../audio/23-5-masc.mp3",
		"response": " ",
		"word": "elementar",
		"trial_type": "audio-keyboard-response",
		"trial_index": 52,
		"time_elapsed": 370655,
		"internal_node_id": "0.0-3.0-1.28"
	},
	{
		"rt": 1731,
		"stimulus": "../audio/23-6-masc.mp3",
		"response": " ",
		"word": "para",
		"trial_type": "audio-keyboard-response",
		"trial_index": 53,
		"time_elapsed": 372655,
		"internal_node_id": "0.0-3.0-1.29"
	},
	{
		"rt": 1520,
		"stimulus": "../audio/23-7-masc.mp3",
		"response": " ",
		"word": "os",
		"trial_type": "audio-keyboard-response",
		"trial_index": 54,
		"time_elapsed": 374447,
		"internal_node_id": "0.0-3.0-1.30"
	},
	{
		"rt": 1379,
		"stimulus": "../audio/23-8-masc.mp3",
		"response": " ",
		"word": "alunos.",
		"trial_type": "audio-keyboard-response",
		"trial_index": 55,
		"time_elapsed": 376111,
		"internal_node_id": "0.0-3.0-1.31"
	},
	{
		"rt": null,
		"stimulus": "<span style= \"font-size:30px; font-family: monospace\">+</span>",
		"response": null,
		"trial_part": "fixation",
		"trial_type": "html-keyboard-response",
		"trial_index": 56,
		"time_elapsed": 377401,
		"internal_node_id": "0.0-3.0-0.32-0.32"
	},
	{
		"rt": 2920,
		"stimulus": "../audio/25-1-fem.mp3",
		"response": " ",
		"word": "Ela",
		"trial_type": "audio-keyboard-response",
		"trial_index": 57,
		"time_elapsed": 380591,
		"internal_node_id": "0.0-3.0-1.32"
	},
	{
		"rt": 2131,
		"stimulus": "../audio/25-2-fem.mp3",
		"response": " ",
		"word": "faz",
		"trial_type": "audio-keyboard-response",
		"trial_index": 58,
		"time_elapsed": 383007,
		"internal_node_id": "0.0-3.0-1.33"
	},
	{
		"rt": 2309,
		"stimulus": "../audio/25-3-fem.mp3",
		"response": " ",
		"word": "tanto",
		"trial_type": "audio-keyboard-response",
		"trial_index": 59,
		"time_elapsed": 385583,
		"internal_node_id": "0.0-3.0-1.34"
	},
	{
		"rt": 2560,
		"stimulus": "../audio/25-4-fem.mp3",
		"response": " ",
		"word": "cabelo",
		"trial_type": "audio-keyboard-response",
		"trial_index": 60,
		"time_elapsed": 388463,
		"internal_node_id": "0.0-3.0-1.35"
	},
	{
		"rt": 3091,
		"stimulus": "../audio/25-5-fem.mp3",
		"response": " ",
		"word": "liso",
		"trial_type": "audio-keyboard-response",
		"trial_index": 61,
		"time_elapsed": 391839,
		"internal_node_id": "0.0-3.0-1.36"
	},
	{
		"rt": 1371,
		"stimulus": "../audio/25-6-fem.mp3",
		"response": " ",
		"word": "quanto",
		"trial_type": "audio-keyboard-response",
		"trial_index": 62,
		"time_elapsed": 393471,
		"internal_node_id": "0.0-3.0-1.37"
	},
	{
		"rt": 1611,
		"stimulus": "../audio/25-7-fem.mp3",
		"response": " ",
		"word": "cacheado.",
		"trial_type": "audio-keyboard-response",
		"trial_index": 63,
		"time_elapsed": 395359,
		"internal_node_id": "0.0-3.0-1.38"
	},
	{
		"rt": 70853,
		"stimulus": "<span style=\"font-size:25px; font-family: monospace\">Ela só faz cabelo cacheado?</span>",
		"response": "s",
		"question": "Ela só faz cabelo cacheado?",
		"answer": "null",
		"trial": "exp-sent",
		"trial_type": "html-keyboard-response",
		"trial_index": 64,
		"time_elapsed": 466472,
		"internal_node_id": "0.0-3.0-2.38-0.38",
		"accuracy": false
	},
	{
		"rt": null,
		"stimulus": "<span style= \"font-size:30px; font-family: monospace\">+</span>",
		"response": null,
		"trial_part": "fixation",
		"trial_type": "html-keyboard-response",
		"trial_index": 65,
		"time_elapsed": 467975,
		"internal_node_id": "0.0-3.0-0.39-0.39"
	},
	{
		"rt": 3731,
		"stimulus": "../audio/14-1-fem.mp3",
		"response": " ",
		"word": "O",
		"trial_type": "audio-keyboard-response",
		"trial_index": 66,
		"time_elapsed": 472312,
		"internal_node_id": "0.0-3.0-1.39"
	},
	{
		"rt": 2509,
		"stimulus": "../audio/14-2-fem.mp3",
		"response": " ",
		"word": "cachorro",
		"trial_type": "audio-keyboard-response",
		"trial_index": 67,
		"time_elapsed": 475095,
		"internal_node_id": "0.0-3.0-1.40"
	},
	{
		"rt": 1600,
		"stimulus": "../audio/14-3-fem.mp3",
		"response": " ",
		"word": "é",
		"trial_type": "audio-keyboard-response",
		"trial_index": 68,
		"time_elapsed": 476984,
		"internal_node_id": "0.0-3.0-1.41"
	},
	{
		"rt": 1320,
		"stimulus": "../audio/14-4-fem.mp3",
		"response": " ",
		"word": "muito",
		"trial_type": "audio-keyboard-response",
		"trial_index": 69,
		"time_elapsed": 478583,
		"internal_node_id": "0.0-3.0-1.42"
	},
	{
		"rt": 1139,
		"stimulus": "../audio/14-5-fem.mp3",
		"response": " ",
		"word": "fiel",
		"trial_type": "audio-keyboard-response",
		"trial_index": 70,
		"time_elapsed": 480007,
		"internal_node_id": "0.0-3.0-1.43"
	},
	{
		"rt": 920,
		"stimulus": "../audio/14-6-fem.mp3",
		"response": " ",
		"word": "a",
		"trial_type": "audio-keyboard-response",
		"trial_index": 71,
		"time_elapsed": 481207,
		"internal_node_id": "0.0-3.0-1.44"
	},
	{
		"rt": 1381,
		"stimulus": "../audio/14-7-fem.mp3",
		"response": " ",
		"word": "seus",
		"trial_type": "audio-keyboard-response",
		"trial_index": 72,
		"time_elapsed": 482855,
		"internal_node_id": "0.0-3.0-1.45"
	},
	{
		"rt": 1400,
		"stimulus": "../audio/14-8-fem.mp3",
		"response": " ",
		"word": "donos.",
		"trial_type": "audio-keyboard-response",
		"trial_index": 73,
		"time_elapsed": 484535,
		"internal_node_id": "0.0-3.0-1.46"
	},
	{
		"rt": null,
		"stimulus": "<span style= \"font-size:30px; font-family: monospace\">+</span>",
		"response": null,
		"trial_part": "fixation",
		"trial_type": "html-keyboard-response",
		"trial_index": 74,
		"time_elapsed": 485823,
		"internal_node_id": "0.0-3.0-0.47-0.47"
	},
	{
		"rt": 1589,
		"stimulus": "../audio/12-1-masc.mp3",
		"response": " ",
		"word": "O",
		"trial_type": "audio-keyboard-response",
		"trial_index": 75,
		"time_elapsed": 487703,
		"internal_node_id": "0.0-3.0-1.47"
	},
	{
		"rt": 1701,
		"stimulus": "../audio/12-2-masc.mp3",
		"response": " ",
		"word": "dia",
		"trial_type": "audio-keyboard-response",
		"trial_index": 76,
		"time_elapsed": 489671,
		"internal_node_id": "0.0-3.0-1.48"
	},
	{
		"rt": 1891,
		"stimulus": "../audio/12-3-masc.mp3",
		"response": " ",
		"word": "estava",
		"trial_type": "audio-keyboard-response",
		"trial_index": 77,
		"time_elapsed": 491831,
		"internal_node_id": "0.0-3.0-1.49"
	},
	{
		"rt": 3288,
		"stimulus": "../audio/12-4-masc.mp3",
		"response": " ",
		"word": "quente,",
		"trial_type": "audio-keyboard-response",
		"trial_index": 78,
		"time_elapsed": 495399,
		"internal_node_id": "0.0-3.0-1.50"
	},
	{
		"rt": 2051,
		"stimulus": "../audio/12-5-masc.mp3",
		"response": " ",
		"word": "tranquilo",
		"trial_type": "audio-keyboard-response",
		"trial_index": 79,
		"time_elapsed": 497735,
		"internal_node_id": "0.0-3.0-1.51"
	},
	{
		"rt": 1280,
		"stimulus": "../audio/12-6-masc.mp3",
		"response": " ",
		"word": "e",
		"trial_type": "audio-keyboard-response",
		"trial_index": 80,
		"time_elapsed": 499302,
		"internal_node_id": "0.0-3.0-1.52"
	},
	{
		"rt": 2891,
		"stimulus": "../audio/12-7-masc.mp3",
		"response": " ",
		"word": "ensolarado.",
		"trial_type": "audio-keyboard-response",
		"trial_index": 81,
		"time_elapsed": 502471,
		"internal_node_id": "0.0-3.0-1.53"
	},
	{
		"rt": null,
		"stimulus": "<span style= \"font-size:30px; font-family: monospace\">+</span>",
		"response": null,
		"trial_part": "fixation",
		"trial_type": "html-keyboard-response",
		"trial_index": 82,
		"time_elapsed": 503737,
		"internal_node_id": "0.0-3.0-0.54-0.54"
	},
	{
		"rt": 1440,
		"stimulus": "../audio/13-1-masc.mp3",
		"response": " ",
		"word": "Para",
		"trial_type": "audio-keyboard-response",
		"trial_index": 83,
		"time_elapsed": 505447,
		"internal_node_id": "0.0-3.0-1.54"
	},
	{
		"rt": 1821,
		"stimulus": "../audio/13-2-masc.mp3",
		"response": " ",
		"word": "mim",
		"trial_type": "audio-keyboard-response",
		"trial_index": 84,
		"time_elapsed": 507543,
		"internal_node_id": "0.0-3.0-1.55"
	},
	{
		"rt": 1680,
		"stimulus": "../audio/13-3-masc.mp3",
		"response": " ",
		"word": "é",
		"trial_type": "audio-keyboard-response",
		"trial_index": 85,
		"time_elapsed": 509511,
		"internal_node_id": "0.0-3.0-1.56"
	},
	{
		"rt": 2488,
		"stimulus": "../audio/13-4-masc.mp3",
		"response": " ",
		"word": "muito",
		"trial_type": "audio-keyboard-response",
		"trial_index": 86,
		"time_elapsed": 512279,
		"internal_node_id": "0.0-3.0-1.57"
	},
	{
		"rt": 2141,
		"stimulus": "../audio/13-5-masc.mp3",
		"response": " ",
		"word": "difícil",
		"trial_type": "audio-keyboard-response",
		"trial_index": 87,
		"time_elapsed": 514694,
		"internal_node_id": "0.0-3.0-1.58"
	},
	{
		"rt": 2291,
		"stimulus": "../audio/13-6-masc.mp3",
		"response": " ",
		"word": "acordar",
		"trial_type": "audio-keyboard-response",
		"trial_index": 88,
		"time_elapsed": 517270,
		"internal_node_id": "0.0-3.0-1.59"
	},
	{
		"rt": 1440,
		"stimulus": "../audio/13-7-masc.mp3",
		"response": " ",
		"word": "cedo.",
		"trial_type": "audio-keyboard-response",
		"trial_index": 89,
		"time_elapsed": 518983,
		"internal_node_id": "0.0-3.0-1.60"
	},
	{
		"rt": null,
		"stimulus": "<span style= \"font-size:30px; font-family: monospace\">+</span>",
		"response": null,
		"trial_part": "fixation",
		"trial_type": "html-keyboard-response",
		"trial_index": 90,
		"time_elapsed": 520263,
		"internal_node_id": "0.0-3.0-0.61-0.61"
	},
	{
		"rt": 1960,
		"stimulus": "../audio/11-1-masc.mp3",
		"response": " ",
		"word": "Elas",
		"trial_type": "audio-keyboard-response",
		"trial_index": 91,
		"time_elapsed": 522503,
		"internal_node_id": "0.0-3.0-1.61"
	},
	{
		"rt": 2091,
		"stimulus": "../audio/11-2-masc.mp3",
		"response": " ",
		"word": "gostam",
		"trial_type": "audio-keyboard-response",
		"trial_index": 92,
		"time_elapsed": 524871,
		"internal_node_id": "0.0-3.0-1.62"
	},
	{
		"rt": 3120,
		"stimulus": "../audio/11-3-masc.mp3",
		"response": " ",
		"word": "muito",
		"trial_type": "audio-keyboard-response",
		"trial_index": 93,
		"time_elapsed": 528279,
		"internal_node_id": "0.0-3.0-1.63"
	},
	{
		"rt": 2579,
		"stimulus": "../audio/11-4-masc.mp3",
		"response": " ",
		"word": "de",
		"trial_type": "audio-keyboard-response",
		"trial_index": 94,
		"time_elapsed": 531126,
		"internal_node_id": "0.0-3.0-1.64"
	},
	{
		"rt": 1861,
		"stimulus": "../audio/11-5-masc.mp3",
		"response": " ",
		"word": "aritmética",
		"trial_type": "audio-keyboard-response",
		"trial_index": 95,
		"time_elapsed": 533271,
		"internal_node_id": "0.0-3.0-1.65"
	},
	{
		"rt": 1109,
		"stimulus": "../audio/11-6-masc.mp3",
		"response": " ",
		"word": "e",
		"trial_type": "audio-keyboard-response",
		"trial_index": 96,
		"time_elapsed": 534663,
		"internal_node_id": "0.0-3.0-1.66"
	},
	{
		"rt": 1280,
		"stimulus": "../audio/11-7-masc.mp3",
		"response": " ",
		"word": "de",
		"trial_type": "audio-keyboard-response",
		"trial_index": 97,
		"time_elapsed": 536231,
		"internal_node_id": "0.0-3.0-1.67"
	},
	{
		"rt": 1859,
		"stimulus": "../audio/11-8-masc.mp3",
		"response": " ",
		"word": "leitura.",
		"trial_type": "audio-keyboard-response",
		"trial_index": 98,
		"time_elapsed": 538359,
		"internal_node_id": "0.0-3.0-1.68"
	},
	{
		"rt": null,
		"stimulus": "<span style= \"font-size:30px; font-family: monospace\">+</span>",
		"response": null,
		"trial_part": "fixation",
		"trial_type": "html-keyboard-response",
		"trial_index": 99,
		"time_elapsed": 539633,
		"internal_node_id": "0.0-3.0-0.69-0.69"
	},
	{
		"rt": 1240,
		"stimulus": "../audio/15-1-masc.mp3",
		"response": " ",
		"word": "Meu",
		"trial_type": "audio-keyboard-response",
		"trial_index": 100,
		"time_elapsed": 541143,
		"internal_node_id": "0.0-3.0-1.69"
	},
	{
		"rt": 1120,
		"stimulus": "../audio/15-2-masc.mp3",
		"response": " ",
		"word": "primo",
		"trial_type": "audio-keyboard-response",
		"trial_index": 101,
		"time_elapsed": 542551,
		"internal_node_id": "0.0-3.0-1.70"
	},
	{
		"rt": 859,
		"stimulus": "../audio/15-3-masc.mp3",
		"response": " ",
		"word": "é",
		"trial_type": "audio-keyboard-response",
		"trial_index": 102,
		"time_elapsed": 543687,
		"internal_node_id": "0.0-3.0-1.71"
	},
	{
		"rt": 861,
		"stimulus": "../audio/15-4-masc.mp3",
		"response": " ",
		"word": "um",
		"trial_type": "audio-keyboard-response",
		"trial_index": 103,
		"time_elapsed": 544823,
		"internal_node_id": "0.0-3.0-1.72"
	},
	{
		"rt": 1709,
		"stimulus": "../audio/15-5-masc.mp3",
		"response": " ",
		"word": "grande",
		"trial_type": "audio-keyboard-response",
		"trial_index": 104,
		"time_elapsed": 546807,
		"internal_node_id": "0.0-3.0-1.73"
	},
	{
		"rt": 3061,
		"stimulus": "../audio/15-6-masc.mp3",
		"response": " ",
		"word": "vendedor",
		"trial_type": "audio-keyboard-response",
		"trial_index": 105,
		"time_elapsed": 550151,
		"internal_node_id": "0.0-3.0-1.74"
	},
	{
		"rt": 1909,
		"stimulus": "../audio/15-7-masc.mp3",
		"response": " ",
		"word": "de",
		"trial_type": "audio-keyboard-response",
		"trial_index": 106,
		"time_elapsed": 552327,
		"internal_node_id": "0.0-3.0-1.75"
	},
	{
		"rt": 1901,
		"stimulus": "../audio/15-8-masc.mp3",
		"response": " ",
		"word": "carros.",
		"trial_type": "audio-keyboard-response",
		"trial_index": 107,
		"time_elapsed": 554503,
		"internal_node_id": "0.0-3.0-1.76"
	},
	{
		"rt": 24541,
		"stimulus": "<span style=\"font-size:25px; font-family: monospace\">O primo é um vendedor de carros?</span>",
		"response": "s",
		"question": "O primo é um vendedor de carros?",
		"answer": "null",
		"trial": "exp-sent",
		"trial_type": "html-keyboard-response",
		"trial_index": 108,
		"time_elapsed": 579303,
		"internal_node_id": "0.0-3.0-2.76-0.76",
		"accuracy": false
	},
	{
		"rt": null,
		"stimulus": "<span style= \"font-size:30px; font-family: monospace\">+</span>",
		"response": null,
		"trial_part": "fixation",
		"trial_type": "html-keyboard-response",
		"trial_index": 109,
		"time_elapsed": 580843,
		"internal_node_id": "0.0-3.0-0.77-0.77"
	},
	{
		"rt": 3621,
		"stimulus": "../audio/07-1-masc.mp3",
		"response": " ",
		"word": "Meu",
		"trial_type": "audio-keyboard-response",
		"trial_index": 110,
		"time_elapsed": 584743,
		"internal_node_id": "0.0-3.0-1.77"
	},
	{
		"rt": 2989,
		"stimulus": "../audio/07-2-masc.mp3",
		"response": " ",
		"word": "filho",
		"trial_type": "audio-keyboard-response",
		"trial_index": 111,
		"time_elapsed": 588007,
		"internal_node_id": "0.0-3.0-1.78"
	},
	{
		"rt": 1251,
		"stimulus": "../audio/07-3-masc.mp3",
		"response": " ",
		"word": "é",
		"trial_type": "audio-keyboard-response",
		"trial_index": 112,
		"time_elapsed": 589527,
		"internal_node_id": "0.0-3.0-1.79"
	},
	{
		"rt": 3200,
		"stimulus": "../audio/07-4-masc.mp3",
		"response": " ",
		"word": "muito",
		"trial_type": "audio-keyboard-response",
		"trial_index": 113,
		"time_elapsed": 592999,
		"internal_node_id": "0.0-3.0-1.80"
	},
	{
		"rt": 2440,
		"stimulus": "../audio/07-5-masc.mp3",
		"response": " ",
		"word": "responsável",
		"trial_type": "audio-keyboard-response",
		"trial_index": 114,
		"time_elapsed": 595719,
		"internal_node_id": "0.0-3.0-1.81"
	},
	{
		"rt": 1941,
		"stimulus": "../audio/07-6-masc.mp3",
		"response": " ",
		"word": "nos",
		"trial_type": "audio-keyboard-response",
		"trial_index": 115,
		"time_elapsed": 597943,
		"internal_node_id": "0.0-3.0-1.82"
	},
	{
		"rt": 4269,
		"stimulus": "../audio/07-7-masc.mp3",
		"response": " ",
		"word": "estudos.",
		"trial_type": "audio-keyboard-response",
		"trial_index": 116,
		"time_elapsed": 602487,
		"internal_node_id": "0.0-3.0-1.83"
	},
	{
		"rt": null,
		"stimulus": "<span style= \"font-size:30px; font-family: monospace\">+</span>",
		"response": null,
		"trial_part": "fixation",
		"trial_type": "html-keyboard-response",
		"trial_index": 117,
		"time_elapsed": 603752,
		"internal_node_id": "0.0-3.0-0.84-0.84"
	},
	{
		"rt": 4051,
		"stimulus": "../audio/06-1-fem.mp3",
		"response": " ",
		"word": "Ouvimos",
		"trial_type": "audio-keyboard-response",
		"trial_index": 118,
		"time_elapsed": 608087,
		"internal_node_id": "0.0-3.0-1.84"
	},
	{
		"rt": 1632,
		"stimulus": "../audio/06-2-fem.mp3",
		"response": " ",
		"word": "a",
		"trial_type": "audio-keyboard-response",
		"trial_index": 119,
		"time_elapsed": 609983,
		"internal_node_id": "0.0-3.0-1.85"
	},
	{
		"rt": 2949,
		"stimulus": "../audio/06-3-fem.mp3",
		"response": " ",
		"word": "fala",
		"trial_type": "audio-keyboard-response",
		"trial_index": 120,
		"time_elapsed": 613215,
		"internal_node_id": "0.0-3.0-1.86"
	},
	{
		"rt": 1640,
		"stimulus": "../audio/06-4-fem.mp3",
		"response": " ",
		"word": "do",
		"trial_type": "audio-keyboard-response",
		"trial_index": 121,
		"time_elapsed": 615135,
		"internal_node_id": "0.0-3.0-1.87"
	},
	{
		"rt": 1648,
		"stimulus": "../audio/06-5-fem.mp3",
		"response": " ",
		"word": "profeta",
		"trial_type": "audio-keyboard-response",
		"trial_index": 122,
		"time_elapsed": 617070,
		"internal_node_id": "0.0-3.0-1.88"
	},
	{
		"rt": 1139,
		"stimulus": "../audio/06-6-fem.mp3",
		"response": " ",
		"word": "no",
		"trial_type": "audio-keyboard-response",
		"trial_index": 123,
		"time_elapsed": 618479,
		"internal_node_id": "0.0-3.0-1.89"
	},
	{
		"rt": 1440,
		"stimulus": "../audio/06-7-fem.mp3",
		"response": " ",
		"word": "púlpito",
		"trial_type": "audio-keyboard-response",
		"trial_index": 124,
		"time_elapsed": 620191,
		"internal_node_id": "0.0-3.0-1.90"
	},
	{
		"rt": 1240,
		"stimulus": "../audio/06-8-fem.mp3",
		"response": " ",
		"word": "da",
		"trial_type": "audio-keyboard-response",
		"trial_index": 125,
		"time_elapsed": 621710,
		"internal_node_id": "0.0-3.0-1.91"
	},
	{
		"rt": 1861,
		"stimulus": "../audio/06-9-fem.mp3",
		"response": " ",
		"word": "igreja.",
		"trial_type": "audio-keyboard-response",
		"trial_index": 126,
		"time_elapsed": 623855,
		"internal_node_id": "0.0-3.0-1.92"
	},
	{
		"rt": null,
		"stimulus": "<span style= \"font-size:30px; font-family: monospace\">+</span>",
		"response": null,
		"trial_part": "fixation",
		"trial_type": "html-keyboard-response",
		"trial_index": 127,
		"time_elapsed": 625134,
		"internal_node_id": "0.0-3.0-0.93-0.93"
	},
	{
		"rt": 1520,
		"stimulus": "../audio/09-1-masc.mp3",
		"response": " ",
		"word": "O",
		"trial_type": "audio-keyboard-response",
		"trial_index": 128,
		"time_elapsed": 626926,
		"internal_node_id": "0.0-3.0-1.93"
	},
	{
		"rt": 1869,
		"stimulus": "../audio/09-2-masc.mp3",
		"response": " ",
		"word": "rapaz",
		"trial_type": "audio-keyboard-response",
		"trial_index": 129,
		"time_elapsed": 629070,
		"internal_node_id": "0.0-3.0-1.94"
	},
	{
		"rt": 2368,
		"stimulus": "../audio/09-3-masc.mp3",
		"response": " ",
		"word": "limpou",
		"trial_type": "audio-keyboard-response",
		"trial_index": 130,
		"time_elapsed": 631711,
		"internal_node_id": "0.0-3.0-1.95"
	},
	{
		"rt": 1699,
		"stimulus": "../audio/09-4-masc.mp3",
		"response": " ",
		"word": "o",
		"trial_type": "audio-keyboard-response",
		"trial_index": 131,
		"time_elapsed": 633678,
		"internal_node_id": "0.0-3.0-1.96"
	},
	{
		"rt": 1411,
		"stimulus": "../audio/09-5-masc.mp3",
		"response": " ",
		"word": "terreno",
		"trial_type": "audio-keyboard-response",
		"trial_index": 132,
		"time_elapsed": 635359,
		"internal_node_id": "0.0-3.0-1.97"
	},
	{
		"rt": 2149,
		"stimulus": "../audio/09-6-masc.mp3",
		"response": " ",
		"word": "com",
		"trial_type": "audio-keyboard-response",
		"trial_index": 133,
		"time_elapsed": 637790,
		"internal_node_id": "0.0-3.0-1.98"
	},
	{
		"rt": 1200,
		"stimulus": "../audio/09-7-masc.mp3",
		"response": " ",
		"word": "uma",
		"trial_type": "audio-keyboard-response",
		"trial_index": 134,
		"time_elapsed": 639262,
		"internal_node_id": "0.0-3.0-1.99"
	},
	{
		"rt": 1459,
		"stimulus": "../audio/09-8-masc.mp3",
		"response": " ",
		"word": "pá.",
		"trial_type": "audio-keyboard-response",
		"trial_index": 135,
		"time_elapsed": 640990,
		"internal_node_id": "0.0-3.0-1.100"
	},
	{
		"rt": null,
		"stimulus": "<span style= \"font-size:30px; font-family: monospace\">+</span>",
		"response": null,
		"trial_part": "fixation",
		"trial_type": "html-keyboard-response",
		"trial_index": 136,
		"time_elapsed": 642274,
		"internal_node_id": "0.0-3.0-0.101-0.101"
	},
	{
		"rt": 941,
		"stimulus": "../audio/08-1-fem.mp3",
		"response": " ",
		"word": "A",
		"trial_type": "audio-keyboard-response",
		"trial_index": 137,
		"time_elapsed": 643486,
		"internal_node_id": "0.0-3.0-1.101"
	},
	{
		"rt": 1829,
		"stimulus": "../audio/08-2-fem.mp3",
		"response": " ",
		"word": "receita",
		"trial_type": "audio-keyboard-response",
		"trial_index": 138,
		"time_elapsed": 645599,
		"internal_node_id": "0.0-3.0-1.102"
	},
	{
		"rt": 2021,
		"stimulus": "../audio/08-3-fem.mp3",
		"response": " ",
		"word": "pede",
		"trial_type": "audio-keyboard-response",
		"trial_index": 139,
		"time_elapsed": 647886,
		"internal_node_id": "0.0-3.0-1.103"
	},
	{
		"rt": 2269,
		"stimulus": "../audio/08-4-fem.mp3",
		"response": " ",
		"word": "um",
		"trial_type": "audio-keyboard-response",
		"trial_index": 140,
		"time_elapsed": 650430,
		"internal_node_id": "0.0-3.0-1.104"
	},
	{
		"rt": 1619,
		"stimulus": "../audio/08-5-fem.mp3",
		"response": " ",
		"word": "litro",
		"trial_type": "audio-keyboard-response",
		"trial_index": 141,
		"time_elapsed": 652319,
		"internal_node_id": "0.0-3.0-1.105"
	},
	{
		"rt": 1811,
		"stimulus": "../audio/08-6-fem.mp3",
		"response": " ",
		"word": "de",
		"trial_type": "audio-keyboard-response",
		"trial_index": 142,
		"time_elapsed": 654415,
		"internal_node_id": "0.0-3.0-1.106"
	},
	{
		"rt": 2139,
		"stimulus": "../audio/08-7-fem.mp3",
		"response": " ",
		"word": "leite",
		"trial_type": "audio-keyboard-response",
		"trial_index": 143,
		"time_elapsed": 656831,
		"internal_node_id": "0.0-3.0-1.107"
	},
	{
		"rt": 1459,
		"stimulus": "../audio/08-8-fem.mp3",
		"response": " ",
		"word": "integral.",
		"trial_type": "audio-keyboard-response",
		"trial_index": 144,
		"time_elapsed": 658558,
		"internal_node_id": "0.0-3.0-1.108"
	},
	{
		"rt": null,
		"stimulus": "<span style= \"font-size:30px; font-family: monospace\">+</span>",
		"response": null,
		"trial_part": "fixation",
		"trial_type": "html-keyboard-response",
		"trial_index": 145,
		"time_elapsed": 659834,
		"internal_node_id": "0.0-3.0-0.109-0.109"
	},
	{
		"rt": 1421,
		"stimulus": "../audio/10-1-masc.mp3",
		"response": " ",
		"word": "O",
		"trial_type": "audio-keyboard-response",
		"trial_index": 146,
		"time_elapsed": 661535,
		"internal_node_id": "0.0-3.0-1.109"
	},
	{
		"rt": 1979,
		"stimulus": "../audio/10-2-masc.mp3",
		"response": " ",
		"word": "pássaro",
		"trial_type": "audio-keyboard-response",
		"trial_index": 147,
		"time_elapsed": 663791,
		"internal_node_id": "0.0-3.0-1.110"
	},
	{
		"rt": 1701,
		"stimulus": "../audio/10-3-masc.mp3",
		"response": " ",
		"word": "azul",
		"trial_type": "audio-keyboard-response",
		"trial_index": 148,
		"time_elapsed": 665775,
		"internal_node_id": "0.0-3.0-1.111"
	},
	{
		"rt": 3360,
		"stimulus": "../audio/10-4-masc.mp3",
		"response": " ",
		"word": "estava",
		"trial_type": "audio-keyboard-response",
		"trial_index": 149,
		"time_elapsed": 669407,
		"internal_node_id": "0.0-3.0-1.112"
	},
	{
		"rt": 2731,
		"stimulus": "../audio/10-5-masc.mp3",
		"response": " ",
		"word": "vivo",
		"trial_type": "audio-keyboard-response",
		"trial_index": 150,
		"time_elapsed": 672422,
		"internal_node_id": "0.0-3.0-1.113"
	},
	{
		"rt": 1099,
		"stimulus": "../audio/10-6-masc.mp3",
		"response": " ",
		"word": "e",
		"trial_type": "audio-keyboard-response",
		"trial_index": 151,
		"time_elapsed": 673798,
		"internal_node_id": "0.0-3.0-1.114"
	},
	{
		"rt": 1061,
		"stimulus": "../audio/10-7-masc.mp3",
		"response": " ",
		"word": "em",
		"trial_type": "audio-keyboard-response",
		"trial_index": 152,
		"time_elapsed": 675142,
		"internal_node_id": "0.0-3.0-1.115"
	},
	{
		"rt": 2029,
		"stimulus": "../audio/10-8-masc.mp3",
		"response": " ",
		"word": "segurança.",
		"trial_type": "audio-keyboard-response",
		"trial_index": 153,
		"time_elapsed": 677462,
		"internal_node_id": "0.0-3.0-1.116"
	},
	{
		"rt": 40226,
		"stimulus": "<span style=\"font-size:25px; font-family: monospace\">O pássaro vermelho estava em segurança?</span>",
		"response": "s",
		"question": "O pássaro vermelho estava em segurança?",
		"answer": "null",
		"trial": "exp-sent",
		"trial_type": "html-keyboard-response",
		"trial_index": 154,
		"time_elapsed": 717958,
		"internal_node_id": "0.0-3.0-2.116-0.116",
		"accuracy": false
	},
	{
		"rt": null,
		"stimulus": "<span style= \"font-size:30px; font-family: monospace\">+</span>",
		"response": null,
		"trial_part": "fixation",
		"trial_type": "html-keyboard-response",
		"trial_index": 155,
		"time_elapsed": 719460,
		"internal_node_id": "0.0-3.0-0.117-0.117"
	},
	{
		"rt": 2789,
		"stimulus": "../audio/64-1-masc.mp3",
		"response": " ",
		"word": "O",
		"trial_type": "audio-keyboard-response",
		"trial_index": 156,
		"time_elapsed": 722614,
		"internal_node_id": "0.0-3.0-1.117"
	},
	{
		"rt": 1931,
		"stimulus": "../audio/64-2-masc.mp3",
		"response": " ",
		"word": "dia",
		"trial_type": "audio-keyboard-response",
		"trial_index": 157,
		"time_elapsed": 724822,
		"internal_node_id": "0.0-3.0-1.118"
	},
	{
		"rt": 2120,
		"stimulus": "../audio/64-3-masc.mp3",
		"response": " ",
		"word": "começou",
		"trial_type": "audio-keyboard-response",
		"trial_index": 158,
		"time_elapsed": 727222,
		"internal_node_id": "0.0-3.0-1.119"
	},
	{
		"rt": 1779,
		"stimulus": "../audio/64-4-masc.mp3",
		"response": " ",
		"word": "com",
		"trial_type": "audio-keyboard-response",
		"trial_index": 159,
		"time_elapsed": 729286,
		"internal_node_id": "0.0-3.0-1.120"
	},
	{
		"rt": 1680,
		"stimulus": "../audio/64-5-masc.mp3",
		"response": " ",
		"word": "garoa",
		"trial_type": "audio-keyboard-response",
		"trial_index": 160,
		"time_elapsed": 731238,
		"internal_node_id": "0.0-3.0-1.121"
	},
	{
		"rt": 2019,
		"stimulus": "../audio/64-6-masc.mp3",
		"response": " ",
		"word": "gelada",
		"trial_type": "audio-keyboard-response",
		"trial_index": 161,
		"time_elapsed": 733522,
		"internal_node_id": "0.0-3.0-1.122"
	},
	{
		"rt": 992,
		"stimulus": "../audio/64-7-masc.mp3",
		"response": " ",
		"word": "e",
		"trial_type": "audio-keyboard-response",
		"trial_index": 162,
		"time_elapsed": 734786,
		"internal_node_id": "0.0-3.0-1.123"
	},
	{
		"rt": 2219,
		"stimulus": "../audio/64-8-masc.mp3",
		"response": " ",
		"word": "leve.",
		"trial_type": "audio-keyboard-response",
		"trial_index": 163,
		"time_elapsed": 737282,
		"internal_node_id": "0.0-3.0-1.124"
	},
	{
		"rt": null,
		"stimulus": "<span style= \"font-size:30px; font-family: monospace\">+</span>",
		"response": null,
		"trial_part": "fixation",
		"trial_type": "html-keyboard-response",
		"trial_index": 164,
		"time_elapsed": 738549,
		"internal_node_id": "0.0-3.0-0.125-0.125"
	},
	{
		"rt": 1640,
		"stimulus": "../audio/61-1-fem.mp3",
		"response": " ",
		"word": "Aquele",
		"trial_type": "audio-keyboard-response",
		"trial_index": 165,
		"time_elapsed": 740450,
		"internal_node_id": "0.0-3.0-1.125"
	},
	{
		"rt": 1360,
		"stimulus": "../audio/61-2-fem.mp3",
		"response": " ",
		"word": "senhor",
		"trial_type": "audio-keyboard-response",
		"trial_index": 166,
		"time_elapsed": 742098,
		"internal_node_id": "0.0-3.0-1.126"
	},
	{
		"rt": 1019,
		"stimulus": "../audio/61-3-fem.mp3",
		"response": " ",
		"word": "é",
		"trial_type": "audio-keyboard-response",
		"trial_index": 167,
		"time_elapsed": 743394,
		"internal_node_id": "0.0-3.0-1.127"
	},
	{
		"rt": 2048,
		"stimulus": "../audio/61-4-fem.mp3",
		"response": " ",
		"word": "muito",
		"trial_type": "audio-keyboard-response",
		"trial_index": 168,
		"time_elapsed": 745714,
		"internal_node_id": "0.0-3.0-1.128"
	},
	{
		"rt": 1469,
		"stimulus": "../audio/61-5-fem.mp3",
		"response": " ",
		"word": "sovina",
		"trial_type": "audio-keyboard-response",
		"trial_index": 169,
		"time_elapsed": 747474,
		"internal_node_id": "0.0-3.0-1.129"
	},
	{
		"rt": 960,
		"stimulus": "../audio/61-6-fem.mp3",
		"response": " ",
		"word": "e",
		"trial_type": "audio-keyboard-response",
		"trial_index": 170,
		"time_elapsed": 748706,
		"internal_node_id": "0.0-3.0-1.130"
	},
	{
		"rt": 2109,
		"stimulus": "../audio/61-7-fem.mp3",
		"response": " ",
		"word": "inflexível.",
		"trial_type": "audio-keyboard-response",
		"trial_index": 171,
		"time_elapsed": 751090,
		"internal_node_id": "0.0-3.0-1.131"
	},
	{
		"rt": null,
		"stimulus": "<span style= \"font-size:30px; font-family: monospace\">+</span>",
		"response": null,
		"trial_part": "fixation",
		"trial_type": "html-keyboard-response",
		"trial_index": 172,
		"time_elapsed": 752348,
		"internal_node_id": "0.0-3.0-0.132-0.132"
	},
	{
		"rt": 1859,
		"stimulus": "../audio/62-1-masc.mp3",
		"response": " ",
		"word": "As",
		"trial_type": "audio-keyboard-response",
		"trial_index": 173,
		"time_elapsed": 754482,
		"internal_node_id": "0.0-3.0-1.132"
	},
	{
		"rt": 2021,
		"stimulus": "../audio/62-2-masc.mp3",
		"response": " ",
		"word": "artesãs",
		"trial_type": "audio-keyboard-response",
		"trial_index": 174,
		"time_elapsed": 756786,
		"internal_node_id": "0.0-3.0-1.133"
	},
	{
		"rt": 1539,
		"stimulus": "../audio/62-3-masc.mp3",
		"response": " ",
		"word": "gostam",
		"trial_type": "audio-keyboard-response",
		"trial_index": 175,
		"time_elapsed": 758594,
		"internal_node_id": "0.0-3.0-1.134"
	},
	{
		"rt": 1309,
		"stimulus": "../audio/62-4-masc.mp3",
		"response": " ",
		"word": "de",
		"trial_type": "audio-keyboard-response",
		"trial_index": 176,
		"time_elapsed": 760178,
		"internal_node_id": "0.0-3.0-1.135"
	},
	{
		"rt": 1859,
		"stimulus": "../audio/62-5-masc.mp3",
		"response": " ",
		"word": "maquiagem",
		"trial_type": "audio-keyboard-response",
		"trial_index": 177,
		"time_elapsed": 762322,
		"internal_node_id": "0.0-3.0-1.136"
	},
	{
		"rt": 2501,
		"stimulus": "../audio/62-6-masc.mp3",
		"response": " ",
		"word": "e",
		"trial_type": "audio-keyboard-response",
		"trial_index": 178,
		"time_elapsed": 765106,
		"internal_node_id": "0.0-3.0-1.137"
	},
	{
		"rt": 1360,
		"stimulus": "../audio/62-7-masc.mp3",
		"response": " ",
		"word": "de",
		"trial_type": "audio-keyboard-response",
		"trial_index": 179,
		"time_elapsed": 766738,
		"internal_node_id": "0.0-3.0-1.138"
	},
	{
		"rt": 1640,
		"stimulus": "../audio/62-8-masc.mp3",
		"response": " ",
		"word": "crochê.",
		"trial_type": "audio-keyboard-response",
		"trial_index": 180,
		"time_elapsed": 768658,
		"internal_node_id": "0.0-3.0-1.139"
	},
	{
		"rt": null,
		"stimulus": "<span style= \"font-size:30px; font-family: monospace\">+</span>",
		"response": null,
		"trial_part": "fixation",
		"trial_type": "html-keyboard-response",
		"trial_index": 181,
		"time_elapsed": 769928,
		"internal_node_id": "0.0-3.0-0.140-0.140"
	},
	{
		"rt": 1669,
		"stimulus": "../audio/63-1-masc.mp3",
		"response": " ",
		"word": "A",
		"trial_type": "audio-keyboard-response",
		"trial_index": 182,
		"time_elapsed": 771874,
		"internal_node_id": "0.0-3.0-1.140"
	},
	{
		"rt": 2589,
		"stimulus": "../audio/63-2-masc.mp3",
		"response": " ",
		"word": "chuva",
		"trial_type": "audio-keyboard-response",
		"trial_index": 183,
		"time_elapsed": 774738,
		"internal_node_id": "0.0-3.0-1.141"
	},
	{
		"rt": 1629,
		"stimulus": "../audio/63-3-masc.mp3",
		"response": " ",
		"word": "entrou",
		"trial_type": "audio-keyboard-response",
		"trial_index": 184,
		"time_elapsed": 776658,
		"internal_node_id": "0.0-3.0-1.142"
	},
	{
		"rt": 1240,
		"stimulus": "../audio/63-4-masc.mp3",
		"response": " ",
		"word": "pela",
		"trial_type": "audio-keyboard-response",
		"trial_index": 185,
		"time_elapsed": 778178,
		"internal_node_id": "0.0-3.0-1.143"
	},
	{
		"rt": 2051,
		"stimulus": "../audio/63-5-masc.mp3",
		"response": " ",
		"word": "abertura",
		"trial_type": "audio-keyboard-response",
		"trial_index": 186,
		"time_elapsed": 780498,
		"internal_node_id": "0.0-3.0-1.144"
	},
	{
		"rt": 1280,
		"stimulus": "../audio/63-6-masc.mp3",
		"response": " ",
		"word": "na",
		"trial_type": "audio-keyboard-response",
		"trial_index": 187,
		"time_elapsed": 782050,
		"internal_node_id": "0.0-3.0-1.145"
	},
	{
		"rt": 1619,
		"stimulus": "../audio/63-7-masc.mp3",
		"response": " ",
		"word": "janela.",
		"trial_type": "audio-keyboard-response",
		"trial_index": 188,
		"time_elapsed": 783954,
		"internal_node_id": "0.0-3.0-1.146"
	},
	{
		"rt": null,
		"stimulus": "<span style= \"font-size:30px; font-family: monospace\">+</span>",
		"response": null,
		"trial_part": "fixation",
		"trial_type": "html-keyboard-response",
		"trial_index": 189,
		"time_elapsed": 785238,
		"internal_node_id": "0.0-3.0-0.147-0.147"
	},
	{
		"rt": 1141,
		"stimulus": "../audio/65-1-masc.mp3",
		"response": " ",
		"word": "O",
		"trial_type": "audio-keyboard-response",
		"trial_index": 190,
		"time_elapsed": 786658,
		"internal_node_id": "0.0-3.0-1.147"
	},
	{
		"rt": 1669,
		"stimulus": "../audio/65-2-masc.mp3",
		"response": " ",
		"word": "fantasma",
		"trial_type": "audio-keyboard-response",
		"trial_index": 191,
		"time_elapsed": 788610,
		"internal_node_id": "0.0-3.0-1.148"
	},
	{
		"rt": 1571,
		"stimulus": "../audio/65-3-masc.mp3",
		"response": " ",
		"word": "veio",
		"trial_type": "audio-keyboard-response",
		"trial_index": 192,
		"time_elapsed": 790450,
		"internal_node_id": "0.0-3.0-1.149"
	},
	{
		"rt": 1120,
		"stimulus": "../audio/65-4-masc.mp3",
		"response": " ",
		"word": "da",
		"trial_type": "audio-keyboard-response",
		"trial_index": 193,
		"time_elapsed": 791858,
		"internal_node_id": "0.0-3.0-1.150"
	},
	{
		"rt": 1499,
		"stimulus": "../audio/65-5-masc.mp3",
		"response": " ",
		"word": "escuridão",
		"trial_type": "audio-keyboard-response",
		"trial_index": 194,
		"time_elapsed": 793632,
		"internal_node_id": "0.0-3.0-1.151"
	},
	{
		"rt": 819,
		"stimulus": "../audio/65-6-masc.mp3",
		"response": " ",
		"word": "do",
		"trial_type": "audio-keyboard-response",
		"trial_index": 195,
		"time_elapsed": 794720,
		"internal_node_id": "0.0-3.0-1.152"
	},
	{
		"rt": 1491,
		"stimulus": "../audio/65-7-masc.mp3",
		"response": " ",
		"word": "armário.",
		"trial_type": "audio-keyboard-response",
		"trial_index": 196,
		"time_elapsed": 796480,
		"internal_node_id": "0.0-3.0-1.153"
	},
	{
		"rt": 26566,
		"stimulus": "<span style=\"font-size:25px; font-family: monospace\">O fantasma veio da escuridão do armário?</span>",
		"response": "n",
		"question": "O fantasma veio da escuridão do armário?",
		"answer": "null",
		"trial": "exp-sent",
		"trial_type": "html-keyboard-response",
		"trial_index": 197,
		"time_elapsed": 823312,
		"internal_node_id": "0.0-3.0-2.153-0.153",
		"accuracy": false
	},
	{
		"rt": null,
		"stimulus": "<span style= \"font-size:30px; font-family: monospace\">+</span>",
		"response": null,
		"trial_part": "fixation",
		"trial_type": "html-keyboard-response",
		"trial_index": 198,
		"time_elapsed": 824846,
		"internal_node_id": "0.0-3.0-0.154-0.154"
	},
	{
		"rt": 5811,
		"stimulus": "../audio/43-1-fem.mp3",
		"response": " ",
		"word": "Eu",
		"trial_type": "audio-keyboard-response",
		"trial_index": 199,
		"time_elapsed": 830928,
		"internal_node_id": "0.0-3.0-1.154"
	},
	{
		"rt": 1960,
		"stimulus": "../audio/43-2-fem.mp3",
		"response": " ",
		"word": "achei",
		"trial_type": "audio-keyboard-response",
		"trial_index": 200,
		"time_elapsed": 833168,
		"internal_node_id": "0.0-3.0-1.155"
	},
	{
		"rt": 931,
		"stimulus": "../audio/43-3-fem.mp3",
		"response": " ",
		"word": "um",
		"trial_type": "audio-keyboard-response",
		"trial_index": 201,
		"time_elapsed": 834368,
		"internal_node_id": "0.0-3.0-1.156"
	},
	{
		"rt": 1251,
		"stimulus": "../audio/43-4-fem.mp3",
		"response": " ",
		"word": "colchão",
		"trial_type": "audio-keyboard-response",
		"trial_index": 202,
		"time_elapsed": 835888,
		"internal_node_id": "0.0-3.0-1.157"
	},
	{
		"rt": 1261,
		"stimulus": "../audio/43-5-fem.mp3",
		"response": " ",
		"word": "velho",
		"trial_type": "audio-keyboard-response",
		"trial_index": 203,
		"time_elapsed": 837424,
		"internal_node_id": "0.0-3.0-1.158"
	},
	{
		"rt": 1139,
		"stimulus": "../audio/43-6-fem.mp3",
		"response": " ",
		"word": "e",
		"trial_type": "audio-keyboard-response",
		"trial_index": 204,
		"time_elapsed": 838832,
		"internal_node_id": "0.0-3.0-1.159"
	},
	{
		"rt": 1621,
		"stimulus": "../audio/43-7-fem.mp3",
		"response": " ",
		"word": "imundo",
		"trial_type": "audio-keyboard-response",
		"trial_index": 205,
		"time_elapsed": 840736,
		"internal_node_id": "0.0-3.0-1.160"
	},
	{
		"rt": 1189,
		"stimulus": "../audio/43-8-fem.mp3",
		"response": " ",
		"word": "na",
		"trial_type": "audio-keyboard-response",
		"trial_index": 206,
		"time_elapsed": 842208,
		"internal_node_id": "0.0-3.0-1.161"
	},
	{
		"rt": 1160,
		"stimulus": "../audio/43-9-fem.mp3",
		"response": " ",
		"word": "casa.",
		"trial_type": "audio-keyboard-response",
		"trial_index": 207,
		"time_elapsed": 843648,
		"internal_node_id": "0.0-3.0-1.162"
	},
	{
		"rt": null,
		"stimulus": "<span style= \"font-size:30px; font-family: monospace\">+</span>",
		"response": null,
		"trial_part": "fixation",
		"trial_type": "html-keyboard-response",
		"trial_index": 208,
		"time_elapsed": 844926,
		"internal_node_id": "0.0-3.0-0.163-0.163"
	},
	{
		"rt": 1040,
		"stimulus": "../audio/44-1-masc.mp3",
		"response": " ",
		"word": "Meus",
		"trial_type": "audio-keyboard-response",
		"trial_index": 209,
		"time_elapsed": 846240,
		"internal_node_id": "0.0-3.0-1.163"
	},
	{
		"rt": 5141,
		"stimulus": "../audio/44-2-masc.mp3",
		"response": " ",
		"word": "irmãos",
		"trial_type": "audio-keyboard-response",
		"trial_index": 210,
		"time_elapsed": 851648,
		"internal_node_id": "0.0-3.0-1.164"
	},
	{
		"rt": 1120,
		"stimulus": "../audio/44-3-masc.mp3",
		"response": " ",
		"word": "brigam",
		"trial_type": "audio-keyboard-response",
		"trial_index": 211,
		"time_elapsed": 853056,
		"internal_node_id": "0.0-3.0-1.165"
	},
	{
		"rt": 851,
		"stimulus": "../audio/44-4-masc.mp3",
		"response": " ",
		"word": "por",
		"trial_type": "audio-keyboard-response",
		"trial_index": 212,
		"time_elapsed": 854171,
		"internal_node_id": "0.0-3.0-1.166"
	},
	{
		"rt": 1099,
		"stimulus": "../audio/44-5-masc.mp3",
		"response": " ",
		"word": "bobagem",
		"trial_type": "audio-keyboard-response",
		"trial_index": 213,
		"time_elapsed": 855547,
		"internal_node_id": "0.0-3.0-1.167"
	},
	{
		"rt": 901,
		"stimulus": "../audio/44-6-masc.mp3",
		"response": " ",
		"word": "todos",
		"trial_type": "audio-keyboard-response",
		"trial_index": 214,
		"time_elapsed": 856731,
		"internal_node_id": "0.0-3.0-1.168"
	},
	{
		"rt": 909,
		"stimulus": "../audio/44-7-masc.mp3",
		"response": " ",
		"word": "os",
		"trial_type": "audio-keyboard-response",
		"trial_index": 215,
		"time_elapsed": 857915,
		"internal_node_id": "0.0-3.0-1.169"
	},
	{
		"rt": 1341,
		"stimulus": "../audio/44-8-masc.mp3",
		"response": " ",
		"word": "dias.",
		"trial_type": "audio-keyboard-response",
		"trial_index": 216,
		"time_elapsed": 859531,
		"internal_node_id": "0.0-3.0-1.170"
	},
	{
		"rt": null,
		"stimulus": "<span style= \"font-size:30px; font-family: monospace\">+</span>",
		"response": null,
		"trial_part": "fixation",
		"trial_type": "html-keyboard-response",
		"trial_index": 217,
		"time_elapsed": 860792,
		"internal_node_id": "0.0-3.0-0.171-0.171"
	},
	{
		"rt": 1571,
		"stimulus": "../audio/41-1-fem.mp3",
		"response": " ",
		"word": "A",
		"trial_type": "audio-keyboard-response",
		"trial_index": 218,
		"time_elapsed": 862635,
		"internal_node_id": "0.0-3.0-1.171"
	},
	{
		"rt": 1491,
		"stimulus": "../audio/41-2-fem.mp3",
		"response": " ",
		"word": "novela",
		"trial_type": "audio-keyboard-response",
		"trial_index": 219,
		"time_elapsed": 864395,
		"internal_node_id": "0.0-3.0-1.172"
	},
	{
		"rt": 1200,
		"stimulus": "../audio/41-3-fem.mp3",
		"response": " ",
		"word": "falava",
		"trial_type": "audio-keyboard-response",
		"trial_index": 220,
		"time_elapsed": 865867,
		"internal_node_id": "0.0-3.0-1.173"
	},
	{
		"rt": 1189,
		"stimulus": "../audio/41-4-fem.mp3",
		"response": " ",
		"word": "de",
		"trial_type": "audio-keyboard-response",
		"trial_index": 221,
		"time_elapsed": 867323,
		"internal_node_id": "0.0-3.0-1.174"
	},
	{
		"rt": 1251,
		"stimulus": "../audio/41-5-fem.mp3",
		"response": " ",
		"word": "paixão",
		"trial_type": "audio-keyboard-response",
		"trial_index": 222,
		"time_elapsed": 868843,
		"internal_node_id": "0.0-3.0-1.175"
	},
	{
		"rt": 720,
		"stimulus": "../audio/41-6-fem.mp3",
		"response": " ",
		"word": "e",
		"trial_type": "audio-keyboard-response",
		"trial_index": 223,
		"time_elapsed": 869835,
		"internal_node_id": "0.0-3.0-1.176"
	},
	{
		"rt": 1251,
		"stimulus": "../audio/41-7-fem.mp3",
		"response": " ",
		"word": "comédia.",
		"trial_type": "audio-keyboard-response",
		"trial_index": 224,
		"time_elapsed": 871371,
		"internal_node_id": "0.0-3.0-1.177"
	},
	{
		"rt": null,
		"stimulus": "<span style= \"font-size:30px; font-family: monospace\">+</span>",
		"response": null,
		"trial_part": "fixation",
		"trial_type": "html-keyboard-response",
		"trial_index": 225,
		"time_elapsed": 872642,
		"internal_node_id": "0.0-3.0-0.178-0.178"
	},
	{
		"rt": 909,
		"stimulus": "../audio/42-1-masc.mp3",
		"response": " ",
		"word": "Eu",
		"trial_type": "audio-keyboard-response",
		"trial_index": 226,
		"time_elapsed": 873835,
		"internal_node_id": "0.0-3.0-1.178"
	},
	{
		"rt": 709,
		"stimulus": "../audio/42-2-masc.mp3",
		"response": " ",
		"word": "fui",
		"trial_type": "audio-keyboard-response",
		"trial_index": 227,
		"time_elapsed": 874811,
		"internal_node_id": "0.0-3.0-1.179"
	},
	{
		"rt": 779,
		"stimulus": "../audio/42-3-masc.mp3",
		"response": " ",
		"word": "a",
		"trial_type": "audio-keyboard-response",
		"trial_index": 228,
		"time_elapsed": 875867,
		"internal_node_id": "0.0-3.0-1.180"
	},
	{
		"rt": 861,
		"stimulus": "../audio/42-4-masc.mp3",
		"response": " ",
		"word": "uma",
		"trial_type": "audio-keyboard-response",
		"trial_index": 229,
		"time_elapsed": 877003,
		"internal_node_id": "0.0-3.0-1.181"
	},
	{
		"rt": 1069,
		"stimulus": "../audio/42-5-masc.mp3",
		"response": " ",
		"word": "loja",
		"trial_type": "audio-keyboard-response",
		"trial_index": 230,
		"time_elapsed": 878347,
		"internal_node_id": "0.0-3.0-1.182"
	},
	{
		"rt": 928,
		"stimulus": "../audio/42-6-masc.mp3",
		"response": " ",
		"word": "de",
		"trial_type": "audio-keyboard-response",
		"trial_index": 231,
		"time_elapsed": 879547,
		"internal_node_id": "0.0-3.0-1.183"
	},
	{
		"rt": 1069,
		"stimulus": "../audio/42-7-masc.mp3",
		"response": " ",
		"word": "móveis",
		"trial_type": "audio-keyboard-response",
		"trial_index": 232,
		"time_elapsed": 880891,
		"internal_node_id": "0.0-3.0-1.184"
	},
	{
		"rt": 909,
		"stimulus": "../audio/42-8-masc.mp3",
		"response": " ",
		"word": "no",
		"trial_type": "audio-keyboard-response",
		"trial_index": 233,
		"time_elapsed": 882075,
		"internal_node_id": "0.0-3.0-1.185"
	},
	{
		"rt": 709,
		"stimulus": "../audio/42-9-masc.mp3",
		"response": " ",
		"word": "bairro.",
		"trial_type": "audio-keyboard-response",
		"trial_index": 234,
		"time_elapsed": 883067,
		"internal_node_id": "0.0-3.0-1.186"
	},
	{
		"rt": null,
		"stimulus": "<span style= \"font-size:30px; font-family: monospace\">+</span>",
		"response": null,
		"trial_part": "fixation",
		"trial_type": "html-keyboard-response",
		"trial_index": 235,
		"time_elapsed": 884331,
		"internal_node_id": "0.0-3.0-0.187-0.187"
	},
	{
		"rt": 160,
		"stimulus": "../audio/45-1-masc.mp3",
		"response": " ",
		"word": "O",
		"trial_type": "audio-keyboard-response",
		"trial_index": 236,
		"time_elapsed": 884763,
		"internal_node_id": "0.0-3.0-1.187"
	},
	{
		"rt": 1080,
		"stimulus": "../audio/45-2-masc.mp3",
		"response": " ",
		"word": "homem",
		"trial_type": "audio-keyboard-response",
		"trial_index": 237,
		"time_elapsed": 886123,
		"internal_node_id": "0.0-3.0-1.188"
	},
	{
		"rt": 1011,
		"stimulus": "../audio/45-3-masc.mp3",
		"response": " ",
		"word": "pagou",
		"trial_type": "audio-keyboard-response",
		"trial_index": 238,
		"time_elapsed": 887419,
		"internal_node_id": "0.0-3.0-1.189"
	},
	{
		"rt": 760,
		"stimulus": "../audio/45-4-masc.mp3",
		"response": " ",
		"word": "o",
		"trial_type": "audio-keyboard-response",
		"trial_index": 239,
		"time_elapsed": 888459,
		"internal_node_id": "0.0-3.0-1.190"
	},
	{
		"rt": 1109,
		"stimulus": "../audio/45-5-masc.mp3",
		"response": " ",
		"word": "aluguel",
		"trial_type": "audio-keyboard-response",
		"trial_index": 240,
		"time_elapsed": 889851,
		"internal_node_id": "0.0-3.0-1.191"
	},
	{
		"rt": 989,
		"stimulus": "../audio/45-6-masc.mp3",
		"response": " ",
		"word": "com",
		"trial_type": "audio-keyboard-response",
		"trial_index": 241,
		"time_elapsed": 891131,
		"internal_node_id": "0.0-3.0-1.192"
	},
	{
		"rt": 1440,
		"stimulus": "../audio/45-7-masc.mp3",
		"response": " ",
		"word": "atraso.",
		"trial_type": "audio-keyboard-response",
		"trial_index": 242,
		"time_elapsed": 892859,
		"internal_node_id": "0.0-3.0-1.193"
	},
	{
		"rt": 17108,
		"stimulus": "<span style=\"font-size:25px; font-family: monospace\">O homem pagou o aluguel em dia?</span>",
		"response": "n",
		"question": "O homem pagou o aluguel em dia?",
		"answer": "null",
		"trial": "exp-sent",
		"trial_type": "html-keyboard-response",
		"trial_index": 243,
		"time_elapsed": 910219,
		"internal_node_id": "0.0-3.0-2.193-0.193",
		"accuracy": false
	},
	{
		"rt": null,
		"stimulus": "<span style= \"font-size:30px; font-family: monospace\">+</span>",
		"response": null,
		"trial_part": "fixation",
		"trial_type": "html-keyboard-response",
		"trial_index": 244,
		"time_elapsed": 911735,
		"internal_node_id": "0.0-3.0-0.194-0.194"
	},
	{
		"rt": 899,
		"stimulus": "../audio/56-1-masc.mp3",
		"response": " ",
		"word": "A",
		"trial_type": "audio-keyboard-response",
		"trial_index": 245,
		"time_elapsed": 912907,
		"internal_node_id": "0.0-3.0-1.194"
	},
	{
		"rt": 1112,
		"stimulus": "../audio/56-2-masc.mp3",
		"response": " ",
		"word": "moça",
		"trial_type": "audio-keyboard-response",
		"trial_index": 246,
		"time_elapsed": 914301,
		"internal_node_id": "0.0-3.0-1.195"
	},
	{
		"rt": 819,
		"stimulus": "../audio/56-3-masc.mp3",
		"response": " ",
		"word": "foi",
		"trial_type": "audio-keyboard-response",
		"trial_index": 247,
		"time_elapsed": 915389,
		"internal_node_id": "0.0-3.0-1.196"
	},
	{
		"rt": 861,
		"stimulus": "../audio/56-4-masc.mp3",
		"response": " ",
		"word": "à",
		"trial_type": "audio-keyboard-response",
		"trial_index": 248,
		"time_elapsed": 916525,
		"internal_node_id": "0.0-3.0-1.197"
	},
	{
		"rt": 1051,
		"stimulus": "../audio/56-5-masc.mp3",
		"response": " ",
		"word": "agência",
		"trial_type": "audio-keyboard-response",
		"trial_index": 249,
		"time_elapsed": 917853,
		"internal_node_id": "0.0-3.0-1.198"
	},
	{
		"rt": 1429,
		"stimulus": "../audio/56-6-masc.mp3",
		"response": " ",
		"word": "bancária",
		"trial_type": "audio-keyboard-response",
		"trial_index": 250,
		"time_elapsed": 919565,
		"internal_node_id": "0.0-3.0-1.199"
	},
	{
		"rt": 1051,
		"stimulus": "../audio/56-7-masc.mp3",
		"response": " ",
		"word": "ontem",
		"trial_type": "audio-keyboard-response",
		"trial_index": 251,
		"time_elapsed": 920877,
		"internal_node_id": "0.0-3.0-1.200"
	},
	{
		"rt": 691,
		"stimulus": "../audio/56-8-masc.mp3",
		"response": " ",
		"word": "de",
		"trial_type": "audio-keyboard-response",
		"trial_index": 252,
		"time_elapsed": 921853,
		"internal_node_id": "0.0-3.0-1.201"
	},
	{
		"rt": 981,
		"stimulus": "../audio/56-9-masc.mp3",
		"response": " ",
		"word": "tarde.",
		"trial_type": "audio-keyboard-response",
		"trial_index": 253,
		"time_elapsed": 923101,
		"internal_node_id": "0.0-3.0-1.202"
	},
	{
		"rt": null,
		"stimulus": "<span style= \"font-size:30px; font-family: monospace\">+</span>",
		"response": null,
		"trial_part": "fixation",
		"trial_type": "html-keyboard-response",
		"trial_index": 254,
		"time_elapsed": 924384,
		"internal_node_id": "0.0-3.0-0.203-0.203"
	},
	{
		"rt": 1141,
		"stimulus": "../audio/58-1-fem.mp3",
		"response": " ",
		"word": "Havia",
		"trial_type": "audio-keyboard-response",
		"trial_index": 255,
		"time_elapsed": 925805,
		"internal_node_id": "0.0-3.0-1.203"
	},
	{
		"rt": 1320,
		"stimulus": "../audio/58-2-fem.mp3",
		"response": " ",
		"word": "apenas",
		"trial_type": "audio-keyboard-response",
		"trial_index": 256,
		"time_elapsed": 927405,
		"internal_node_id": "0.0-3.0-1.204"
	},
	{
		"rt": 739,
		"stimulus": "../audio/58-3-fem.mp3",
		"response": " ",
		"word": "um",
		"trial_type": "audio-keyboard-response",
		"trial_index": 257,
		"time_elapsed": 928429,
		"internal_node_id": "0.0-3.0-1.205"
	},
	{
		"rt": 1240,
		"stimulus": "../audio/58-4-fem.mp3",
		"response": " ",
		"word": "último",
		"trial_type": "audio-keyboard-response",
		"trial_index": 258,
		"time_elapsed": 929949,
		"internal_node_id": "0.0-3.0-1.206"
	},
	{
		"rt": 1088,
		"stimulus": "../audio/58-5-fem.mp3",
		"response": " ",
		"word": "herdeiro",
		"trial_type": "audio-keyboard-response",
		"trial_index": 259,
		"time_elapsed": 931309,
		"internal_node_id": "0.0-3.0-1.207"
	},
	{
		"rt": 739,
		"stimulus": "../audio/58-6-fem.mp3",
		"response": " ",
		"word": "do",
		"trial_type": "audio-keyboard-response",
		"trial_index": 260,
		"time_elapsed": 932317,
		"internal_node_id": "0.0-3.0-1.208"
	},
	{
		"rt": 1211,
		"stimulus": "../audio/58-7-fem.mp3",
		"response": " ",
		"word": "dinheiro.",
		"trial_type": "audio-keyboard-response",
		"trial_index": 261,
		"time_elapsed": 933821,
		"internal_node_id": "0.0-3.0-1.209"
	},
	{
		"rt": null,
		"stimulus": "<span style= \"font-size:30px; font-family: monospace\">+</span>",
		"response": null,
		"trial_part": "fixation",
		"trial_type": "html-keyboard-response",
		"trial_index": 262,
		"time_elapsed": 935093,
		"internal_node_id": "0.0-3.0-0.210-0.210"
	},
	{
		"rt": 149,
		"stimulus": "../audio/59-1-masc.mp3",
		"response": " ",
		"word": "O",
		"trial_type": "audio-keyboard-response",
		"trial_index": 263,
		"time_elapsed": 935517,
		"internal_node_id": "0.0-3.0-1.210"
	},
	{
		"rt": 1211,
		"stimulus": "../audio/59-2-masc.mp3",
		"response": " ",
		"word": "carteiro",
		"trial_type": "audio-keyboard-response",
		"trial_index": 264,
		"time_elapsed": 937005,
		"internal_node_id": "0.0-3.0-1.211"
	},
	{
		"rt": 941,
		"stimulus": "../audio/59-3-masc.mp3",
		"response": " ",
		"word": "fez",
		"trial_type": "audio-keyboard-response",
		"trial_index": 265,
		"time_elapsed": 938221,
		"internal_node_id": "0.0-3.0-1.212"
	},
	{
		"rt": 899,
		"stimulus": "../audio/59-4-masc.mp3",
		"response": " ",
		"word": "uma",
		"trial_type": "audio-keyboard-response",
		"trial_index": 266,
		"time_elapsed": 939389,
		"internal_node_id": "0.0-3.0-1.213"
	},
	{
		"rt": 1088,
		"stimulus": "../audio/59-5-masc.mp3",
		"response": " ",
		"word": "tentativa",
		"trial_type": "audio-keyboard-response",
		"trial_index": 267,
		"time_elapsed": 940749,
		"internal_node_id": "0.0-3.0-1.214"
	},
	{
		"rt": 749,
		"stimulus": "../audio/59-6-masc.mp3",
		"response": " ",
		"word": "de",
		"trial_type": "audio-keyboard-response",
		"trial_index": 268,
		"time_elapsed": 941773,
		"internal_node_id": "0.0-3.0-1.215"
	},
	{
		"rt": 1080,
		"stimulus": "../audio/59-7-masc.mp3",
		"response": " ",
		"word": "entrega.",
		"trial_type": "audio-keyboard-response",
		"trial_index": 269,
		"time_elapsed": 943117,
		"internal_node_id": "0.0-3.0-1.216"
	},
	{
		"rt": null,
		"stimulus": "<span style= \"font-size:30px; font-family: monospace\">+</span>",
		"response": null,
		"trial_part": "fixation",
		"trial_type": "html-keyboard-response",
		"trial_index": 270,
		"time_elapsed": 944394,
		"internal_node_id": "0.0-3.0-0.217-0.217"
	},
	{
		"rt": 672,
		"stimulus": "../audio/57-1-masc.mp3",
		"response": " ",
		"word": "O",
		"trial_type": "audio-keyboard-response",
		"trial_index": 271,
		"time_elapsed": 945341,
		"internal_node_id": "0.0-3.0-1.217"
	},
	{
		"rt": 1280,
		"stimulus": "../audio/57-2-masc.mp3",
		"response": " ",
		"word": "capitão",
		"trial_type": "audio-keyboard-response",
		"trial_index": 272,
		"time_elapsed": 946893,
		"internal_node_id": "0.0-3.0-1.218"
	},
	{
		"rt": 840,
		"stimulus": "../audio/57-3-masc.mp3",
		"response": " ",
		"word": "deu",
		"trial_type": "audio-keyboard-response",
		"trial_index": 273,
		"time_elapsed": 947997,
		"internal_node_id": "0.0-3.0-1.219"
	},
	{
		"rt": 811,
		"stimulus": "../audio/57-4-masc.mp3",
		"response": " ",
		"word": "uma",
		"trial_type": "audio-keyboard-response",
		"trial_index": 274,
		"time_elapsed": 949085,
		"internal_node_id": "0.0-3.0-1.220"
	},
	{
		"rt": 1469,
		"stimulus": "../audio/57-5-masc.mp3",
		"response": " ",
		"word": "instrução",
		"trial_type": "audio-keyboard-response",
		"trial_index": 275,
		"time_elapsed": 950829,
		"internal_node_id": "0.0-3.0-1.221"
	},
	{
		"rt": 712,
		"stimulus": "../audio/57-6-masc.mp3",
		"response": " ",
		"word": "para",
		"trial_type": "audio-keyboard-response",
		"trial_index": 276,
		"time_elapsed": 951821,
		"internal_node_id": "0.0-3.0-1.222"
	},
	{
		"rt": 808,
		"stimulus": "../audio/57-7-masc.mp3",
		"response": " ",
		"word": "as",
		"trial_type": "audio-keyboard-response",
		"trial_index": 277,
		"time_elapsed": 952909,
		"internal_node_id": "0.0-3.0-1.223"
	},
	{
		"rt": 1261,
		"stimulus": "../audio/57-8-masc.mp3",
		"response": " ",
		"word": "pessoas.",
		"trial_type": "audio-keyboard-response",
		"trial_index": 278,
		"time_elapsed": 954445,
		"internal_node_id": "0.0-3.0-1.224"
	},
	{
		"rt": null,
		"stimulus": "<span style= \"font-size:30px; font-family: monospace\">+</span>",
		"response": null,
		"trial_part": "fixation",
		"trial_type": "html-keyboard-response",
		"trial_index": 279,
		"time_elapsed": 955714,
		"internal_node_id": "0.0-3.0-0.225-0.225"
	},
	{
		"rt": 261,
		"stimulus": "../audio/60-1-fem.mp3",
		"response": " ",
		"word": "Ondas",
		"trial_type": "audio-keyboard-response",
		"trial_index": 280,
		"time_elapsed": 956253,
		"internal_node_id": "0.0-3.0-1.225"
	},
	{
		"rt": 1040,
		"stimulus": "../audio/60-2-fem.mp3",
		"response": " ",
		"word": "têm",
		"trial_type": "audio-keyboard-response",
		"trial_index": 281,
		"time_elapsed": 957565,
		"internal_node_id": "0.0-3.0-1.226"
	},
	{
		"rt": 1200,
		"stimulus": "../audio/60-3-fem.mp3",
		"response": " ",
		"word": "um",
		"trial_type": "audio-keyboard-response",
		"trial_index": 282,
		"time_elapsed": 959053,
		"internal_node_id": "0.0-3.0-1.227"
	},
	{
		"rt": 1040,
		"stimulus": "../audio/60-4-fem.mp3",
		"response": " ",
		"word": "impacto",
		"trial_type": "audio-keyboard-response",
		"trial_index": 283,
		"time_elapsed": 960365,
		"internal_node_id": "0.0-3.0-1.228"
	},
	{
		"rt": 1051,
		"stimulus": "../audio/60-5-fem.mp3",
		"response": " ",
		"word": "destrutivo",
		"trial_type": "audio-keyboard-response",
		"trial_index": 284,
		"time_elapsed": 961693,
		"internal_node_id": "0.0-3.0-1.229"
	},
	{
		"rt": 1131,
		"stimulus": "../audio/60-6-fem.mp3",
		"response": " ",
		"word": "no",
		"trial_type": "audio-keyboard-response",
		"trial_index": 285,
		"time_elapsed": 963101,
		"internal_node_id": "0.0-3.0-1.230"
	},
	{
		"rt": 1389,
		"stimulus": "../audio/60-7-fem.mp3",
		"response": " ",
		"word": "litoral.",
		"trial_type": "audio-keyboard-response",
		"trial_index": 286,
		"time_elapsed": 964765,
		"internal_node_id": "0.0-3.0-1.231"
	},
	{
		"rt": 9376,
		"stimulus": "<span style=\"font-size:25px; font-family: monospace\">Ondas têm um impacto destrutivo?</span>",
		"response": "s",
		"question": "Ondas têm um impacto destrutivo?",
		"answer": "null",
		"trial": "exp-sent",
		"trial_type": "html-keyboard-response",
		"trial_index": 287,
		"time_elapsed": 974401,
		"internal_node_id": "0.0-3.0-2.231-0.231",
		"accuracy": false
	},
	{
		"rt": null,
		"stimulus": "<span style= \"font-size:30px; font-family: monospace\">+</span>",
		"response": null,
		"trial_part": "fixation",
		"trial_type": "html-keyboard-response",
		"trial_index": 288,
		"time_elapsed": 975927,
		"internal_node_id": "0.0-3.0-0.232-0.232"
	},
	{
		"rt": 1309,
		"stimulus": "../audio/53-1-masc.mp3",
		"response": " ",
		"word": "O",
		"trial_type": "audio-keyboard-response",
		"trial_index": 289,
		"time_elapsed": 977521,
		"internal_node_id": "0.0-3.0-1.232"
	},
	{
		"rt": 1072,
		"stimulus": "../audio/53-2-masc.mp3",
		"response": " ",
		"word": "médico",
		"trial_type": "audio-keyboard-response",
		"trial_index": 290,
		"time_elapsed": 978865,
		"internal_node_id": "0.0-3.0-1.233"
	},
	{
		"rt": 920,
		"stimulus": "../audio/53-3-masc.mp3",
		"response": " ",
		"word": "foi",
		"trial_type": "audio-keyboard-response",
		"trial_index": 291,
		"time_elapsed": 980049,
		"internal_node_id": "0.0-3.0-1.234"
	},
	{
		"rt": 1269,
		"stimulus": "../audio/53-4-masc.mp3",
		"response": " ",
		"word": "bastante",
		"trial_type": "audio-keyboard-response",
		"trial_index": 292,
		"time_elapsed": 981601,
		"internal_node_id": "0.0-3.0-1.235"
	},
	{
		"rt": 1101,
		"stimulus": "../audio/53-5-masc.mp3",
		"response": " ",
		"word": "preciso",
		"trial_type": "audio-keyboard-response",
		"trial_index": 293,
		"time_elapsed": 982977,
		"internal_node_id": "0.0-3.0-1.236"
	},
	{
		"rt": 1120,
		"stimulus": "../audio/53-6-masc.mp3",
		"response": " ",
		"word": "durante",
		"trial_type": "audio-keyboard-response",
		"trial_index": 294,
		"time_elapsed": 984369,
		"internal_node_id": "0.0-3.0-1.237"
	},
	{
		"rt": 811,
		"stimulus": "../audio/53-7-masc.mp3",
		"response": " ",
		"word": "a",
		"trial_type": "audio-keyboard-response",
		"trial_index": 295,
		"time_elapsed": 985457,
		"internal_node_id": "0.0-3.0-1.238"
	},
	{
		"rt": 1371,
		"stimulus": "../audio/53-8-masc.mp3",
		"response": " ",
		"word": "cirurgia.",
		"trial_type": "audio-keyboard-response",
		"trial_index": 296,
		"time_elapsed": 987105,
		"internal_node_id": "0.0-3.0-1.239"
	},
	{
		"rt": null,
		"stimulus": "<span style= \"font-size:30px; font-family: monospace\">+</span>",
		"response": null,
		"trial_part": "fixation",
		"trial_type": "html-keyboard-response",
		"trial_index": 297,
		"time_elapsed": 988367,
		"internal_node_id": "0.0-3.0-0.240-0.240"
	},
	{
		"rt": 781,
		"stimulus": "../audio/52-1-masc.mp3",
		"response": " ",
		"word": "Às",
		"trial_type": "audio-keyboard-response",
		"trial_index": 298,
		"time_elapsed": 989425,
		"internal_node_id": "0.0-3.0-1.240"
	},
	{
		"rt": 1019,
		"stimulus": "../audio/52-2-masc.mp3",
		"response": " ",
		"word": "vezes",
		"trial_type": "audio-keyboard-response",
		"trial_index": 299,
		"time_elapsed": 990721,
		"internal_node_id": "0.0-3.0-1.241"
	},
	{
		"rt": 1101,
		"stimulus": "../audio/52-3-masc.mp3",
		"response": " ",
		"word": "eu",
		"trial_type": "audio-keyboard-response",
		"trial_index": 300,
		"time_elapsed": 992097,
		"internal_node_id": "0.0-3.0-1.242"
	},
	{
		"rt": 1019,
		"stimulus": "../audio/52-4-masc.mp3",
		"response": " ",
		"word": "tenho",
		"trial_type": "audio-keyboard-response",
		"trial_index": 301,
		"time_elapsed": 993393,
		"internal_node_id": "0.0-3.0-1.243"
	},
	{
		"rt": 1240,
		"stimulus": "../audio/52-5-masc.mp3",
		"response": " ",
		"word": "azia",
		"trial_type": "audio-keyboard-response",
		"trial_index": 302,
		"time_elapsed": 994913,
		"internal_node_id": "0.0-3.0-1.244"
	},
	{
		"rt": 1379,
		"stimulus": "../audio/52-6-masc.mp3",
		"response": " ",
		"word": "depois",
		"trial_type": "audio-keyboard-response",
		"trial_index": 303,
		"time_elapsed": 996561,
		"internal_node_id": "0.0-3.0-1.245"
	},
	{
		"rt": 840,
		"stimulus": "../audio/52-7-masc.mp3",
		"response": " ",
		"word": "da",
		"trial_type": "audio-keyboard-response",
		"trial_index": 304,
		"time_elapsed": 997681,
		"internal_node_id": "0.0-3.0-1.246"
	},
	{
		"rt": 1181,
		"stimulus": "../audio/52-8-masc.mp3",
		"response": " ",
		"word": "janta.",
		"trial_type": "audio-keyboard-response",
		"trial_index": 305,
		"time_elapsed": 999137,
		"internal_node_id": "0.0-3.0-1.247"
	},
	{
		"rt": null,
		"stimulus": "<span style= \"font-size:30px; font-family: monospace\">+</span>",
		"response": null,
		"trial_part": "fixation",
		"trial_type": "html-keyboard-response",
		"trial_index": 306,
		"time_elapsed": 1000417,
		"internal_node_id": "0.0-3.0-0.248-0.248"
	},
	{
		"rt": 1709,
		"stimulus": "../audio/54-1-masc.mp3",
		"response": " ",
		"word": "Estou",
		"trial_type": "audio-keyboard-response",
		"trial_index": 307,
		"time_elapsed": 1002417,
		"internal_node_id": "0.0-3.0-1.248"
	},
	{
		"rt": 1899,
		"stimulus": "../audio/54-2-masc.mp3",
		"response": " ",
		"word": "com",
		"trial_type": "audio-keyboard-response",
		"trial_index": 308,
		"time_elapsed": 1004593,
		"internal_node_id": "0.0-3.0-1.249"
	},
	{
		"rt": 1229,
		"stimulus": "../audio/54-3-masc.mp3",
		"response": " ",
		"word": "medo",
		"trial_type": "audio-keyboard-response",
		"trial_index": 309,
		"time_elapsed": 1006097,
		"internal_node_id": "0.0-3.0-1.250"
	},
	{
		"rt": 829,
		"stimulus": "../audio/54-4-masc.mp3",
		"response": " ",
		"word": "da",
		"trial_type": "audio-keyboard-response",
		"trial_index": 310,
		"time_elapsed": 1007201,
		"internal_node_id": "0.0-3.0-1.251"
	},
	{
		"rt": 1141,
		"stimulus": "../audio/54-5-masc.mp3",
		"response": " ",
		"word": "atual",
		"trial_type": "audio-keyboard-response",
		"trial_index": 311,
		"time_elapsed": 1008625,
		"internal_node_id": "0.0-3.0-1.252"
	},
	{
		"rt": 1840,
		"stimulus": "../audio/54-6-masc.mp3",
		"response": " ",
		"word": "organização",
		"trial_type": "audio-keyboard-response",
		"trial_index": 312,
		"time_elapsed": 1010753,
		"internal_node_id": "0.0-3.0-1.253"
	},
	{
		"rt": 979,
		"stimulus": "../audio/54-7-masc.mp3",
		"response": " ",
		"word": "do",
		"trial_type": "audio-keyboard-response",
		"trial_index": 313,
		"time_elapsed": 1012001,
		"internal_node_id": "0.0-3.0-1.254"
	},
	{
		"rt": 1720,
		"stimulus": "../audio/54-8-masc.mp3",
		"response": " ",
		"word": "país.",
		"trial_type": "audio-keyboard-response",
		"trial_index": 314,
		"time_elapsed": 1014001,
		"internal_node_id": "0.0-3.0-1.255"
	},
	{
		"rt": null,
		"stimulus": "<span style= \"font-size:30px; font-family: monospace\">+</span>",
		"response": null,
		"trial_part": "fixation",
		"trial_type": "html-keyboard-response",
		"trial_index": 315,
		"time_elapsed": 1015267,
		"internal_node_id": "0.0-3.0-0.256-0.256"
	},
	{
		"rt": 1448,
		"stimulus": "../audio/51-1-fem.mp3",
		"response": " ",
		"word": "Suco",
		"trial_type": "audio-keyboard-response",
		"trial_index": 316,
		"time_elapsed": 1016993,
		"internal_node_id": "0.0-3.0-1.256"
	},
	{
		"rt": 979,
		"stimulus": "../audio/51-2-fem.mp3",
		"response": " ",
		"word": "de",
		"trial_type": "audio-keyboard-response",
		"trial_index": 317,
		"time_elapsed": 1018241,
		"internal_node_id": "0.0-3.0-1.257"
	},
	{
		"rt": 1491,
		"stimulus": "../audio/51-3-fem.mp3",
		"response": " ",
		"word": "acerola",
		"trial_type": "audio-keyboard-response",
		"trial_index": 318,
		"time_elapsed": 1020001,
		"internal_node_id": "0.0-3.0-1.258"
	},
	{
		"rt": 691,
		"stimulus": "../audio/51-4-fem.mp3",
		"response": " ",
		"word": "é",
		"trial_type": "audio-keyboard-response",
		"trial_index": 319,
		"time_elapsed": 1020961,
		"internal_node_id": "0.0-3.0-1.259"
	},
	{
		"rt": 992,
		"stimulus": "../audio/51-5-fem.mp3",
		"response": " ",
		"word": "azedo",
		"trial_type": "audio-keyboard-response",
		"trial_index": 320,
		"time_elapsed": 1022225,
		"internal_node_id": "0.0-3.0-1.260"
	},
	{
		"rt": 691,
		"stimulus": "../audio/51-6-fem.mp3",
		"response": " ",
		"word": "e",
		"trial_type": "audio-keyboard-response",
		"trial_index": 321,
		"time_elapsed": 1023185,
		"internal_node_id": "0.0-3.0-1.261"
	},
	{
		"rt": 960,
		"stimulus": "../audio/51-7-fem.mp3",
		"response": " ",
		"word": "até",
		"trial_type": "audio-keyboard-response",
		"trial_index": 322,
		"time_elapsed": 1024417,
		"internal_node_id": "0.0-3.0-1.262"
	},
	{
		"rt": 1131,
		"stimulus": "../audio/51-8-fem.mp3",
		"response": " ",
		"word": "barato.",
		"trial_type": "audio-keyboard-response",
		"trial_index": 323,
		"time_elapsed": 1025825,
		"internal_node_id": "0.0-3.0-1.263"
	},
	{
		"rt": null,
		"stimulus": "<span style= \"font-size:30px; font-family: monospace\">+</span>",
		"response": null,
		"trial_part": "fixation",
		"trial_type": "html-keyboard-response",
		"trial_index": 324,
		"time_elapsed": 1027107,
		"internal_node_id": "0.0-3.0-0.264-0.264"
	},
	{
		"rt": 141,
		"stimulus": "../audio/55-1-masc.mp3",
		"response": " ",
		"word": "O",
		"trial_type": "audio-keyboard-response",
		"trial_index": 325,
		"time_elapsed": 1027537,
		"internal_node_id": "0.0-3.0-1.264"
	},
	{
		"rt": 1251,
		"stimulus": "../audio/55-2-masc.mp3",
		"response": " ",
		"word": "insulto",
		"trial_type": "audio-keyboard-response",
		"trial_index": 326,
		"time_elapsed": 1029057,
		"internal_node_id": "0.0-3.0-1.265"
	},
	{
		"rt": 1160,
		"stimulus": "../audio/55-3-masc.mp3",
		"response": " ",
		"word": "recente",
		"trial_type": "audio-keyboard-response",
		"trial_index": 327,
		"time_elapsed": 1030481,
		"internal_node_id": "0.0-3.0-1.266"
	},
	{
		"rt": 891,
		"stimulus": "../audio/55-4-masc.mp3",
		"response": " ",
		"word": "causou",
		"trial_type": "audio-keyboard-response",
		"trial_index": 328,
		"time_elapsed": 1031649,
		"internal_node_id": "0.0-3.0-1.267"
	},
	{
		"rt": 1400,
		"stimulus": "../audio/55-5-masc.mp3",
		"response": " ",
		"word": "indignação",
		"trial_type": "audio-keyboard-response",
		"trial_index": 329,
		"time_elapsed": 1033329,
		"internal_node_id": "0.0-3.0-1.268"
	},
	{
		"rt": 840,
		"stimulus": "../audio/55-6-masc.mp3",
		"response": " ",
		"word": "em",
		"trial_type": "audio-keyboard-response",
		"trial_index": 330,
		"time_elapsed": 1034450,
		"internal_node_id": "0.0-3.0-1.269"
	},
	{
		"rt": 1000,
		"stimulus": "../audio/55-7-masc.mp3",
		"response": " ",
		"word": "todos.",
		"trial_type": "audio-keyboard-response",
		"trial_index": 331,
		"time_elapsed": 1035730,
		"internal_node_id": "0.0-3.0-1.270"
	},
	{
		"rt": 7534,
		"stimulus": "<span style=\"font-size:25px; font-family: monospace\">O insulto causou calmaria?</span>",
		"response": "n",
		"question": "O insulto causou calmaria?",
		"answer": "null",
		"trial": "exp-sent",
		"trial_type": "html-keyboard-response",
		"trial_index": 332,
		"time_elapsed": 1043523,
		"internal_node_id": "0.0-3.0-2.270-0.270",
		"accuracy": false
	},
	{
		"rt": null,
		"stimulus": "<span style= \"font-size:30px; font-family: monospace\">+</span>",
		"response": null,
		"trial_part": "fixation",
		"trial_type": "html-keyboard-response",
		"trial_index": 333,
		"time_elapsed": 1045059,
		"internal_node_id": "0.0-3.0-0.271-0.271"
	},
	{
		"rt": 1451,
		"stimulus": "../audio/67-1-fem.mp3",
		"response": " ",
		"word": "Minha",
		"trial_type": "audio-keyboard-response",
		"trial_index": 334,
		"time_elapsed": 1046786,
		"internal_node_id": "0.0-3.0-1.271"
	},
	{
		"rt": 1149,
		"stimulus": "../audio/67-2-fem.mp3",
		"response": " ",
		"word": "tia",
		"trial_type": "audio-keyboard-response",
		"trial_index": 335,
		"time_elapsed": 1048210,
		"internal_node_id": "0.0-3.0-1.272"
	},
	{
		"rt": 1291,
		"stimulus": "../audio/67-3-fem.mp3",
		"response": " ",
		"word": "comprou",
		"trial_type": "audio-keyboard-response",
		"trial_index": 336,
		"time_elapsed": 1049778,
		"internal_node_id": "0.0-3.0-1.273"
	},
	{
		"rt": 851,
		"stimulus": "../audio/67-4-fem.mp3",
		"response": " ",
		"word": "um",
		"trial_type": "audio-keyboard-response",
		"trial_index": 337,
		"time_elapsed": 1050899,
		"internal_node_id": "0.0-3.0-1.274"
	},
	{
		"rt": 1179,
		"stimulus": "../audio/67-5-fem.mp3",
		"response": " ",
		"word": "cordão",
		"trial_type": "audio-keyboard-response",
		"trial_index": 338,
		"time_elapsed": 1052354,
		"internal_node_id": "0.0-3.0-1.275"
	},
	{
		"rt": 891,
		"stimulus": "../audio/67-6-fem.mp3",
		"response": " ",
		"word": "para",
		"trial_type": "audio-keyboard-response",
		"trial_index": 339,
		"time_elapsed": 1053522,
		"internal_node_id": "0.0-3.0-1.276"
	},
	{
		"rt": 720,
		"stimulus": "../audio/67-7-fem.mp3",
		"response": " ",
		"word": "o",
		"trial_type": "audio-keyboard-response",
		"trial_index": 340,
		"time_elapsed": 1054514,
		"internal_node_id": "0.0-3.0-1.277"
	},
	{
		"rt": 979,
		"stimulus": "../audio/67-8-fem.mp3",
		"response": " ",
		"word": "varal.",
		"trial_type": "audio-keyboard-response",
		"trial_index": 341,
		"time_elapsed": 1055762,
		"internal_node_id": "0.0-3.0-1.278"
	},
	{
		"rt": null,
		"stimulus": "<span style= \"font-size:30px; font-family: monospace\">+</span>",
		"response": null,
		"trial_part": "fixation",
		"trial_type": "html-keyboard-response",
		"trial_index": 342,
		"time_elapsed": 1057029,
		"internal_node_id": "0.0-3.0-0.279-0.279"
	},
	{
		"rt": 1120,
		"stimulus": "../audio/68-1-masc.mp3",
		"response": " ",
		"word": "Meu",
		"trial_type": "audio-keyboard-response",
		"trial_index": 343,
		"time_elapsed": 1058434,
		"internal_node_id": "0.0-3.0-1.279"
	},
	{
		"rt": 989,
		"stimulus": "../audio/68-2-masc.mp3",
		"response": " ",
		"word": "irmão",
		"trial_type": "audio-keyboard-response",
		"trial_index": 344,
		"time_elapsed": 1059698,
		"internal_node_id": "0.0-3.0-1.280"
	},
	{
		"rt": 1008,
		"stimulus": "../audio/68-3-masc.mp3",
		"response": " ",
		"word": "teve",
		"trial_type": "audio-keyboard-response",
		"trial_index": 345,
		"time_elapsed": 1060994,
		"internal_node_id": "0.0-3.0-1.281"
	},
	{
		"rt": 829,
		"stimulus": "../audio/68-4-masc.mp3",
		"response": " ",
		"word": "um",
		"trial_type": "audio-keyboard-response",
		"trial_index": 346,
		"time_elapsed": 1062098,
		"internal_node_id": "0.0-3.0-1.282"
	},
	{
		"rt": 1160,
		"stimulus": "../audio/68-5-masc.mp3",
		"response": " ",
		"word": "noivado",
		"trial_type": "audio-keyboard-response",
		"trial_index": 347,
		"time_elapsed": 1063522,
		"internal_node_id": "0.0-3.0-1.283"
	},
	{
		"rt": 1011,
		"stimulus": "../audio/68-6-masc.mp3",
		"response": " ",
		"word": "longo",
		"trial_type": "audio-keyboard-response",
		"trial_index": 348,
		"time_elapsed": 1064819,
		"internal_node_id": "0.0-3.0-1.284"
	},
	{
		"rt": 669,
		"stimulus": "../audio/68-7-masc.mp3",
		"response": " ",
		"word": "e",
		"trial_type": "audio-keyboard-response",
		"trial_index": 349,
		"time_elapsed": 1065762,
		"internal_node_id": "0.0-3.0-1.285"
	},
	{
		"rt": 1261,
		"stimulus": "../audio/68-8-masc.mp3",
		"response": " ",
		"word": "maravilhoso.",
		"trial_type": "audio-keyboard-response",
		"trial_index": 350,
		"time_elapsed": 1067298,
		"internal_node_id": "0.0-3.0-1.286"
	},
	{
		"rt": null,
		"stimulus": "<span style= \"font-size:30px; font-family: monospace\">+</span>",
		"response": null,
		"trial_part": "fixation",
		"trial_type": "html-keyboard-response",
		"trial_index": 351,
		"time_elapsed": 1068559,
		"internal_node_id": "0.0-3.0-0.287-0.287"
	},
	{
		"rt": 901,
		"stimulus": "../audio/69-1-fem.mp3",
		"response": " ",
		"word": "A",
		"trial_type": "audio-keyboard-response",
		"trial_index": 352,
		"time_elapsed": 1069730,
		"internal_node_id": "0.0-3.0-1.287"
	},
	{
		"rt": 1149,
		"stimulus": "../audio/69-2-fem.mp3",
		"response": " ",
		"word": "loja",
		"trial_type": "audio-keyboard-response",
		"trial_index": 353,
		"time_elapsed": 1071154,
		"internal_node_id": "0.0-3.0-1.288"
	},
	{
		"rt": 1261,
		"stimulus": "../audio/69-3-fem.mp3",
		"response": " ",
		"word": "recebeu",
		"trial_type": "audio-keyboard-response",
		"trial_index": 354,
		"time_elapsed": 1072691,
		"internal_node_id": "0.0-3.0-1.289"
	},
	{
		"rt": 920,
		"stimulus": "../audio/69-4-fem.mp3",
		"response": " ",
		"word": "uma",
		"trial_type": "audio-keyboard-response",
		"trial_index": 355,
		"time_elapsed": 1073890,
		"internal_node_id": "0.0-3.0-1.290"
	},
	{
		"rt": 1120,
		"stimulus": "../audio/69-5-fem.mp3",
		"response": " ",
		"word": "poltrona",
		"trial_type": "audio-keyboard-response",
		"trial_index": 356,
		"time_elapsed": 1075298,
		"internal_node_id": "0.0-3.0-1.291"
	},
	{
		"rt": 1000,
		"stimulus": "../audio/69-6-fem.mp3",
		"response": " ",
		"word": "de",
		"trial_type": "audio-keyboard-response",
		"trial_index": 357,
		"time_elapsed": 1076562,
		"internal_node_id": "0.0-3.0-1.292"
	},
	{
		"rt": 1120,
		"stimulus": "../audio/69-7-fem.mp3",
		"response": " ",
		"word": "couro",
		"trial_type": "audio-keyboard-response",
		"trial_index": 358,
		"time_elapsed": 1077954,
		"internal_node_id": "0.0-3.0-1.293"
	},
	{
		"rt": 989,
		"stimulus": "../audio/69-8-fem.mp3",
		"response": " ",
		"word": "preto.",
		"trial_type": "audio-keyboard-response",
		"trial_index": 359,
		"time_elapsed": 1079218,
		"internal_node_id": "0.0-3.0-1.294"
	},
	{
		"rt": null,
		"stimulus": "<span style= \"font-size:30px; font-family: monospace\">+</span>",
		"response": null,
		"trial_part": "fixation",
		"trial_type": "html-keyboard-response",
		"trial_index": 360,
		"time_elapsed": 1080489,
		"internal_node_id": "0.0-3.0-0.295-0.295"
	},
	{
		"rt": 69,
		"stimulus": "../audio/66-1-fem.mp3",
		"response": " ",
		"word": "Não",
		"trial_type": "audio-keyboard-response",
		"trial_index": 361,
		"time_elapsed": 1080834,
		"internal_node_id": "0.0-3.0-1.295"
	},
	{
		"rt": 1309,
		"stimulus": "../audio/66-2-fem.mp3",
		"response": " ",
		"word": "gosto",
		"trial_type": "audio-keyboard-response",
		"trial_index": 362,
		"time_elapsed": 1082418,
		"internal_node_id": "0.0-3.0-1.296"
	},
	{
		"rt": 851,
		"stimulus": "../audio/66-3-fem.mp3",
		"response": " ",
		"word": "de",
		"trial_type": "audio-keyboard-response",
		"trial_index": 363,
		"time_elapsed": 1083538,
		"internal_node_id": "0.0-3.0-1.297"
	},
	{
		"rt": 1291,
		"stimulus": "../audio/66-4-fem.mp3",
		"response": " ",
		"word": "gente",
		"trial_type": "audio-keyboard-response",
		"trial_index": 364,
		"time_elapsed": 1085106,
		"internal_node_id": "0.0-3.0-1.298"
	},
	{
		"rt": 1411,
		"stimulus": "../audio/66-5-fem.mp3",
		"response": " ",
		"word": "egoísta",
		"trial_type": "audio-keyboard-response",
		"trial_index": 365,
		"time_elapsed": 1086787,
		"internal_node_id": "0.0-3.0-1.299"
	},
	{
		"rt": 1120,
		"stimulus": "../audio/66-6-fem.mp3",
		"response": " ",
		"word": "nem",
		"trial_type": "audio-keyboard-response",
		"trial_index": 366,
		"time_elapsed": 1088178,
		"internal_node_id": "0.0-3.0-1.300"
	},
	{
		"rt": 1200,
		"stimulus": "../audio/66-7-fem.mp3",
		"response": " ",
		"word": "chata.",
		"trial_type": "audio-keyboard-response",
		"trial_index": 367,
		"time_elapsed": 1089650,
		"internal_node_id": "0.0-3.0-1.301"
	},
	{
		"rt": null,
		"stimulus": "<span style= \"font-size:30px; font-family: monospace\">+</span>",
		"response": null,
		"trial_part": "fixation",
		"trial_type": "html-keyboard-response",
		"trial_index": 368,
		"time_elapsed": 1090938,
		"internal_node_id": "0.0-3.0-0.302-0.302"
	},
	{
		"rt": 869,
		"stimulus": "../audio/70-1-fem.mp3",
		"response": " ",
		"word": "O",
		"trial_type": "audio-keyboard-response",
		"trial_index": 369,
		"time_elapsed": 1092082,
		"internal_node_id": "0.0-3.0-1.302"
	},
	{
		"rt": 821,
		"stimulus": "../audio/70-2-fem.mp3",
		"response": " ",
		"word": "meu",
		"trial_type": "audio-keyboard-response",
		"trial_index": 370,
		"time_elapsed": 1093170,
		"internal_node_id": "0.0-3.0-1.303"
	},
	{
		"rt": 1011,
		"stimulus": "../audio/70-3-fem.mp3",
		"response": " ",
		"word": "filho",
		"trial_type": "audio-keyboard-response",
		"trial_index": 371,
		"time_elapsed": 1094450,
		"internal_node_id": "0.0-3.0-1.304"
	},
	{
		"rt": 880,
		"stimulus": "../audio/70-4-fem.mp3",
		"response": " ",
		"word": "tem",
		"trial_type": "audio-keyboard-response",
		"trial_index": 372,
		"time_elapsed": 1095620,
		"internal_node_id": "0.0-3.0-1.305"
	},
	{
		"rt": 1080,
		"stimulus": "../audio/70-5-fem.mp3",
		"response": " ",
		"word": "medo",
		"trial_type": "audio-keyboard-response",
		"trial_index": 373,
		"time_elapsed": 1096964,
		"internal_node_id": "0.0-3.0-1.306"
	},
	{
		"rt": 901,
		"stimulus": "../audio/70-6-fem.mp3",
		"response": " ",
		"word": "de",
		"trial_type": "audio-keyboard-response",
		"trial_index": 374,
		"time_elapsed": 1098148,
		"internal_node_id": "0.0-3.0-1.307"
	},
	{
		"rt": 1368,
		"stimulus": "../audio/70-7-fem.mp3",
		"response": " ",
		"word": "enguia",
		"trial_type": "audio-keyboard-response",
		"trial_index": 375,
		"time_elapsed": 1099796,
		"internal_node_id": "0.0-3.0-1.308"
	},
	{
		"rt": 579,
		"stimulus": "../audio/70-8-fem.mp3",
		"response": " ",
		"word": "e",
		"trial_type": "audio-keyboard-response",
		"trial_index": 376,
		"time_elapsed": 1100644,
		"internal_node_id": "0.0-3.0-1.309"
	},
	{
		"rt": 672,
		"stimulus": "../audio/70-9-fem.mp3",
		"response": " ",
		"word": "beija-flor.",
		"trial_type": "audio-keyboard-response",
		"trial_index": 377,
		"time_elapsed": 1101588,
		"internal_node_id": "0.0-3.0-1.310"
	},
	{
		"rt": 10193,
		"stimulus": "<span style=\"font-size:25px; font-family: monospace\">O filho tem medo de tigre?</span>",
		"response": "n",
		"question": "O filho tem medo de tigre?",
		"answer": "null",
		"trial": "exp-sent",
		"trial_type": "html-keyboard-response",
		"trial_index": 378,
		"time_elapsed": 1112036,
		"internal_node_id": "0.0-3.0-2.310-0.310",
		"accuracy": false
	},
	{
		"rt": null,
		"stimulus": "<span style= \"font-size:30px; font-family: monospace\">+</span>",
		"response": null,
		"trial_part": "fixation",
		"trial_type": "html-keyboard-response",
		"trial_index": 379,
		"time_elapsed": 1113560,
		"internal_node_id": "0.0-3.0-0.311-0.311"
	},
	{
		"rt": 1181,
		"stimulus": "../audio/34-1-masc.mp3",
		"response": " ",
		"word": "Cobrança",
		"trial_type": "audio-keyboard-response",
		"trial_index": 380,
		"time_elapsed": 1115012,
		"internal_node_id": "0.0-3.0-1.311"
	},
	{
		"rt": 1200,
		"stimulus": "../audio/34-2-masc.mp3",
		"response": " ",
		"word": "excessiva",
		"trial_type": "audio-keyboard-response",
		"trial_index": 381,
		"time_elapsed": 1116500,
		"internal_node_id": "0.0-3.0-1.312"
	},
	{
		"rt": 1149,
		"stimulus": "../audio/34-3-masc.mp3",
		"response": " ",
		"word": "é",
		"trial_type": "audio-keyboard-response",
		"trial_index": 382,
		"time_elapsed": 1117924,
		"internal_node_id": "0.0-3.0-1.313"
	},
	{
		"rt": 709,
		"stimulus": "../audio/34-4-masc.mp3",
		"response": " ",
		"word": "um",
		"trial_type": "audio-keyboard-response",
		"trial_index": 383,
		"time_elapsed": 1118900,
		"internal_node_id": "0.0-3.0-1.314"
	},
	{
		"rt": 960,
		"stimulus": "../audio/34-5-masc.mp3",
		"response": " ",
		"word": "fardo",
		"trial_type": "audio-keyboard-response",
		"trial_index": 384,
		"time_elapsed": 1120132,
		"internal_node_id": "0.0-3.0-1.315"
	},
	{
		"rt": 1011,
		"stimulus": "../audio/34-6-masc.mp3",
		"response": " ",
		"word": "para",
		"trial_type": "audio-keyboard-response",
		"trial_index": 385,
		"time_elapsed": 1121412,
		"internal_node_id": "0.0-3.0-1.316"
	},
	{
		"rt": 731,
		"stimulus": "../audio/34-7-masc.mp3",
		"response": " ",
		"word": "a",
		"trial_type": "audio-keyboard-response",
		"trial_index": 386,
		"time_elapsed": 1122420,
		"internal_node_id": "0.0-3.0-1.317"
	},
	{
		"rt": 1389,
		"stimulus": "../audio/34-8-masc.mp3",
		"response": " ",
		"word": "cabeça.",
		"trial_type": "audio-keyboard-response",
		"trial_index": 387,
		"time_elapsed": 1124100,
		"internal_node_id": "0.0-3.0-1.318"
	},
	{
		"rt": null,
		"stimulus": "<span style= \"font-size:30px; font-family: monospace\">+</span>",
		"response": null,
		"trial_part": "fixation",
		"trial_type": "html-keyboard-response",
		"trial_index": 388,
		"time_elapsed": 1125380,
		"internal_node_id": "0.0-3.0-0.319-0.319"
	},
	{
		"rt": 829,
		"stimulus": "../audio/31-1-masc.mp3",
		"response": " ",
		"word": "O",
		"trial_type": "audio-keyboard-response",
		"trial_index": 389,
		"time_elapsed": 1126484,
		"internal_node_id": "0.0-3.0-1.319"
	},
	{
		"rt": 1141,
		"stimulus": "../audio/31-2-masc.mp3",
		"response": " ",
		"word": "padeiro",
		"trial_type": "audio-keyboard-response",
		"trial_index": 390,
		"time_elapsed": 1127908,
		"internal_node_id": "0.0-3.0-1.320"
	},
	{
		"rt": 1048,
		"stimulus": "../audio/31-3-masc.mp3",
		"response": " ",
		"word": "usou",
		"trial_type": "audio-keyboard-response",
		"trial_index": 391,
		"time_elapsed": 1129236,
		"internal_node_id": "0.0-3.0-1.321"
	},
	{
		"rt": 829,
		"stimulus": "../audio/31-4-masc.mp3",
		"response": " ",
		"word": "a",
		"trial_type": "audio-keyboard-response",
		"trial_index": 392,
		"time_elapsed": 1130340,
		"internal_node_id": "0.0-3.0-1.322"
	},
	{
		"rt": 1320,
		"stimulus": "../audio/31-5-masc.mp3",
		"response": " ",
		"word": "balança",
		"trial_type": "audio-keyboard-response",
		"trial_index": 393,
		"time_elapsed": 1131940,
		"internal_node_id": "0.0-3.0-1.323"
	},
	{
		"rt": 880,
		"stimulus": "../audio/31-6-masc.mp3",
		"response": " ",
		"word": "o",
		"trial_type": "audio-keyboard-response",
		"trial_index": 394,
		"time_elapsed": 1133092,
		"internal_node_id": "0.0-3.0-1.324"
	},
	{
		"rt": 1160,
		"stimulus": "../audio/31-7-masc.mp3",
		"response": " ",
		"word": "dia",
		"trial_type": "audio-keyboard-response",
		"trial_index": 395,
		"time_elapsed": 1134532,
		"internal_node_id": "0.0-3.0-1.325"
	},
	{
		"rt": 1429,
		"stimulus": "../audio/31-8-masc.mp3",
		"response": " ",
		"word": "inteiro.",
		"trial_type": "audio-keyboard-response",
		"trial_index": 396,
		"time_elapsed": 1136244,
		"internal_node_id": "0.0-3.0-1.326"
	},
	{
		"rt": null,
		"stimulus": "<span style= \"font-size:30px; font-family: monospace\">+</span>",
		"response": null,
		"trial_part": "fixation",
		"trial_type": "html-keyboard-response",
		"trial_index": 397,
		"time_elapsed": 1137511,
		"internal_node_id": "0.0-3.0-0.327-0.327"
	},
	{
		"rt": 760,
		"stimulus": "../audio/32-1-masc.mp3",
		"response": " ",
		"word": "A",
		"trial_type": "audio-keyboard-response",
		"trial_index": 398,
		"time_elapsed": 1138548,
		"internal_node_id": "0.0-3.0-1.327"
	},
	{
		"rt": 1000,
		"stimulus": "../audio/32-2-masc.mp3",
		"response": " ",
		"word": "tia",
		"trial_type": "audio-keyboard-response",
		"trial_index": 399,
		"time_elapsed": 1139828,
		"internal_node_id": "0.0-3.0-1.328"
	},
	{
		"rt": 1128,
		"stimulus": "../audio/32-3-masc.mp3",
		"response": " ",
		"word": "comprou",
		"trial_type": "audio-keyboard-response",
		"trial_index": 400,
		"time_elapsed": 1141236,
		"internal_node_id": "0.0-3.0-1.329"
	},
	{
		"rt": 811,
		"stimulus": "../audio/32-4-masc.mp3",
		"response": " ",
		"word": "um",
		"trial_type": "audio-keyboard-response",
		"trial_index": 401,
		"time_elapsed": 1142324,
		"internal_node_id": "0.0-3.0-1.330"
	},
	{
		"rt": 1040,
		"stimulus": "../audio/32-5-masc.mp3",
		"response": " ",
		"word": "pilão",
		"trial_type": "audio-keyboard-response",
		"trial_index": 402,
		"time_elapsed": 1143636,
		"internal_node_id": "0.0-3.0-1.331"
	},
	{
		"rt": 1080,
		"stimulus": "../audio/32-6-masc.mp3",
		"response": " ",
		"word": "para",
		"trial_type": "audio-keyboard-response",
		"trial_index": 403,
		"time_elapsed": 1144996,
		"internal_node_id": "0.0-3.0-1.332"
	},
	{
		"rt": 1021,
		"stimulus": "../audio/32-7-masc.mp3",
		"response": " ",
		"word": "a",
		"trial_type": "audio-keyboard-response",
		"trial_index": 404,
		"time_elapsed": 1146292,
		"internal_node_id": "0.0-3.0-1.333"
	},
	{
		"rt": 1440,
		"stimulus": "../audio/32-8-masc.mp3",
		"response": " ",
		"word": "cozinha.",
		"trial_type": "audio-keyboard-response",
		"trial_index": 405,
		"time_elapsed": 1148004,
		"internal_node_id": "0.0-3.0-1.334"
	},
	{
		"rt": null,
		"stimulus": "<span style= \"font-size:30px; font-family: monospace\">+</span>",
		"response": null,
		"trial_part": "fixation",
		"trial_type": "html-keyboard-response",
		"trial_index": 406,
		"time_elapsed": 1149290,
		"internal_node_id": "0.0-3.0-0.335-0.335"
	},
	{
		"rt": 2051,
		"stimulus": "../audio/33-1-masc.mp3",
		"response": " ",
		"word": "Eles",
		"trial_type": "audio-keyboard-response",
		"trial_index": 407,
		"time_elapsed": 1151620,
		"internal_node_id": "0.0-3.0-1.335"
	},
	{
		"rt": 1088,
		"stimulus": "../audio/33-2-masc.mp3",
		"response": " ",
		"word": "sabem",
		"trial_type": "audio-keyboard-response",
		"trial_index": 408,
		"time_elapsed": 1152996,
		"internal_node_id": "0.0-3.0-1.336"
	},
	{
		"rt": 1029,
		"stimulus": "../audio/33-3-masc.mp3",
		"response": " ",
		"word": "do",
		"trial_type": "audio-keyboard-response",
		"trial_index": 409,
		"time_elapsed": 1154292,
		"internal_node_id": "0.0-3.0-1.337"
	},
	{
		"rt": 931,
		"stimulus": "../audio/33-4-masc.mp3",
		"response": " ",
		"word": "seu",
		"trial_type": "audio-keyboard-response",
		"trial_index": 410,
		"time_elapsed": 1155508,
		"internal_node_id": "0.0-3.0-1.338"
	},
	{
		"rt": 1419,
		"stimulus": "../audio/33-5-masc.mp3",
		"response": " ",
		"word": "privilégio",
		"trial_type": "audio-keyboard-response",
		"trial_index": 411,
		"time_elapsed": 1157204,
		"internal_node_id": "0.0-3.0-1.339"
	},
	{
		"rt": 1141,
		"stimulus": "../audio/33-6-masc.mp3",
		"response": " ",
		"word": "nessa",
		"trial_type": "audio-keyboard-response",
		"trial_index": 412,
		"time_elapsed": 1158611,
		"internal_node_id": "0.0-3.0-1.340"
	},
	{
		"rt": 2051,
		"stimulus": "../audio/33-7-masc.mp3",
		"response": " ",
		"word": "confusão.",
		"trial_type": "audio-keyboard-response",
		"trial_index": 413,
		"time_elapsed": 1160932,
		"internal_node_id": "0.0-3.0-1.341"
	},
	{
		"rt": null,
		"stimulus": "<span style= \"font-size:30px; font-family: monospace\">+</span>",
		"response": null,
		"trial_part": "fixation",
		"trial_type": "html-keyboard-response",
		"trial_index": 414,
		"time_elapsed": 1162220,
		"internal_node_id": "0.0-3.0-0.342-0.342"
	},
	{
		"rt": 1200,
		"stimulus": "../audio/35-1-masc.mp3",
		"response": " ",
		"word": "A",
		"trial_type": "audio-keyboard-response",
		"trial_index": 415,
		"time_elapsed": 1163700,
		"internal_node_id": "0.0-3.0-1.342"
	},
	{
		"rt": 1651,
		"stimulus": "../audio/35-2-masc.mp3",
		"response": " ",
		"word": "receita",
		"trial_type": "audio-keyboard-response",
		"trial_index": 416,
		"time_elapsed": 1165620,
		"internal_node_id": "0.0-3.0-1.343"
	},
	{
		"rt": 971,
		"stimulus": "../audio/35-3-masc.mp3",
		"response": " ",
		"word": "para",
		"trial_type": "audio-keyboard-response",
		"trial_index": 417,
		"time_elapsed": 1166868,
		"internal_node_id": "0.0-3.0-1.344"
	},
	{
		"rt": 789,
		"stimulus": "../audio/35-4-masc.mp3",
		"response": " ",
		"word": "a",
		"trial_type": "audio-keyboard-response",
		"trial_index": 418,
		"time_elapsed": 1167924,
		"internal_node_id": "0.0-3.0-1.345"
	},
	{
		"rt": 1461,
		"stimulus": "../audio/35-5-masc.mp3",
		"response": " ",
		"word": "preparação",
		"trial_type": "audio-keyboard-response",
		"trial_index": 419,
		"time_elapsed": 1169652,
		"internal_node_id": "0.0-3.0-1.346"
	},
	{
		"rt": 781,
		"stimulus": "../audio/35-6-masc.mp3",
		"response": " ",
		"word": "do",
		"trial_type": "audio-keyboard-response",
		"trial_index": 420,
		"time_elapsed": 1170708,
		"internal_node_id": "0.0-3.0-1.347"
	},
	{
		"rt": 960,
		"stimulus": "../audio/35-7-masc.mp3",
		"response": " ",
		"word": "bolo",
		"trial_type": "audio-keyboard-response",
		"trial_index": 421,
		"time_elapsed": 1171940,
