"view_history","rt","trial_type","trial_index","time_elapsed","internal_node_id","stimulus","response","trial_part","trial","word","question","answer","accuracy"
"[{""page_index"":0,""viewing_time"":19550},{""page_index"":1,""viewing_time"":9304}]","28854","instructions","0","28856","0.0-0.0","","","","","","","",""
"","null","html-keyboard-response","1","29994","0.0-1.0-0.0-0.0","<span style= ""font-size:30px; font-family: monospace"">+</span>","null","fixation","","","","",""
"","3114","html-keyboard-response","2","33368","0.0-1.0-1.0","<span style=""font-size:30px; font-family: monospace"">O</span>"," ","","prac-sent","O","","",""
"","6821","html-keyboard-response","3","40439","0.0-1.0-1.1","<span style=""font-size:30px; font-family: monospace"">dia</span>"," ","","prac-sent","dia","","",""
"","1685","html-keyboard-response","4","42376","0.0-1.0-1.2","<span style=""font-size:30px; font-family: monospace"">estará</span>"," ","","prac-sent","estará","","",""
"","1733","html-keyboard-response","5","44360","0.0-1.0-1.3","<span style=""font-size:30px; font-family: monospace"">cheio</span>"," ","","prac-sent","cheio","","",""
"","1525","html-keyboard-response","6","46136","0.0-1.0-1.4","<span style=""font-size:30px; font-family: monospace"">de</span>"," ","","prac-sent","de","","",""
"","1477","html-keyboard-response","7","47864","0.0-1.0-1.5","<span style=""font-size:30px; font-family: monospace"">nuvens</span>"," ","","prac-sent","nuvens","","",""
"","1637","html-keyboard-response","8","49752","0.0-1.0-1.6","<span style=""font-size:30px; font-family: monospace"">hoje.</span>"," ","","prac-sent","hoje.","","",""
"","null","html-keyboard-response","9","51003","0.0-1.0-0.7-0.7","<span style= ""font-size:30px; font-family: monospace"">+</span>","null","fixation","","","","",""
"","929","html-keyboard-response","10","52184","0.0-1.0-1.7","<span style=""font-size:30px; font-family: monospace"">A</span>"," ","","prac-sent","A","","",""
"","1621","html-keyboard-response","11","54056","0.0-1.0-1.8","<span style=""font-size:30px; font-family: monospace"">caneca</span>"," ","","prac-sent","caneca","","",""
"","1493","html-keyboard-response","12","55800","0.0-1.0-1.9","<span style=""font-size:30px; font-family: monospace"">colorida</span>"," ","","prac-sent","colorida","","",""
"","1045","html-keyboard-response","13","57096","0.0-1.0-1.10","<span style=""font-size:30px; font-family: monospace"">caiu</span>"," ","","prac-sent","caiu","","",""
"","1189","html-keyboard-response","14","58536","0.0-1.0-1.11","<span style=""font-size:30px; font-family: monospace"">da</span>"," ","","prac-sent","da","","",""
"","1237","html-keyboard-response","15","60024","0.0-1.0-1.12","<span style=""font-size:30px; font-family: monospace"">mesa</span>"," ","","prac-sent","mesa","","",""
"","804","html-keyboard-response","16","61080","0.0-1.0-1.13","<span style=""font-size:30px; font-family: monospace"">de</span>"," ","","prac-sent","de","","",""
"","981","html-keyboard-response","17","62312","0.0-1.0-1.14","<span style=""font-size:30px; font-family: monospace"">jantar.</span>"," ","","prac-comp","jantar.","","",""
"","22453","html-keyboard-response","18","85016","0.0-1.0-2.14-0.14","<span style=""font-size:30px; font-family: monospace"">A caneca permaneceu na mesa?</span>","s","","prac-comp","","A caneca permaneceu na mesa?","não","false"
"[{""page_index"":0,""viewing_time"":5939}]","5939","instructions","19","91456","0.0-2.0","","","","","","","",""
"","null","html-keyboard-response","20","92559","0.0-3.0-0.0-0.0","<span style= ""font-size:30px; font-family: monospace"">+</span>","null","fixation","","","","",""
"","815","html-keyboard-response","21","93624","0.0-3.0-1.0","<span style=""font-size:30px; font-family: monospace"">O</span>"," ","","exp-sent","O","","",""
"","1750","html-keyboard-response","22","95624","0.0-3.0-1.1","<span style=""font-size:30px; font-family: monospace"">moço</span>"," ","","exp-sent","moço","","",""
"","9460","html-keyboard-response","23","105336","0.0-3.0-1.2","<span style=""font-size:30px; font-family: monospace"">usou</span>"," ","","exp-sent","usou","","",""
"","1749","html-keyboard-response","24","107336","0.0-3.0-1.3","<span style=""font-size:30px; font-family: monospace"">várias</span>"," ","","exp-sent","várias","","",""
"","1365","html-keyboard-response","25","108952","0.0-3.0-1.4","<span style=""font-size:30px; font-family: monospace"">velas</span>"," ","","exp-sent","velas","","",""
"","1109","html-keyboard-response","26","110312","0.0-3.0-1.5","<span style=""font-size:30px; font-family: monospace"">no</span>"," ","","exp-sent","no","","",""
"","9381","html-keyboard-response","27","119944","0.0-3.0-1.6","<span style=""font-size:30px; font-family: monospace"">enfeite</span>"," ","","exp-sent","enfeite","","",""
"","757","html-keyboard-response","28","120952","0.0-3.0-1.7","<span style=""font-size:30px; font-family: monospace"">de</span>"," ","","exp-sent","de","","",""
"","1029","html-keyboard-response","29","122232","0.0-3.0-1.8","<span style=""font-size:30px; font-family: monospace"">mesa.</span>"," ","","exp-sent","mesa.","","",""
"","null","html-keyboard-response","30","123483","0.0-3.0-0.9-0.9","<span style= ""font-size:30px; font-family: monospace"">+</span>","null","fixation","","","","",""
"","1650","html-keyboard-response","31","125384","0.0-3.0-1.9","<span style=""font-size:30px; font-family: monospace"">Gostamos</span>"," ","","exp-sent","Gostamos","","",""
"","981","html-keyboard-response","32","126615","0.0-3.0-1.10","<span style=""font-size:30px; font-family: monospace"">de</span>"," ","","exp-sent","de","","",""
"","1221","html-keyboard-response","33","128088","0.0-3.0-1.11","<span style=""font-size:30px; font-family: monospace"">suco</span>"," ","","exp-sent","suco","","",""
"","933","html-keyboard-response","34","129272","0.0-3.0-1.12","<span style=""font-size:30px; font-family: monospace"">em</span>"," ","","exp-sent","em","","",""
"","1125","html-keyboard-response","35","130648","0.0-3.0-1.13","<span style=""font-size:30px; font-family: monospace"">garrafa</span>"," ","","exp-sent","garrafa","","",""
"","757","html-keyboard-response","36","131656","0.0-3.0-1.14","<span style=""font-size:30px; font-family: monospace"">de</span>"," ","","exp-sent","de","","",""
"","2036","html-keyboard-response","37","133944","0.0-3.0-1.15","<span style=""font-size:30px; font-family: monospace"">tamanho</span>"," ","","exp-sent","tamanho","","",""
"","1733","html-keyboard-response","38","135928","0.0-3.0-1.16","<span style=""font-size:30px; font-family: monospace"">pequeno.</span>"," ","","exp-sent","pequeno.","","",""
"","null","html-keyboard-response","39","137194","0.0-3.0-0.17-0.17","<span style= ""font-size:30px; font-family: monospace"">+</span>","null","fixation","","","","",""
"","850","html-keyboard-response","40","138295","0.0-3.0-1.17","<span style=""font-size:30px; font-family: monospace"">Sua</span>"," ","","exp-sent","Sua","","",""
"","868","html-keyboard-response","41","139416","0.0-3.0-1.18","<span style=""font-size:30px; font-family: monospace"">filha</span>"," ","","exp-sent","filha","","",""
"","771","html-keyboard-response","42","140440","0.0-3.0-1.19","<span style=""font-size:30px; font-family: monospace"">é</span>"," ","","exp-sent","é","","",""
"","1093","html-keyboard-response","43","141784","0.0-3.0-1.20","<span style=""font-size:30px; font-family: monospace"">muito</span>"," ","","exp-sent","muito","","",""
"","1013","html-keyboard-response","44","143048","0.0-3.0-1.21","<span style=""font-size:30px; font-family: monospace"">capaz</span>"," ","","exp-sent","capaz","","",""
"","708","html-keyboard-response","45","144008","0.0-3.0-1.22","<span style=""font-size:30px; font-family: monospace"">e</span>"," ","","exp-sent","e","","",""
"","1941","html-keyboard-response","46","146200","0.0-3.0-1.23","<span style=""font-size:30px; font-family: monospace"">esforçada.</span>"," ","","exp-sent","esforçada.","","",""
"","null","html-keyboard-response","47","147451","0.0-3.0-0.24-0.24","<span style= ""font-size:30px; font-family: monospace"">+</span>","null","fixation","","","","",""
"","738","html-keyboard-response","48","148440","0.0-3.0-1.24","<span style=""font-size:30px; font-family: monospace"">A</span>"," ","","exp-sent","A","","",""
"","949","html-keyboard-response","49","149640","0.0-3.0-1.25","<span style=""font-size:30px; font-family: monospace"">batida</span>"," ","","exp-sent","batida","","",""
"","1573","html-keyboard-response","50","151464","0.0-3.0-1.26","<span style=""font-size:30px; font-family: monospace"">causou</span>"," ","","exp-sent","causou","","",""
"","997","html-keyboard-response","51","152712","0.0-3.0-1.27","<span style=""font-size:30px; font-family: monospace"">muita</span>"," ","","exp-sent","muita","","",""
"","1125","html-keyboard-response","52","154088","0.0-3.0-1.28","<span style=""font-size:30px; font-family: monospace"">confusão</span>"," ","","exp-sent","confusão","","",""
"","805","html-keyboard-response","53","155144","0.0-3.0-1.29","<span style=""font-size:30px; font-family: monospace"">na</span>"," ","","exp-sent","na","","",""
"","1268","html-keyboard-response","54","156664","0.0-3.0-1.30","<span style=""font-size:30px; font-family: monospace"">estrada.</span>"," ","","exp-sent","estrada.","","",""
"","null","html-keyboard-response","55","157921","0.0-3.0-0.31-0.31","<span style= ""font-size:30px; font-family: monospace"">+</span>","null","fixation","","","","",""
"","1340","html-keyboard-response","56","159512","0.0-3.0-1.31","<span style=""font-size:30px; font-family: monospace"">Eu</span>"," ","","exp-sent","Eu","","",""
"","2901","html-keyboard-response","57","162664","0.0-3.0-1.32","<span style=""font-size:30px; font-family: monospace"">cozinhei</span>"," ","","exp-sent","cozinhei","","",""
"","997","html-keyboard-response","58","163912","0.0-3.0-1.33","<span style=""font-size:30px; font-family: monospace"">um</span>"," ","","exp-sent","um","","",""
"","1077","html-keyboard-response","59","165240","0.0-3.0-1.34","<span style=""font-size:30px; font-family: monospace"">almoço</span>"," ","","exp-sent","almoço","","",""
"","1061","html-keyboard-response","60","166552","0.0-3.0-1.35","<span style=""font-size:30px; font-family: monospace"">nutritivo</span>"," ","","exp-sent","nutritivo","","",""
"","933","html-keyboard-response","61","167736","0.0-3.0-1.36","<span style=""font-size:30px; font-family: monospace"">para</span>"," ","","exp-sent","para","","",""
"","1622","html-keyboard-response","62","169608","0.0-3.0-1.37","<span style=""font-size:30px; font-family: monospace"">hoje.</span>"," ","","comp","hoje.","","",""
"","5236","html-keyboard-response","63","175096","0.0-3.0-2.37-0.37","<span style=""font-size:30px; font-family: monospace"">O almoço era nutritivo?</span>","s","","comp","","O almoço era nutritivo?","sim","false"
"","null","html-keyboard-response","64","176598","0.0-3.0-0.38-0.38","<span style= ""font-size:30px; font-family: monospace"">+</span>","null","fixation","","","","",""
"","2391","html-keyboard-response","65","179240","0.0-3.0-1.38","<span style=""font-size:30px; font-family: monospace"">Minha</span>"," ","","exp-sent","Minha","","",""
"","3285","html-keyboard-response","66","182776","0.0-3.0-1.39","<span style=""font-size:30px; font-family: monospace"">prima</span>"," ","","exp-sent","prima","","",""
"","1364","html-keyboard-response","67","184392","0.0-3.0-1.40","<span style=""font-size:30px; font-family: monospace"">trocou</span>"," ","","exp-sent","trocou","","",""
"","757","html-keyboard-response","68","185400","0.0-3.0-1.41","<span style=""font-size:30px; font-family: monospace"">a</span>"," ","","exp-sent","a","","",""
"","1349","html-keyboard-response","69","187000","0.0-3.0-1.42","<span style=""font-size:30px; font-family: monospace"">tela</span>"," ","","exp-sent","tela","","",""
"","885","html-keyboard-response","70","188136","0.0-3.0-1.43","<span style=""font-size:30px; font-family: monospace"">do</span>"," ","","exp-sent","do","","",""
"","1109","html-keyboard-response","71","189495","0.0-3.0-1.44","<span style=""font-size:30px; font-family: monospace"">celular</span>"," ","","exp-sent","celular","","",""
"","1429","html-keyboard-response","72","191176","0.0-3.0-1.45","<span style=""font-size:30px; font-family: monospace"">duas</span>"," ","","exp-sent","duas","","",""
"","868","html-keyboard-response","73","192296","0.0-3.0-1.46","<span style=""font-size:30px; font-family: monospace"">vezes.</span>"," ","","exp-sent","vezes.","","",""
"","null","html-keyboard-response","74","193560","0.0-3.0-0.47-0.47","<span style= ""font-size:30px; font-family: monospace"">+</span>","null","fixation","","","","",""
"","213","html-keyboard-response","75","194024","0.0-3.0-1.47","<span style=""font-size:30px; font-family: monospace"">Agora</span>"," ","","exp-sent","Agora","","",""
"","1125","html-keyboard-response","76","195400","0.0-3.0-1.48","<span style=""font-size:30px; font-family: monospace"">a</span>"," ","","exp-sent","a","","",""
"","2116","html-keyboard-response","77","197768","0.0-3.0-1.49","<span style=""font-size:30px; font-family: monospace"">minha</span>"," ","","exp-sent","minha","","",""
"","1621","html-keyboard-response","78","199640","0.0-3.0-1.50","<span style=""font-size:30px; font-family: monospace"">única</span>"," ","","exp-sent","única","","",""
"","1332","html-keyboard-response","79","201223","0.0-3.0-1.51","<span style=""font-size:30px; font-family: monospace"">preocupação</span>"," ","","exp-sent","preocupação","","",""
"","709","html-keyboard-response","80","202184","0.0-3.0-1.52","<span style=""font-size:30px; font-family: monospace"">é</span>"," ","","exp-sent","é","","",""
"","869","html-keyboard-response","81","203304","0.0-3.0-1.53","<span style=""font-size:30px; font-family: monospace"">um</span>"," ","","exp-sent","um","","",""
"","1493","html-keyboard-response","82","205048","0.0-3.0-1.54","<span style=""font-size:30px; font-family: monospace"">descanso</span>"," ","","exp-sent","descanso","","",""
"","885","html-keyboard-response","83","206184","0.0-3.0-1.55","<span style=""font-size:30px; font-family: monospace"">tranquilo.</span>"," ","","exp-sent","tranquilo.","","",""
"","null","html-keyboard-response","84","207436","0.0-3.0-0.56-0.56","<span style= ""font-size:30px; font-family: monospace"">+</span>","null","fixation","","","","",""
"","544","html-keyboard-response","85","208232","0.0-3.0-1.56","<span style=""font-size:30px; font-family: monospace"">A</span>"," ","","exp-sent","A","","",""
"","917","html-keyboard-response","86","209400","0.0-3.0-1.57","<span style=""font-size:30px; font-family: monospace"">criança</span>"," ","","exp-sent","criança","","",""
"","805","html-keyboard-response","87","210456","0.0-3.0-1.58","<span style=""font-size:30px; font-family: monospace"">ganhou</span>"," ","","exp-sent","ganhou","","",""
"","528","html-keyboard-response","88","211240","0.0-3.0-1.59","<span style=""font-size:30px; font-family: monospace"">um</span>"," ","","exp-sent","um","","",""
"","661","html-keyboard-response","89","212152","0.0-3.0-1.60","<span style=""font-size:30px; font-family: monospace"">presente</span>"," ","","exp-sent","presente","","",""
"","1941","html-keyboard-response","90","214344","0.0-3.0-1.61","<span style=""font-size:30px; font-family: monospace"">maravilhoso.</span>"," ","","exp-sent","maravilhoso.","","",""
"","null","html-keyboard-response","91","215595","0.0-3.0-0.62-0.62","<span style= ""font-size:30px; font-family: monospace"">+</span>","null","fixation","","","","",""
"","176","html-keyboard-response","92","216024","0.0-3.0-1.62","<span style=""font-size:30px; font-family: monospace"">Os</span>"," ","","exp-sent","Os","","",""
"","1109","html-keyboard-response","93","217384","0.0-3.0-1.63","<span style=""font-size:30px; font-family: monospace"">bichos</span>"," ","","exp-sent","bichos","","",""
"","933","html-keyboard-response","94","218568","0.0-3.0-1.64","<span style=""font-size:30px; font-family: monospace"">têm</span>"," ","","exp-sent","têm","","",""
"","645","html-keyboard-response","95","219464","0.0-3.0-1.65","<span style=""font-size:30px; font-family: monospace"">um</span>"," ","","exp-sent","um","","",""
"","901","html-keyboard-response","96","220616","0.0-3.0-1.66","<span style=""font-size:30px; font-family: monospace"">instinto</span>"," ","","exp-sent","instinto","","",""
"","660","html-keyboard-response","97","221527","0.0-3.0-1.67","<span style=""font-size:30px; font-family: monospace"">de</span>"," ","","exp-sent","de","","",""
"","2117","html-keyboard-response","98","223896","0.0-3.0-1.68","<span style=""font-size:30px; font-family: monospace"">sobrevivência</span>"," ","","exp-sent","sobrevivência","","",""
"","916","html-keyboard-response","99","225063","0.0-3.0-1.69","<span style=""font-size:30px; font-family: monospace"">forte.</span>"," ","","exp-sent","forte.","","",""
"","null","html-keyboard-response","100","226316","0.0-3.0-0.70-0.70","<span style= ""font-size:30px; font-family: monospace"">+</span>","null","fixation","","","","",""
"","848","html-keyboard-response","101","227415","0.0-3.0-1.70","<span style=""font-size:30px; font-family: monospace"">Aquele</span>"," ","","exp-sent","Aquele","","",""
"","974","html-keyboard-response","102","228648","0.0-3.0-1.71","<span style=""font-size:30px; font-family: monospace"">menino</span>"," ","","exp-sent","menino","","",""
"","773","html-keyboard-response","103","229672","0.0-3.0-1.72","<span style=""font-size:30px; font-family: monospace"">alto</span>"," ","","exp-sent","alto","","",""
"","901","html-keyboard-response","104","230823","0.0-3.0-1.73","<span style=""font-size:30px; font-family: monospace"">é</span>"," ","","exp-sent","é","","",""
"","2501","html-keyboard-response","105","233576","0.0-3.0-1.74","<span style=""font-size:30px; font-family: monospace"">exibido</span>"," ","","exp-sent","exibido","","",""
"","629","html-keyboard-response","106","234456","0.0-3.0-1.75","<span style=""font-size:30px; font-family: monospace"">e</span>"," ","","exp-sent","e","","",""
"","949","html-keyboard-response","107","235656","0.0-3.0-1.76","<span style=""font-size:30px; font-family: monospace"">sovina.</span>"," ","","comp","sovina.","","",""
"","15749","html-keyboard-response","108","251656","0.0-3.0-2.76-0.76","<span style=""font-size:30px; font-family: monospace"">Aquele menino é humilde?</span>","n","","comp","","Aquele menino é humilde?","não","false"
"","null","html-keyboard-response","109","253158","0.0-3.0-0.77-0.77","<span style= ""font-size:30px; font-family: monospace"">+</span>","null","fixation","","","","",""
"","662","html-keyboard-response","110","254072","0.0-3.0-1.77","<span style=""font-size:30px; font-family: monospace"">Eu</span>"," ","","exp-sent","Eu","","",""
"","885","html-keyboard-response","111","255207","0.0-3.0-1.78","<span style=""font-size:30px; font-family: monospace"">gosto</span>"," ","","exp-sent","gosto","","",""
"","532","html-keyboard-response","112","255992","0.0-3.0-1.79","<span style=""font-size:30px; font-family: monospace"">de</span>"," ","","exp-sent","de","","",""
"","757","html-keyboard-response","113","257000","0.0-3.0-1.80","<span style=""font-size:30px; font-family: monospace"">molho</span>"," ","","exp-sent","molho","","",""
"","741","html-keyboard-response","114","257992","0.0-3.0-1.81","<span style=""font-size:30px; font-family: monospace"">picante</span>"," ","","exp-sent","picante","","",""
"","549","html-keyboard-response","115","258792","0.0-3.0-1.82","<span style=""font-size:30px; font-family: monospace"">nas</span>"," ","","exp-sent","nas","","",""
"","709","html-keyboard-response","116","259752","0.0-3.0-1.83","<span style=""font-size:30px; font-family: monospace"">batatas.</span>"," ","","exp-sent","batatas.","","",""
"","null","html-keyboard-response","117","261003","0.0-3.0-0.84-0.84","<span style= ""font-size:30px; font-family: monospace"">+</span>","null","fixation","","","","",""
"","193","html-keyboard-response","118","261448","0.0-3.0-1.84","<span style=""font-size:30px; font-family: monospace"">As</span>"," ","","exp-sent","As","","",""
"","852","html-keyboard-response","119","262551","0.0-3.0-1.85","<span style=""font-size:30px; font-family: monospace"">pessoas</span>"," ","","exp-sent","pessoas","","",""
"","741","html-keyboard-response","120","263543","0.0-3.0-1.86","<span style=""font-size:30px; font-family: monospace"">têm</span>"," ","","exp-sent","têm","","",""
"","725","html-keyboard-response","121","264520","0.0-3.0-1.87","<span style=""font-size:30px; font-family: monospace"">sua</span>"," ","","exp-sent","sua","","",""
"","1204","html-keyboard-response","122","265976","0.0-3.0-1.88","<span style=""font-size:30px; font-family: monospace"">liberdade</span>"," ","","exp-sent","liberdade","","",""
"","900","html-keyboard-response","123","267127","0.0-3.0-1.89","<span style=""font-size:30px; font-family: monospace"">até</span>"," ","","exp-sent","até","","",""
"","725","html-keyboard-response","124","268103","0.0-3.0-1.90","<span style=""font-size:30px; font-family: monospace"">certo</span>"," ","","exp-sent","certo","","",""
"","645","html-keyboard-response","125","269000","0.0-3.0-1.91","<span style=""font-size:30px; font-family: monospace"">ponto.</span>"," ","","exp-sent","ponto.","","",""
"","null","html-keyboard-response","126","270251","0.0-3.0-0.92-0.92","<span style= ""font-size:30px; font-family: monospace"">+</span>","null","fixation","","","","",""
"","562","html-keyboard-response","127","271064","0.0-3.0-1.92","<span style=""font-size:30px; font-family: monospace"">A</span>"," ","","exp-sent","A","","",""
"","853","html-keyboard-response","128","272167","0.0-3.0-1.93","<span style=""font-size:30px; font-family: monospace"">empresa</span>"," ","","exp-sent","empresa","","",""
"","853","html-keyboard-response","129","273272","0.0-3.0-1.94","<span style=""font-size:30px; font-family: monospace"">enviou</span>"," ","","exp-sent","enviou","","",""
"","709","html-keyboard-response","130","274231","0.0-3.0-1.95","<span style=""font-size:30px; font-family: monospace"">o</span>"," ","","exp-sent","o","","",""
"","918","html-keyboard-response","131","275400","0.0-3.0-1.96","<span style=""font-size:30px; font-family: monospace"">aviso</span>"," ","","exp-sent","aviso","","",""
"","917","html-keyboard-response","132","276567","0.0-3.0-1.97","<span style=""font-size:30px; font-family: monospace"">hoje</span>"," ","","exp-sent","hoje","","",""
"","687","html-keyboard-response","133","277512","0.0-3.0-1.98","<span style=""font-size:30px; font-family: monospace"">de</span>"," ","","exp-sent","de","","",""
"","1125","html-keyboard-response","134","278887","0.0-3.0-1.99","<span style=""font-size:30px; font-family: monospace"">tarde.</span>"," ","","exp-sent","tarde.","","",""
"","null","html-keyboard-response","135","280139","0.0-3.0-0.100-0.100","<span style= ""font-size:30px; font-family: monospace"">+</span>","null","fixation","","","","",""
"","690","html-keyboard-response","136","281080","0.0-3.0-1.100","<span style=""font-size:30px; font-family: monospace"">A</span>"," ","","exp-sent","A","","",""
"","757","html-keyboard-response","137","282087","0.0-3.0-1.101","<span style=""font-size:30px; font-family: monospace"">loja</span>"," ","","exp-sent","loja","","",""
"","789","html-keyboard-response","138","283127","0.0-3.0-1.102","<span style=""font-size:30px; font-family: monospace"">vende</span>"," ","","exp-sent","vende","","",""
"","757","html-keyboard-response","139","284136","0.0-3.0-1.103","<span style=""font-size:30px; font-family: monospace"">tanto</span>"," ","","exp-sent","tanto","","",""
"","772","html-keyboard-response","140","285159","0.0-3.0-1.104","<span style=""font-size:30px; font-family: monospace"">frituras</span>"," ","","exp-sent","frituras","","",""
"","1893","html-keyboard-response","141","287304","0.0-3.0-1.105","<span style=""font-size:30px; font-family: monospace"">quanto</span>"," ","","exp-sent","quanto","","",""
"","1173","html-keyboard-response","142","288727","0.0-3.0-1.106","<span style=""font-size:30px; font-family: monospace"">comidas</span>"," ","","exp-sent","comidas","","",""
"","869","html-keyboard-response","143","289847","0.0-3.0-1.107","<span style=""font-size:30px; font-family: monospace"">leves.</span>"," ","","exp-sent","leves.","","",""
"","null","html-keyboard-response","144","291100","0.0-3.0-0.108-0.108","<span style= ""font-size:30px; font-family: monospace"">+</span>","null","fixation","","","","",""
"","865","html-keyboard-response","145","292216","0.0-3.0-1.108","<span style=""font-size:30px; font-family: monospace"">As</span>"," ","","exp-sent","As","","",""
"","756","html-keyboard-response","146","293223","0.0-3.0-1.109","<span style=""font-size:30px; font-family: monospace"">cadeiras</span>"," ","","exp-sent","cadeiras","","",""
"","805","html-keyboard-response","147","294280","0.0-3.0-1.110","<span style=""font-size:30px; font-family: monospace"">azuis</span>"," ","","exp-sent","azuis","","",""
"","581","html-keyboard-response","148","295112","0.0-3.0-1.111","<span style=""font-size:30px; font-family: monospace"">da</span>"," ","","exp-sent","da","","",""
"","549","html-keyboard-response","149","295911","0.0-3.0-1.112","<span style=""font-size:30px; font-family: monospace"">sala</span>"," ","","exp-sent","sala","","",""
"","597","html-keyboard-response","150","296759","0.0-3.0-1.113","<span style=""font-size:30px; font-family: monospace"">eram</span>"," ","","exp-sent","eram","","",""
"","469","html-keyboard-response","151","297479","0.0-3.0-1.114","<span style=""font-size:30px; font-family: monospace"">da</span>"," ","","exp-sent","da","","",""
"","709","html-keyboard-response","152","298439","0.0-3.0-1.115","<span style=""font-size:30px; font-family: monospace"">minha</span>"," ","","exp-sent","minha","","",""
"","757","html-keyboard-response","153","299447","0.0-3.0-1.116","<span style=""font-size:30px; font-family: monospace"">vó.</span>"," ","","comp","vó.","","",""
"","34053","html-keyboard-response","154","333752","0.0-3.0-2.116-0.116","<span style=""font-size:30px; font-family: monospace"">As cadeiras eram da avó?</span>","n","","comp","","As cadeiras eram da avó?","sim","false"
"","null","html-keyboard-response","155","335254","0.0-3.0-0.117-0.117","<span style= ""font-size:30px; font-family: monospace"">+</span>","null","fixation","","","","",""
"","3238","html-keyboard-response","156","338743","0.0-3.0-1.117","<span style=""font-size:30px; font-family: monospace"">Ganhamos</span>"," ","","exp-sent","Ganhamos","","",""
"","693","html-keyboard-response","157","339687","0.0-3.0-1.118","<span style=""font-size:30px; font-family: monospace"">passagem</span>"," ","","exp-sent","passagem","","",""
"","581","html-keyboard-response","158","340519","0.0-3.0-1.119","<span style=""font-size:30px; font-family: monospace"">para</span>"," ","","exp-sent","para","","",""
"","469","html-keyboard-response","159","341239","0.0-3.0-1.120","<span style=""font-size:30px; font-family: monospace"">uma</span>"," ","","exp-sent","uma","","",""
"","789","html-keyboard-response","160","342280","0.0-3.0-1.121","<span style=""font-size:30px; font-family: monospace"">viagem</span>"," ","","exp-sent","viagem","","",""
"","469","html-keyboard-response","161","342999","0.0-3.0-1.122","<span style=""font-size:30px; font-family: monospace"">de</span>"," ","","exp-sent","de","","",""
"","757","html-keyboard-response","162","344007","0.0-3.0-1.123","<span style=""font-size:30px; font-family: monospace"">férias.</span>"," ","","exp-sent","férias.","","",""
"","null","html-keyboard-response","163","345259","0.0-3.0-0.124-0.124","<span style= ""font-size:30px; font-family: monospace"">+</span>","null","fixation","","","","",""
"","178","html-keyboard-response","164","345687","0.0-3.0-1.124","<span style=""font-size:30px; font-family: monospace"">Caiu</span>"," ","","exp-sent","Caiu","","",""
"","549","html-keyboard-response","165","346487","0.0-3.0-1.125","<span style=""font-size:30px; font-family: monospace"">algo</span>"," ","","exp-sent","algo","","",""
"","453","html-keyboard-response","166","347191","0.0-3.0-1.126","<span style=""font-size:30px; font-family: monospace"">no</span>"," ","","exp-sent","no","","",""
"","565","html-keyboard-response","167","348007","0.0-3.0-1.127","<span style=""font-size:30px; font-family: monospace"">meu</span>"," ","","exp-sent","meu","","",""
"","565","html-keyboard-response","168","348823","0.0-3.0-1.128","<span style=""font-size:30px; font-family: monospace"">olho</span>"," ","","exp-sent","olho","","",""
"","485","html-keyboard-response","169","349559","0.0-3.0-1.129","<span style=""font-size:30px; font-family: monospace"">ontem</span>"," ","","exp-sent","ontem","","",""
"","453","html-keyboard-response","170","350263","0.0-3.0-1.130","<span style=""font-size:30px; font-family: monospace"">de</span>"," ","","exp-sent","de","","",""
"","469","html-keyboard-response","171","350983","0.0-3.0-1.131","<span style=""font-size:30px; font-family: monospace"">tarde.</span>"," ","","exp-sent","tarde.","","",""
"","null","html-keyboard-response","172","352236","0.0-3.0-0.132-0.132","<span style= ""font-size:30px; font-family: monospace"">+</span>","null","fixation","","","","",""
"","224","html-keyboard-response","173","352711","0.0-3.0-1.132","<span style=""font-size:30px; font-family: monospace"">Não</span>"," ","","exp-sent","Não","","",""
"","596","html-keyboard-response","174","353559","0.0-3.0-1.133","<span style=""font-size:30px; font-family: monospace"">havia</span>"," ","","exp-sent","havia","","",""
"","453","html-keyboard-response","175","354264","0.0-3.0-1.134","<span style=""font-size:30px; font-family: monospace"">mais</span>"," ","","exp-sent","mais","","",""
"","517","html-keyboard-response","176","355031","0.0-3.0-1.135","<span style=""font-size:30px; font-family: monospace"">nenhum</span>"," ","","exp-sent","nenhum","","",""
"","853","html-keyboard-response","177","356135","0.0-3.0-1.136","<span style=""font-size:30px; font-family: monospace"">ingresso</span>"," ","","exp-sent","ingresso","","",""
"","469","html-keyboard-response","178","356855","0.0-3.0-1.137","<span style=""font-size:30px; font-family: monospace"">para</span>"," ","","exp-sent","para","","",""
"","437","html-keyboard-response","179","357543","0.0-3.0-1.138","<span style=""font-size:30px; font-family: monospace"">o</span>"," ","","exp-sent","o","","",""
"","1013","html-keyboard-response","180","358807","0.0-3.0-1.139","<span style=""font-size:30px; font-family: monospace"">evento.</span>"," ","","exp-sent","evento.","","",""
"","null","html-keyboard-response","181","360060","0.0-3.0-0.140-0.140","<span style= ""font-size:30px; font-family: monospace"">+</span>","null","fixation","","","","",""
"","192","html-keyboard-response","182","360503","0.0-3.0-1.140","<span style=""font-size:30px; font-family: monospace"">A</span>"," ","","exp-sent","A","","",""
"","885","html-keyboard-response","183","361639","0.0-3.0-1.141","<span style=""font-size:30px; font-family: monospace"">médica</span>"," ","","exp-sent","médica","","",""
"","1013","html-keyboard-response","184","362903","0.0-3.0-1.142","<span style=""font-size:30px; font-family: monospace"">descobriu</span>"," ","","exp-sent","descobriu","","",""
"","549","html-keyboard-response","185","363703","0.0-3.0-1.143","<span style=""font-size:30px; font-family: monospace"">uma</span>"," ","","exp-sent","uma","","",""
"","517","html-keyboard-response","186","364471","0.0-3.0-1.144","<span style=""font-size:30px; font-family: monospace"">cura</span>"," ","","exp-sent","cura","","",""
"","501","html-keyboard-response","187","365223","0.0-3.0-1.145","<span style=""font-size:30px; font-family: monospace"">para</span>"," ","","exp-sent","para","","",""
"","453","html-keyboard-response","188","365927","0.0-3.0-1.146","<span style=""font-size:30px; font-family: monospace"">a</span>"," ","","exp-sent","a","","",""
"","902","html-keyboard-response","189","367079","0.0-3.0-1.147","<span style=""font-size:30px; font-family: monospace"">doença.</span>"," ","","exp-sent","doença.","","",""
"","null","html-keyboard-response","190","368331","0.0-3.0-0.148-0.148","<span style= ""font-size:30px; font-family: monospace"">+</span>","null","fixation","","","","",""
"","642","html-keyboard-response","191","369224","0.0-3.0-1.148","<span style=""font-size:30px; font-family: monospace"">O</span>"," ","","exp-sent","O","","",""
"","964","html-keyboard-response","192","370439","0.0-3.0-1.149","<span style=""font-size:30px; font-family: monospace"">menino</span>"," ","","exp-sent","menino","","",""
"","725","html-keyboard-response","193","371415","0.0-3.0-1.150","<span style=""font-size:30px; font-family: monospace"">riscou</span>"," ","","exp-sent","riscou","","",""
"","452","html-keyboard-response","194","372119","0.0-3.0-1.151","<span style=""font-size:30px; font-family: monospace"">o</span>"," ","","exp-sent","o","","",""
"","693","html-keyboard-response","195","373063","0.0-3.0-1.152","<span style=""font-size:30px; font-family: monospace"">caderno</span>"," ","","exp-sent","caderno","","",""
"","501","html-keyboard-response","196","373815","0.0-3.0-1.153","<span style=""font-size:30px; font-family: monospace"">com</span>"," ","","exp-sent","com","","",""
"","501","html-keyboard-response","197","374568","0.0-3.0-1.154","<span style=""font-size:30px; font-family: monospace"">a</span>"," ","","exp-sent","a","","",""
"","821","html-keyboard-response","198","375639","0.0-3.0-1.155","<span style=""font-size:30px; font-family: monospace"">caneta.</span>"," ","","comp","caneta.","","",""
"","6834","html-keyboard-response","199","382727","0.0-3.0-2.155-0.155","<span style=""font-size:30px; font-family: monospace"">O menino riscou a parede com a caneta?</span>","s","","comp","","O menino riscou a parede com a caneta?","não","false"
"","null","html-keyboard-response","200","384229","0.0-3.0-0.156-0.156","<span style= ""font-size:30px; font-family: monospace"">+</span>","null","fixation","","","","",""
"","536","html-keyboard-response","201","385016","0.0-3.0-1.156","<span style=""font-size:30px; font-family: monospace"">Ele</span>"," ","","exp-sent","Ele","","",""
"","772","html-keyboard-response","202","386039","0.0-3.0-1.157","<span style=""font-size:30px; font-family: monospace"">é</span>"," ","","exp-sent","é","","",""
"","565","html-keyboard-response","203","386855","0.0-3.0-1.158","<span style=""font-size:30px; font-family: monospace"">um</span>"," ","","exp-sent","um","","",""
"","1044","html-keyboard-response","204","388151","0.0-3.0-1.159","<span style=""font-size:30px; font-family: monospace"">pai</span>"," ","","exp-sent","pai","","",""
"","1285","html-keyboard-response","205","389687","0.0-3.0-1.160","<span style=""font-size:30px; font-family: monospace"">ausente</span>"," ","","exp-sent","ausente","","",""
"","597","html-keyboard-response","206","390535","0.0-3.0-1.161","<span style=""font-size:30px; font-family: monospace"">e</span>"," ","","exp-sent","e","","",""
"","804","html-keyboard-response","207","391591","0.0-3.0-1.162","<span style=""font-size:30px; font-family: monospace"">muito</span>"," ","","exp-sent","muito","","",""
"","1220","html-keyboard-response","208","393064","0.0-3.0-1.163","<span style=""font-size:30px; font-family: monospace"">fofoqueiro.</span>"," ","","exp-sent","fofoqueiro.","","",""
"","null","html-keyboard-response","209","394315","0.0-3.0-0.164-0.164","<span style= ""font-size:30px; font-family: monospace"">+</span>","null","fixation","","","","",""
"","513","html-keyboard-response","210","395080","0.0-3.0-1.164","<span style=""font-size:30px; font-family: monospace"">O</span>"," ","","exp-sent","O","","",""
"","725","html-keyboard-response","211","396055","0.0-3.0-1.165","<span style=""font-size:30px; font-family: monospace"">filho</span>"," ","","exp-sent","filho","","",""
"","756","html-keyboard-response","212","397063","0.0-3.0-1.166","<span style=""font-size:30px; font-family: monospace"">lavou</span>"," ","","exp-sent","lavou","","",""
"","837","html-keyboard-response","213","398151","0.0-3.0-1.167","<span style=""font-size:30px; font-family: monospace"">a</span>"," ","","exp-sent","a","","",""
"","917","html-keyboard-response","214","399319","0.0-3.0-1.168","<span style=""font-size:30px; font-family: monospace"">roupa</span>"," ","","exp-sent","roupa","","",""
"","1125","html-keyboard-response","215","400695","0.0-3.0-1.169","<span style=""font-size:30px; font-family: monospace"">sem</span>"," ","","exp-sent","sem","","",""
"","1318","html-keyboard-response","216","402263","0.0-3.0-1.170","<span style=""font-size:30px; font-family: monospace"">nenhuma</span>"," ","","exp-sent","nenhuma","","",""
"","933","html-keyboard-response","217","403447","0.0-3.0-1.171","<span style=""font-size:30px; font-family: monospace"">ajuda.</span>"," ","","exp-sent","ajuda.","","",""
"","null","html-keyboard-response","218","404699","0.0-3.0-0.172-0.172","<span style= ""font-size:30px; font-family: monospace"">+</span>","null","fixation","","","","",""
"","225","html-keyboard-response","219","405176","0.0-3.0-1.172","<span style=""font-size:30px; font-family: monospace"">O</span>"," ","","exp-sent","O","","",""
"","692","html-keyboard-response","220","406119","0.0-3.0-1.173","<span style=""font-size:30px; font-family: monospace"">menino</span>"," ","","exp-sent","menino","","",""
"","613","html-keyboard-response","221","406983","0.0-3.0-1.174","<span style=""font-size:30px; font-family: monospace"">quebrou</span>"," ","","exp-sent","quebrou","","",""
"","581","html-keyboard-response","222","407815","0.0-3.0-1.175","<span style=""font-size:30px; font-family: monospace"">a</span>"," ","","exp-sent","a","","",""
"","1237","html-keyboard-response","223","409303","0.0-3.0-1.176","<span style=""font-size:30px; font-family: monospace"">perna</span>"," ","","exp-sent","perna","","",""
"","661","html-keyboard-response","224","410215","0.0-3.0-1.177","<span style=""font-size:30px; font-family: monospace"">nos</span>"," ","","exp-sent","nos","","",""
"","821","html-keyboard-response","225","411287","0.0-3.0-1.178","<span style=""font-size:30px; font-family: monospace"">esportes.</span>"," ","","exp-sent","esportes.","","",""
"","null","html-keyboard-response","226","412539","0.0-3.0-0.179-0.179","<span style= ""font-size:30px; font-family: monospace"">+</span>","null","fixation","","","","",""
"","770","html-keyboard-response","227","413559","0.0-3.0-1.179","<span style=""font-size:30px; font-family: monospace"">Ela</span>"," ","","exp-sent","Ela","","",""
"","852","html-keyboard-response","228","414663","0.0-3.0-1.180","<span style=""font-size:30px; font-family: monospace"">brincou</span>"," ","","exp-sent","brincou","","",""
"","597","html-keyboard-response","229","415511","0.0-3.0-1.181","<span style=""font-size:30px; font-family: monospace"">com</span>"," ","","exp-sent","com","","",""
"","598","html-keyboard-response","230","416359","0.0-3.0-1.182","<span style=""font-size:30px; font-family: monospace"">uma</span>"," ","","exp-sent","uma","","",""
"","725","html-keyboard-response","231","417335","0.0-3.0-1.183","<span style=""font-size:30px; font-family: monospace"">menina</span>"," ","","exp-sent","menina","","",""
"","581","html-keyboard-response","232","418167","0.0-3.0-1.184","<span style=""font-size:30px; font-family: monospace"">da</span>"," ","","exp-sent","da","","",""
"","692","html-keyboard-response","233","419111","0.0-3.0-1.185","<span style=""font-size:30px; font-family: monospace"">turma.</span>"," ","","exp-sent","turma.","","",""
"","null","html-keyboard-response","234","420363","0.0-3.0-0.186-0.186","<span style= ""font-size:30px; font-family: monospace"">+</span>","null","fixation","","","","",""
"","210","html-keyboard-response","235","420823","0.0-3.0-1.186","<span style=""font-size:30px; font-family: monospace"">Ele</span>"," ","","exp-sent","Ele","","",""
"","1092","html-keyboard-response","236","422167","0.0-3.0-1.187","<span style=""font-size:30px; font-family: monospace"">esteve</span>"," ","","exp-sent","esteve","","",""
"","533","html-keyboard-response","237","422951","0.0-3.0-1.188","<span style=""font-size:30px; font-family: monospace"">no</span>"," ","","exp-sent","no","","",""
"","853","html-keyboard-response","238","424055","0.0-3.0-1.189","<span style=""font-size:30px; font-family: monospace"">escritório</span>"," ","","exp-sent","escritório","","",""
"","596","html-keyboard-response","239","424903","0.0-3.0-1.190","<span style=""font-size:30px; font-family: monospace"">o</span>"," ","","exp-sent","o","","",""
"","820","html-keyboard-response","240","425975","0.0-3.0-1.191","<span style=""font-size:30px; font-family: monospace"">dia</span>"," ","","exp-sent","dia","","",""
"","676","html-keyboard-response","241","426903","0.0-3.0-1.192","<span style=""font-size:30px; font-family: monospace"">inteiro.</span>"," ","","comp","inteiro.","","",""
"","13765","html-keyboard-response","242","440919","0.0-3.0-2.192-0.192","<span style=""font-size:30px; font-family: monospace"">Ele esteve no parque o dia inteiro?</span>","s","","comp","","Ele esteve no parque o dia inteiro?","não","false"
"","null","html-keyboard-response","243","442422","0.0-3.0-0.193-0.193","<span style= ""font-size:30px; font-family: monospace"">+</span>","null","fixation","","","","",""
"","2151","html-keyboard-response","244","444823","0.0-3.0-1.193","<span style=""font-size:30px; font-family: monospace"">As</span>"," ","","exp-sent","As","","",""
"","869","html-keyboard-response","245","445943","0.0-3.0-1.194","<span style=""font-size:30px; font-family: monospace"">crianças</span>"," ","","exp-sent","crianças","","",""
"","822","html-keyboard-response","246","447015","0.0-3.0-1.195","<span style=""font-size:30px; font-family: monospace"">viram</span>"," ","","exp-sent","viram","","",""
"","564","html-keyboard-response","247","447831","0.0-3.0-1.196","<span style=""font-size:30px; font-family: monospace"">um</span>"," ","","exp-sent","um","","",""
"","901","html-keyboard-response","248","448983","0.0-3.0-1.197","<span style=""font-size:30px; font-family: monospace"">vaga-lume</span>"," ","","exp-sent","vaga-lume","","",""
"","645","html-keyboard-response","249","449879","0.0-3.0-1.198","<span style=""font-size:30px; font-family: monospace"">nos</span>"," ","","exp-sent","nos","","",""
"","757","html-keyboard-response","250","450887","0.0-3.0-1.199","<span style=""font-size:30px; font-family: monospace"">arbustos.</span>"," ","","exp-sent","arbustos.","","",""
"","null","html-keyboard-response","251","452139","0.0-3.0-0.200-0.200","<span style= ""font-size:30px; font-family: monospace"">+</span>","null","fixation","","","","",""
"","801","html-keyboard-response","252","453191","0.0-3.0-1.200","<span style=""font-size:30px; font-family: monospace"">Ontem</span>"," ","","exp-sent","Ontem","","",""
"","725","html-keyboard-response","253","454167","0.0-3.0-1.201","<span style=""font-size:30px; font-family: monospace"">o</span>"," ","","exp-sent","o","","",""
"","1045","html-keyboard-response","254","455463","0.0-3.0-1.202","<span style=""font-size:30px; font-family: monospace"">funcionário</span>"," ","","exp-sent","funcionário","","",""
"","933","html-keyboard-response","255","456647","0.0-3.0-1.203","<span style=""font-size:30px; font-family: monospace"">pediu</span>"," ","","exp-sent","pediu","","",""
"","917","html-keyboard-response","256","457815","0.0-3.0-1.204","<span style=""font-size:30px; font-family: monospace"">autorização</span>"," ","","exp-sent","autorização","","",""
"","708","html-keyboard-response","257","458775","0.0-3.0-1.205","<span style=""font-size:30px; font-family: monospace"">para</span>"," ","","exp-sent","para","","",""
"","597","html-keyboard-response","258","459623","0.0-3.0-1.206","<span style=""font-size:30px; font-family: monospace"">a</span>"," ","","exp-sent","a","","",""
"","740","html-keyboard-response","259","460615","0.0-3.0-1.207","<span style=""font-size:30px; font-family: monospace"">colega.</span>"," ","","exp-sent","colega.","","",""
"","null","html-keyboard-response","260","461868","0.0-3.0-0.208-0.208","<span style= ""font-size:30px; font-family: monospace"">+</span>","null","fixation","","","","",""
"","1057","html-keyboard-response","261","463175","0.0-3.0-1.208","<span style=""font-size:30px; font-family: monospace"">Eu</span>"," ","","exp-sent","Eu","","",""
"","964","html-keyboard-response","262","464391","0.0-3.0-1.209","<span style=""font-size:30px; font-family: monospace"">sempre</span>"," ","","exp-sent","sempre","","",""
"","1285","html-keyboard-response","263","465927","0.0-3.0-1.210","<span style=""font-size:30px; font-family: monospace"">fujo</span>"," ","","exp-sent","fujo","","",""
"","597","html-keyboard-response","264","466775","0.0-3.0-1.211","<span style=""font-size:30px; font-family: monospace"">de</span>"," ","","exp-sent","de","","",""
"","821","html-keyboard-response","265","467847","0.0-3.0-1.212","<span style=""font-size:30px; font-family: monospace"">conflito</span>"," ","","exp-sent","conflito","","",""
"","949","html-keyboard-response","266","469047","0.0-3.0-1.213","<span style=""font-size:30px; font-family: monospace"">com</span>"," ","","exp-sent","com","","",""
"","757","html-keyboard-response","267","470055","0.0-3.0-1.214","<span style=""font-size:30px; font-family: monospace"">as</span>"," ","","exp-sent","as","","",""
"","681","html-keyboard-response","268","470999","0.0-3.0-1.215","<span style=""font-size:30px; font-family: monospace"">pessoas.</span>"," ","","exp-sent","pessoas.","","",""
"","null","html-keyboard-response","269","472252","0.0-3.0-0.216-0.216","<span style= ""font-size:30px; font-family: monospace"">+</span>","null","fixation","","","","",""
"","753","html-keyboard-response","270","473255","0.0-3.0-1.216","<span style=""font-size:30px; font-family: monospace"">O</span>"," ","","exp-sent","O","","",""
"","948","html-keyboard-response","271","474455","0.0-3.0-1.217","<span style=""font-size:30px; font-family: monospace"">bolo</span>"," ","","exp-sent","bolo","","",""
"","868","html-keyboard-response","272","475575","0.0-3.0-1.218","<span style=""font-size:30px; font-family: monospace"">era</span>"," ","","exp-sent","era","","",""
"","629","html-keyboard-response","273","476455","0.0-3.0-1.219","<span style=""font-size:30px; font-family: monospace"">de</span>"," ","","exp-sent","de","","",""
"","948","html-keyboard-response","274","477655","0.0-3.0-1.220","<span style=""font-size:30px; font-family: monospace"">abacaxi</span>"," ","","exp-sent","abacaxi","","",""
"","500","html-keyboard-response","275","478407","0.0-3.0-1.221","<span style=""font-size:30px; font-family: monospace"">e</span>"," ","","exp-sent","e","","",""
"","949","html-keyboard-response","276","479607","0.0-3.0-1.222","<span style=""font-size:30px; font-family: monospace"">creme</span>"," ","","exp-sent","creme","","",""
"","533","html-keyboard-response","277","480391","0.0-3.0-1.223","<span style=""font-size:30px; font-family: monospace"">de</span>"," ","","exp-sent","de","","",""
"","549","html-keyboard-response","278","481191","0.0-3.0-1.224","<span style=""font-size:30px; font-family: monospace"">coco.</span>"," ","","exp-sent","coco.","","",""
"","null","html-keyboard-response","279","482443","0.0-3.0-0.225-0.225","<span style= ""font-size:30px; font-family: monospace"">+</span>","null","fixation","","","","",""
"","273","html-keyboard-response","280","482967","0.0-3.0-1.225","<span style=""font-size:30px; font-family: monospace"">As</span>"," ","","exp-sent","As","","",""
"","885","html-keyboard-response","281","484104","0.0-3.0-1.226","<span style=""font-size:30px; font-family: monospace"">crianças</span>"," ","","exp-sent","crianças","","",""
"","1029","html-keyboard-response","282","485383","0.0-3.0-1.227","<span style=""font-size:30px; font-family: monospace"">brincaram</span>"," ","","exp-sent","brincaram","","",""
"","677","html-keyboard-response","283","486311","0.0-3.0-1.228","<span style=""font-size:30px; font-family: monospace"">com</span>"," ","","exp-sent","com","","",""
"","836","html-keyboard-response","284","487399","0.0-3.0-1.229","<span style=""font-size:30px; font-family: monospace"">bolhas</span>"," ","","exp-sent","bolhas","","",""
"","581","html-keyboard-response","285","488231","0.0-3.0-1.230","<span style=""font-size:30px; font-family: monospace"">no</span>"," ","","exp-sent","no","","",""
"","804","html-keyboard-response","286","489287","0.0-3.0-1.231","<span style=""font-size:30px; font-family: monospace"">banho.</span>"," ","","comp","banho.","","",""
"","10213","html-keyboard-response","287","499751","0.0-3.0-2.231-0.231","<span style=""font-size:30px; font-family: monospace"">As crianças brincaram com bolhas?</span>","s","","comp","","As crianças brincaram com bolhas?","sim","false"
"","null","html-keyboard-response","288","501254","0.0-3.0-0.232-0.232","<span style= ""font-size:30px; font-family: monospace"">+</span>","null","fixation","","","","",""
"","151","html-keyboard-response","289","501655","0.0-3.0-1.232","<span style=""font-size:30px; font-family: monospace"">Preciso</span>"," ","","exp-sent","Preciso","","",""
"","484","html-keyboard-response","290","502391","0.0-3.0-1.233","<span style=""font-size:30px; font-family: monospace"">de</span>"," ","","exp-sent","de","","",""
"","421","html-keyboard-response","291","503063","0.0-3.0-1.234","<span style=""font-size:30px; font-family: monospace"">um</span>"," ","","exp-sent","um","","",""
"","709","html-keyboard-response","292","504023","0.0-3.0-1.235","<span style=""font-size:30px; font-family: monospace"">relatório</span>"," ","","exp-sent","relatório","","",""
"","629","html-keyboard-response","293","504903","0.0-3.0-1.236","<span style=""font-size:30px; font-family: monospace"">oficial</span>"," ","","exp-sent","oficial","","",""
"","533","html-keyboard-response","294","505687","0.0-3.0-1.237","<span style=""font-size:30px; font-family: monospace"">para</span>"," ","","exp-sent","para","","",""
"","645","html-keyboard-response","295","506583","0.0-3.0-1.238","<span style=""font-size:30px; font-family: monospace"">amanhã.</span>"," ","","exp-sent","amanhã.","","",""
"","null","html-keyboard-response","296","507835","0.0-3.0-0.239-0.239","<span style= ""font-size:30px; font-family: monospace"">+</span>","null","fixation","","","","",""
"","209","html-keyboard-response","297","508296","0.0-3.0-1.239","<span style=""font-size:30px; font-family: monospace"">Ele</span>"," ","","exp-sent","Ele","","",""
"","709","html-keyboard-response","298","509255","0.0-3.0-1.240","<span style=""font-size:30px; font-family: monospace"">viu</span>"," ","","exp-sent","viu","","",""
"","453","html-keyboard-response","299","509960","0.0-3.0-1.241","<span style=""font-size:30px; font-family: monospace"">um</span>"," ","","exp-sent","um","","",""
"","933","html-keyboard-response","300","511143","0.0-3.0-1.242","<span style=""font-size:30px; font-family: monospace"">inseto</span>"," ","","exp-sent","inseto","","",""
"","645","html-keyboard-response","301","512039","0.0-3.0-1.243","<span style=""font-size:30px; font-family: monospace"">marrom</span>"," ","","exp-sent","marrom","","",""
"","565","html-keyboard-response","302","512855","0.0-3.0-1.244","<span style=""font-size:30px; font-family: monospace"">na</span>"," ","","exp-sent","na","","",""
"","788","html-keyboard-response","303","513895","0.0-3.0-1.245","<span style=""font-size:30px; font-family: monospace"">parede.</span>"," ","","exp-sent","parede.","","",""
"","null","html-keyboard-response","304","515147","0.0-3.0-0.246-0.246","<span style= ""font-size:30px; font-family: monospace"">+</span>","null","fixation","","","","",""
"","528","html-keyboard-response","305","515927","0.0-3.0-1.246","<span style=""font-size:30px; font-family: monospace"">O</span>"," ","","exp-sent","O","","",""
"","565","html-keyboard-response","306","516743","0.0-3.0-1.247","<span style=""font-size:30px; font-family: monospace"">avô</span>"," ","","exp-sent","avô","","",""
"","549","html-keyboard-response","307","517543","0.0-3.0-1.248","<span style=""font-size:30px; font-family: monospace"">fez</span>"," ","","exp-sent","fez","","",""
"","453","html-keyboard-response","308","518247","0.0-3.0-1.249","<span style=""font-size:30px; font-family: monospace"">uma</span>"," ","","exp-sent","uma","","",""
"","501","html-keyboard-response","309","518999","0.0-3.0-1.250","<span style=""font-size:30px; font-family: monospace"">lista</span>"," ","","exp-sent","lista","","",""
"","421","html-keyboard-response","310","519671","0.0-3.0-1.251","<span style=""font-size:30px; font-family: monospace"">de</span>"," ","","exp-sent","de","","",""
"","565","html-keyboard-response","311","520487","0.0-3.0-1.252","<span style=""font-size:30px; font-family: monospace"">compras</span>"," ","","exp-sent","compras","","",""
"","549","html-keyboard-response","312","521287","0.0-3.0-1.253","<span style=""font-size:30px; font-family: monospace"">do</span>"," ","","exp-sent","do","","",""
"","725","html-keyboard-response","313","522263","0.0-3.0-1.254","<span style=""font-size:30px; font-family: monospace"">mercado.</span>"," ","","exp-sent","mercado.","","",""
"","null","html-keyboard-response","314","523516","0.0-3.0-0.255-0.255","<span style= ""font-size:30px; font-family: monospace"">+</span>","null","fixation","","","","",""
"","176","html-keyboard-response","315","523943","0.0-3.0-1.255","<span style=""font-size:30px; font-family: monospace"">As</span>"," ","","exp-sent","As","","",""
"","757","html-keyboard-response","316","524951","0.0-3.0-1.256","<span style=""font-size:30px; font-family: monospace"">pessoas</span>"," ","","exp-sent","pessoas","","",""
"","901","html-keyboard-response","317","526103","0.0-3.0-1.257","<span style=""font-size:30px; font-family: monospace"">não</span>"," ","","exp-sent","não","","",""
"","757","html-keyboard-response","318","527111","0.0-3.0-1.258","<span style=""font-size:30px; font-family: monospace"">enviam</span>"," ","","exp-sent","enviam","","",""
"","885","html-keyboard-response","319","528247","0.0-3.0-1.259","<span style=""font-size:30px; font-family: monospace"">telegrama</span>"," ","","exp-sent","telegrama","","",""
"","613","html-keyboard-response","320","529111","0.0-3.0-1.260","<span style=""font-size:30px; font-family: monospace"">nos</span>"," ","","exp-sent","nos","","",""
"","869","html-keyboard-response","321","530231","0.0-3.0-1.261","<span style=""font-size:30px; font-family: monospace"">dias</span>"," ","","exp-sent","dias","","",""
"","597","html-keyboard-response","322","531079","0.0-3.0-1.262","<span style=""font-size:30px; font-family: monospace"">de</span>"," ","","exp-sent","de","","",""
"","1413","html-keyboard-response","323","532743","0.0-3.0-1.263","<span style=""font-size:30px; font-family: monospace"">hoje.</span>"," ","","exp-sent","hoje.","","",""
"","null","html-keyboard-response","324","533994","0.0-3.0-0.264-0.264","<span style= ""font-size:30px; font-family: monospace"">+</span>","null","fixation","","","","",""
"","210","html-keyboard-response","325","534455","0.0-3.0-1.264","<span style=""font-size:30px; font-family: monospace"">Ele</span>"," ","","exp-sent","Ele","","",""
"","932","html-keyboard-response","326","535639","0.0-3.0-1.265","<span style=""font-size:30px; font-family: monospace"">não</span>"," ","","exp-sent","não","","",""
"","916","html-keyboard-response","327","536807","0.0-3.0-1.266","<span style=""font-size:30px; font-family: monospace"">gosta</span>"," ","","exp-sent","gosta","","",""
"","692","html-keyboard-response","328","537751","0.0-3.0-1.267","<span style=""font-size:30px; font-family: monospace"">de</span>"," ","","exp-sent","de","","",""
"","805","html-keyboard-response","329","538807","0.0-3.0-1.268","<span style=""font-size:30px; font-family: monospace"">tomate</span>"," ","","exp-sent","tomate","","",""
"","965","html-keyboard-response","330","540023","0.0-3.0-1.269","<span style=""font-size:30px; font-family: monospace"">misturado</span>"," ","","exp-sent","misturado","","",""
"","612","html-keyboard-response","331","540887","0.0-3.0-1.270","<span style=""font-size:30px; font-family: monospace"">na</span>"," ","","exp-sent","na","","",""
"","629","html-keyboard-response","332","541767","0.0-3.0-1.271","<span style=""font-size:30px; font-family: monospace"">comida.</span>"," ","","comp","comida.","","",""
"","16325","html-keyboard-response","333","558343","0.0-3.0-2.271-0.271","<span style=""font-size:30px; font-family: monospace"">Ele gosta de tomate na comida?</span>","s","","comp","","Ele gosta de tomate na comida?","não","false"
"","null","html-keyboard-response","334","559844","0.0-3.0-0.272-0.272","<span style= ""font-size:30px; font-family: monospace"">+</span>","null","fixation","","","","",""
"","600","html-keyboard-response","335","560695","0.0-3.0-1.272","<span style=""font-size:30px; font-family: monospace"">O</span>"," ","","exp-sent","O","","",""
"","869","html-keyboard-response","336","561815","0.0-3.0-1.273","<span style=""font-size:30px; font-family: monospace"">travesseiro</span>"," ","","exp-sent","travesseiro","","",""
"","500","html-keyboard-response","337","562567","0.0-3.0-1.274","<span style=""font-size:30px; font-family: monospace"">era</span>"," ","","exp-sent","era","","",""
"","453","html-keyboard-response","338","563271","0.0-3.0-1.275","<span style=""font-size:30px; font-family: monospace"">muito</span>"," ","","exp-sent","muito","","",""
"","597","html-keyboard-response","339","564119","0.0-3.0-1.276","<span style=""font-size:30px; font-family: monospace"">macio</span>"," ","","exp-sent","macio","","",""
"","389","html-keyboard-response","340","564759","0.0-3.0-1.277","<span style=""font-size:30px; font-family: monospace"">e</span>"," ","","exp-sent","e","","",""
"","885","html-keyboard-response","341","565895","0.0-3.0-1.278","<span style=""font-size:30px; font-family: monospace"">confortável.</span>"," ","","exp-sent","confortável.","","",""
"","null","html-keyboard-response","342","567148","0.0-3.0-0.279-0.279","<span style= ""font-size:30px; font-family: monospace"">+</span>","null","fixation","","","","",""
"","657","html-keyboard-response","343","568055","0.0-3.0-1.279","<span style=""font-size:30px; font-family: monospace"">Hoje</span>"," ","","exp-sent","Hoje","","",""
"","516","html-keyboard-response","344","568823","0.0-3.0-1.280","<span style=""font-size:30px; font-family: monospace"">a</span>"," ","","exp-sent","a","","",""
"","724","html-keyboard-response","345","569799","0.0-3.0-1.281","<span style=""font-size:30px; font-family: monospace"">atendente</span>"," ","","exp-sent","atendente","","",""
"","837","html-keyboard-response","346","570887","0.0-3.0-1.282","<span style=""font-size:30px; font-family: monospace"">estava</span>"," ","","exp-sent","estava","","",""
"","741","html-keyboard-response","347","571879","0.0-3.0-1.283","<span style=""font-size:30px; font-family: monospace"">furiosa</span>"," ","","exp-sent","furiosa","","",""
"","677","html-keyboard-response","348","572807","0.0-3.0-1.284","<span style=""font-size:30px; font-family: monospace"">com</span>"," ","","exp-sent","com","","",""
"","485","html-keyboard-response","349","573543","0.0-3.0-1.285","<span style=""font-size:30px; font-family: monospace"">o</span>"," ","","exp-sent","o","","",""
"","645","html-keyboard-response","350","574439","0.0-3.0-1.286","<span style=""font-size:30px; font-family: monospace"">cliente.</span>"," ","","exp-sent","cliente.","","",""
"","null","html-keyboard-response","351","575691","0.0-3.0-0.287-0.287","<span style= ""font-size:30px; font-family: monospace"">+</span>","null","fixation","","","","",""
"","128","html-keyboard-response","352","576071","0.0-3.0-1.287","<span style=""font-size:30px; font-family: monospace"">O</span>"," ","","exp-sent","O","","",""
"","1013","html-keyboard-response","353","577335","0.0-3.0-1.288","<span style=""font-size:30px; font-family: monospace"">vizinho</span>"," ","","exp-sent","vizinho","","",""
"","612","html-keyboard-response","354","578199","0.0-3.0-1.289","<span style=""font-size:30px; font-family: monospace"">é</span>"," ","","exp-sent","é","","",""
"","485","html-keyboard-response","355","578935","0.0-3.0-1.290","<span style=""font-size:30px; font-family: monospace"">um</span>"," ","","exp-sent","um","","",""
"","661","html-keyboard-response","356","579847","0.0-3.0-1.291","<span style=""font-size:30px; font-family: monospace"">arquiteto</span>"," ","","exp-sent","arquiteto","","",""
"","453","html-keyboard-response","357","580551","0.0-3.0-1.292","<span style=""font-size:30px; font-family: monospace"">muito</span>"," ","","exp-sent","muito","","",""
"","852","html-keyboard-response","358","581655","0.0-3.0-1.293","<span style=""font-size:30px; font-family: monospace"">excêntrico.</span>"," ","","exp-sent","excêntrico.","","",""
"","null","html-keyboard-response","359","582908","0.0-3.0-0.294-0.294","<span style= ""font-size:30px; font-family: monospace"">+</span>","null","fixation","","","","",""
"","608","html-keyboard-response","360","583767","0.0-3.0-1.294","<span style=""font-size:30px; font-family: monospace"">A</span>"," ","","exp-sent","A","","",""
"","613","html-keyboard-response","361","584631","0.0-3.0-1.295","<span style=""font-size:30px; font-family: monospace"">nossa</span>"," ","","exp-sent","nossa","","",""
"","541","html-keyboard-response","362","585431","0.0-3.0-1.296","<span style=""font-size:30px; font-family: monospace"">colega</span>"," ","","exp-sent","colega","","",""
"","565","html-keyboard-response","363","586247","0.0-3.0-1.297","<span style=""font-size:30px; font-family: monospace"">foi</span>"," ","","exp-sent","foi","","",""
"","532","html-keyboard-response","364","587031","0.0-3.0-1.298","<span style=""font-size:30px; font-family: monospace"">má</span>"," ","","exp-sent","má","","",""
"","613","html-keyboard-response","365","587895","0.0-3.0-1.299","<span style=""font-size:30px; font-family: monospace"">com</span>"," ","","exp-sent","com","","",""
"","581","html-keyboard-response","366","588727","0.0-3.0-1.300","<span style=""font-size:30px; font-family: monospace"">as</span>"," ","","exp-sent","as","","",""
"","949","html-keyboard-response","367","589927","0.0-3.0-1.301","<span style=""font-size:30px; font-family: monospace"">crianças.</span>"," ","","exp-sent","crianças.","","",""
"","null","html-keyboard-response","368","591180","0.0-3.0-0.302-0.302","<span style= ""font-size:30px; font-family: monospace"">+</span>","null","fixation","","","","",""
"","113","html-keyboard-response","369","591543","0.0-3.0-1.302","<span style=""font-size:30px; font-family: monospace"">Virtudes</span>"," ","","exp-sent","Virtudes","","",""
"","853","html-keyboard-response","370","592647","0.0-3.0-1.303","<span style=""font-size:30px; font-family: monospace"">não</span>"," ","","exp-sent","não","","",""
"","1125","html-keyboard-response","371","594023","0.0-3.0-1.304","<span style=""font-size:30px; font-family: monospace"">são</span>"," ","","exp-sent","são","","",""
"","1285","html-keyboard-response","372","595559","0.0-3.0-1.305","<span style=""font-size:30px; font-family: monospace"">preguiça,</span>"," ","","exp-sent","preguiça,","","",""
"","1270","html-keyboard-response","373","597079","0.0-3.0-1.306","<span style=""font-size:30px; font-family: monospace"">gula</span>"," ","","exp-sent","gula","","",""
"","837","html-keyboard-response","374","598167","0.0-3.0-1.307","<span style=""font-size:30px; font-family: monospace"">nem</span>"," ","","exp-sent","nem","","",""
"","2454","html-keyboard-response","375","600871","0.0-3.0-1.308","<span style=""font-size:30px; font-family: monospace"">ganância.</span>"," ","","comp","ganância.","","",""
"","9348","html-keyboard-response","376","610471","0.0-3.0-2.308-0.308","<span style=""font-size:30px; font-family: monospace"">Preguiça é uma virtude?</span>","s","","comp","","Preguiça é uma virtude?","não","false"
"","null","html-keyboard-response","377","611972","0.0-3.0-0.309-0.309","<span style= ""font-size:30px; font-family: monospace"">+</span>","null","fixation","","","","",""
"","776","html-keyboard-response","378","612999","0.0-3.0-1.309","<span style=""font-size:30px; font-family: monospace"">A</span>"," ","","exp-sent","A","","",""
"","1045","html-keyboard-response","379","614295","0.0-3.0-1.310","<span style=""font-size:30px; font-family: monospace"">força</span>"," ","","exp-sent","força","","",""
"","773","html-keyboard-response","380","615319","0.0-3.0-1.311","<span style=""font-size:30px; font-family: monospace"">d'água</span>"," ","","exp-sent","d'água","","",""
"","757","html-keyboard-response","381","616327","0.0-3.0-1.312","<span style=""font-size:30px; font-family: monospace"">estava</span>"," ","","exp-sent","estava","","",""
"","661","html-keyboard-response","382","617239","0.0-3.0-1.313","<span style=""font-size:30px; font-family: monospace"">normal</span>"," ","","exp-sent","normal","","",""
"","805","html-keyboard-response","383","618295","0.0-3.0-1.314","<span style=""font-size:30px; font-family: monospace"">naquele</span>"," ","","exp-sent","naquele","","",""
"","597","html-keyboard-response","384","619143","0.0-3.0-1.315","<span style=""font-size:30px; font-family: monospace"">dia.</span>"," ","","exp-sent","dia.","","",""
"","null","html-keyboard-response","385","620394","0.0-3.0-0.316-0.316","<span style= ""font-size:30px; font-family: monospace"">+</span>","null","fixation","","","","",""
"","449","html-keyboard-response","386","621095","0.0-3.0-1.316","<span style=""font-size:30px; font-family: monospace"">A</span>"," ","","exp-sent","A","","",""
"","773","html-keyboard-response","387","622119","0.0-3.0-1.317","<span style=""font-size:30px; font-family: monospace"">médica</span>"," ","","exp-sent","médica","","",""
"","1254","html-keyboard-response","388","623623","0.0-3.0-1.318","<span style=""font-size:30px; font-family: monospace"">ofereceu</span>"," ","","exp-sent","ofereceu","","",""
"","630","html-keyboard-response","389","624504","0.0-3.0-1.319","<span style=""font-size:30px; font-family: monospace"">a</span>"," ","","exp-sent","a","","",""
"","997","html-keyboard-response","390","625751","0.0-3.0-1.320","<span style=""font-size:30px; font-family: monospace"">pomada</span>"," ","","exp-sent","pomada","","",""
"","580","html-keyboard-response","391","626583","0.0-3.0-1.321","<span style=""font-size:30px; font-family: monospace"">para</span>"," ","","exp-sent","para","","",""
"","645","html-keyboard-response","392","627479","0.0-3.0-1.322","<span style=""font-size:30px; font-family: monospace"">o</span>"," ","","exp-sent","o","","",""
"","980","html-keyboard-response","393","628711","0.0-3.0-1.323","<span style=""font-size:30px; font-family: monospace"">avô.</span>"," ","","exp-sent","avô.","","",""
"","null","html-keyboard-response","394","629962","0.0-3.0-0.324-0.324","<span style= ""font-size:30px; font-family: monospace"">+</span>","null","fixation","","","","",""
"","626","html-keyboard-response","395","630839","0.0-3.0-1.324","<span style=""font-size:30px; font-family: monospace"">Ele</span>"," ","","exp-sent","Ele","","",""
"","1013","html-keyboard-response","396","632103","0.0-3.0-1.325","<span style=""font-size:30px; font-family: monospace"">conversou</span>"," ","","exp-sent","conversou","","",""
"","724","html-keyboard-response","397","633079","0.0-3.0-1.326","<span style=""font-size:30px; font-family: monospace"">com</span>"," ","","exp-sent","com","","",""
"","741","html-keyboard-response","398","634071","0.0-3.0-1.327","<span style=""font-size:30px; font-family: monospace"">o</span>"," ","","exp-sent","o","","",""
"","820","html-keyboard-response","399","635143","0.0-3.0-1.328","<span style=""font-size:30px; font-family: monospace"">patrão</span>"," ","","exp-sent","patrão","","",""
"","1012","html-keyboard-response","400","636407","0.0-3.0-1.329","<span style=""font-size:30px; font-family: monospace"">durante</span>"," ","","exp-sent","durante","","",""
"","628","html-keyboard-response","401","637287","0.0-3.0-1.330","<span style=""font-size:30px; font-family: monospace"">a</span>"," ","","exp-sent","a","","",""
"","1141","html-keyboard-response","402","638679","0.0-3.0-1.331","<span style=""font-size:30px; font-family: monospace"">tarde.</span>"," ","","exp-sent","tarde.","","",""
"","null","html-keyboard-response","403","639931","0.0-3.0-0.332-0.332","<span style= ""font-size:30px; font-family: monospace"">+</span>","null","fixation","","","","",""
"","881","html-keyboard-response","404","641063","0.0-3.0-1.332","<span style=""font-size:30px; font-family: monospace"">Algumas</span>"," ","","exp-sent","Algumas","","",""
"","981","html-keyboard-response","405","642299","0.0-3.0-1.333","<span style=""font-size:30px; font-family: monospace"">pessoas</span>"," ","","exp-sent","pessoas","","",""
"","996","html-keyboard-response","406","643546","0.0-3.0-1.334","<span style=""font-size:30px; font-family: monospace"">acreditam</span>"," ","","exp-sent","acreditam","","",""
"","677","html-keyboard-response","407","644475","0.0-3.0-1.335","<span style=""font-size:30px; font-family: monospace"">em</span>"," ","","exp-sent","em","","",""
"","996","html-keyboard-response","408","645722","0.0-3.0-1.336","<span style=""font-size:30px; font-family: monospace"">espíritos</span>"," ","","exp-sent","espíritos","","",""
"","757","html-keyboard-response","409","646730","0.0-3.0-1.337","<span style=""font-size:30px; font-family: monospace"">e</span>"," ","","exp-sent","e","","",""
"","597","html-keyboard-response","410","647578","0.0-3.0-1.338","<span style=""font-size:30px; font-family: monospace"">em</span>"," ","","exp-sent","em","","",""
"","948","html-keyboard-response","411","648778","0.0-3.0-1.339","<span style=""font-size:30px; font-family: monospace"">outras</span>"," ","","exp-sent","outras","","",""
"","836","html-keyboard-response","412","649866","0.0-3.0-1.340","<span style=""font-size:30px; font-family: monospace"">vidas.</span>"," ","","exp-sent","vidas.","","",""
"","null","html-keyboard-response","413","651119","0.0-3.0-0.341-0.341","<span style= ""font-size:30px; font-family: monospace"">+</span>","null","fixation","","","","",""
"","608","html-keyboard-response","414","651978","0.0-3.0-1.341","<span style=""font-size:30px; font-family: monospace"">Ela</span>"," ","","exp-sent","Ela","","",""
"","692","html-keyboard-response","415","652922","0.0-3.0-1.342","<span style=""font-size:30px; font-family: monospace"">gosta</span>"," ","","exp-sent","gosta","","",""
"","533","html-keyboard-response","416","653706","0.0-3.0-1.343","<span style=""font-size:30px; font-family: monospace"">de</span>"," ","","exp-sent","de","","",""
"","997","html-keyboard-response","417","654955","0.0-3.0-1.344","<span style=""font-size:30px; font-family: monospace"">estudar</span>"," ","","exp-sent","estudar","","",""
"","997","html-keyboard-response","418","656202","0.0-3.0-1.345","<span style=""font-size:30px; font-family: monospace"">matemática</span>"," ","","exp-sent","matemática","","",""
"","692","html-keyboard-response","419","657146","0.0-3.0-1.346","<span style=""font-size:30px; font-family: monospace"">com</span>"," ","","exp-sent","com","","",""
"","645","html-keyboard-response","420","658042","0.0-3.0-1.347","<span style=""font-size:30px; font-family: monospace"">colegas.</span>"," ","","comp","colegas.","","",""
"","11541","html-keyboard-response","421","669835","0.0-3.0-2.347-0.347","<span style=""font-size:30px; font-family: monospace"">Ela gosta de estudar física?</span>","s","","comp","","Ela gosta de estudar física?","não","false"
"","null","html-keyboard-response","422","671336","0.0-3.0-0.348-0.348","<span style= ""font-size:30px; font-family: monospace"">+</span>","null","fixation","","","","",""
"","1055","html-keyboard-response","423","672650","0.0-3.0-1.348","<span style=""font-size:30px; font-family: monospace"">A</span>"," ","","exp-sent","A","","",""
"","853","html-keyboard-response","424","673754","0.0-3.0-1.349","<span style=""font-size:30px; font-family: monospace"">motorista</span>"," ","","exp-sent","motorista","","",""
"","789","html-keyboard-response","425","674794","0.0-3.0-1.350","<span style=""font-size:30px; font-family: monospace"">fez</span>"," ","","exp-sent","fez","","",""
"","741","html-keyboard-response","426","675786","0.0-3.0-1.351","<span style=""font-size:30px; font-family: monospace"">o</span>"," ","","exp-sent","o","","",""
"","613","html-keyboard-response","427","676651","0.0-3.0-1.352","<span style=""font-size:30px; font-family: monospace"">retorno</span>"," ","","exp-sent","retorno","","",""
"","500","html-keyboard-response","428","677402","0.0-3.0-1.353","<span style=""font-size:30px; font-family: monospace"">com</span>"," ","","exp-sent","com","","",""
"","1701","html-keyboard-response","429","679354","0.0-3.0-1.354","<span style=""font-size:30px; font-family: monospace"">cuidado.</span>"," ","","exp-sent","cuidado.","","",""
"","null","html-keyboard-response","430","680606","0.0-3.0-0.355-0.355","<span style= ""font-size:30px; font-family: monospace"">+</span>","null","fixation","","","","",""
"","1057","html-keyboard-response","431","681914","0.0-3.0-1.355","<span style=""font-size:30px; font-family: monospace"">Contos</span>"," ","","exp-sent","Contos","","",""
"","485","html-keyboard-response","432","682650","0.0-3.0-1.356","<span style=""font-size:30px; font-family: monospace"">de</span>"," ","","exp-sent","de","","",""
"","661","html-keyboard-response","433","683562","0.0-3.0-1.357","<span style=""font-size:30px; font-family: monospace"">ação</span>"," ","","exp-sent","ação","","",""
"","965","html-keyboard-response","434","684778","0.0-3.0-1.358","<span style=""font-size:30px; font-family: monospace"">têm</span>"," ","","exp-sent","têm","","",""
"","1557","html-keyboard-response","435","686586","0.0-3.0-1.359","<span style=""font-size:30px; font-family: monospace"">chantagem</span>"," ","","exp-sent","chantagem","","",""
"","661","html-keyboard-response","436","687498","0.0-3.0-1.360","<span style=""font-size:30px; font-family: monospace"">e</span>"," ","","exp-sent","e","","",""
"","804","html-keyboard-response","437","688554","0.0-3.0-1.361","<span style=""font-size:30px; font-family: monospace"">muita</span>"," ","","exp-sent","muita","","",""
"","885","html-keyboard-response","438","689690","0.0-3.0-1.362","<span style=""font-size:30px; font-family: monospace"">luta.</span>"," ","","exp-sent","luta.","","",""
"","null","html-keyboard-response","439","690946","0.0-3.0-0.363-0.363","<span style= ""font-size:30px; font-family: monospace"">+</span>","null","fixation","","","","",""
"","621","html-keyboard-response","440","691818","0.0-3.0-1.363","<span style=""font-size:30px; font-family: monospace"">A</span>"," ","","exp-sent","A","","",""
"","869","html-keyboard-response","441","692938","0.0-3.0-1.364","<span style=""font-size:30px; font-family: monospace"">bisavó</span>"," ","","exp-sent","bisavó","","",""
"","757","html-keyboard-response","442","693946","0.0-3.0-1.365","<span style=""font-size:30px; font-family: monospace"">recebeu</span>"," ","","exp-sent","recebeu","","",""
"","532","html-keyboard-response","443","694730","0.0-3.0-1.366","<span style=""font-size:30px; font-family: monospace"">um</span>"," ","","exp-sent","um","","",""
"","789","html-keyboard-response","444","695770","0.0-3.0-1.367","<span style=""font-size:30px; font-family: monospace"">benefício</span>"," ","","exp-sent","benefício","","",""
"","965","html-keyboard-response","445","696987","0.0-3.0-1.368","<span style=""font-size:30px; font-family: monospace"">temporário</span>"," ","","exp-sent","temporário","","",""
"","597","html-keyboard-response","446","697834","0.0-3.0-1.369","<span style=""font-size:30px; font-family: monospace"">do</span>"," ","","exp-sent","do","","",""
"","868","html-keyboard-response","447","698954","0.0-3.0-1.370","<span style=""font-size:30px; font-family: monospace"">governo.</span>"," ","","exp-sent","governo.","","",""
"","null","html-keyboard-response","448","700206","0.0-3.0-0.371-0.371","<span style= ""font-size:30px; font-family: monospace"">+</span>","null","fixation","","","","",""
"","689","html-keyboard-response","449","701147","0.0-3.0-1.371","<span style=""font-size:30px; font-family: monospace"">As</span>"," ","","exp-sent","As","","",""
"","869","html-keyboard-response","450","702270","0.0-3.0-1.372","<span style=""font-size:30px; font-family: monospace"">crianças</span>"," ","","exp-sent","crianças","","",""
"","836","html-keyboard-response","451","703358","0.0-3.0-1.373","<span style=""font-size:30px; font-family: monospace"">brincaram</span>"," ","","exp-sent","brincaram","","",""
"","549","html-keyboard-response","452","704158","0.0-3.0-1.374","<span style=""font-size:30px; font-family: monospace"">no</span>"," ","","exp-sent","no","","",""
"","837","html-keyboard-response","453","705246","0.0-3.0-1.375","<span style=""font-size:30px; font-family: monospace"">balanço</span>"," ","","exp-sent","balanço","","",""
"","549","html-keyboard-response","454","706046","0.0-3.0-1.376","<span style=""font-size:30px; font-family: monospace"">a</span>"," ","","exp-sent","a","","",""
"","709","html-keyboard-response","455","707006","0.0-3.0-1.377","<span style=""font-size:30px; font-family: monospace"">tarde</span>"," ","","exp-sent","tarde","","",""
"","741","html-keyboard-response","456","707998","0.0-3.0-1.378","<span style=""font-size:30px; font-family: monospace"">toda.</span>"," ","","exp-sent","toda.","","",""
"","null","html-keyboard-response","457","709251","0.0-3.0-0.379-0.379","<span style= ""font-size:30px; font-family: monospace"">+</span>","null","fixation","","","","",""
"","192","html-keyboard-response","458","709694","0.0-3.0-1.379","<span style=""font-size:30px; font-family: monospace"">Ela</span>"," ","","exp-sent","Ela","","",""
"","773","html-keyboard-response","459","710718","0.0-3.0-1.380","<span style=""font-size:30px; font-family: monospace"">gosta</span>"," ","","exp-sent","gosta","","",""
"","517","html-keyboard-response","460","711486","0.0-3.0-1.381","<span style=""font-size:30px; font-family: monospace"">de</span>"," ","","exp-sent","de","","",""
"","661","html-keyboard-response","461","712398","0.0-3.0-1.382","<span style=""font-size:30px; font-family: monospace"">comida</span>"," ","","exp-sent","comida","","",""
"","805","html-keyboard-response","462","713454","0.0-3.0-1.383","<span style=""font-size:30px; font-family: monospace"">natural</span>"," ","","exp-sent","natural","","",""
"","693","html-keyboard-response","463","714398","0.0-3.0-1.384","<span style=""font-size:30px; font-family: monospace"">no</span>"," ","","exp-sent","no","","",""
"","740","html-keyboard-response","464","715390","0.0-3.0-1.385","<span style=""font-size:30px; font-family: monospace"">almoço.</span>"," ","","comp","almoço.","","",""
"","6981","html-keyboard-response","465","722622","0.0-3.0-2.385-0.385","<span style=""font-size:30px; font-family: monospace"">Ela gosta de comida natural no almoço?</span>","s","","comp","","Ela gosta de comida natural no almoço?","sim","false"
"","null","html-keyboard-response","466","724137","0.0-3.0-0.386-0.386","<span style= ""font-size:30px; font-family: monospace"">+</span>","null","fixation","","","","",""
"","1307","html-keyboard-response","467","725694","0.0-3.0-1.386","<span style=""font-size:30px; font-family: monospace"">Este</span>"," ","","exp-sent","Este","","",""
"","1301","html-keyboard-response","468","727246","0.0-3.0-1.387","<span style=""font-size:30px; font-family: monospace"">conto</span>"," ","","exp-sent","conto","","",""
"","853","html-keyboard-response","469","728350","0.0-3.0-1.388","<span style=""font-size:30px; font-family: monospace"">tem</span>"," ","","exp-sent","tem","","",""
"","1061","html-keyboard-response","470","729662","0.0-3.0-1.389","<span style=""font-size:30px; font-family: monospace"">um</span>"," ","","exp-sent","um","","",""
"","1348","html-keyboard-response","471","731262","0.0-3.0-1.390","<span style=""font-size:30px; font-family: monospace"">final</span>"," ","","exp-sent","final","","",""
"","693","html-keyboard-response","472","732206","0.0-3.0-1.391","<span style=""font-size:30px; font-family: monospace"">perfeito.</span>"," ","","exp-sent","perfeito.","","",""
"","null","html-keyboard-response","473","733457","0.0-3.0-0.392-0.392","<span style= ""font-size:30px; font-family: monospace"">+</span>","null","fixation","","","","",""
"","162","html-keyboard-response","474","733870","0.0-3.0-1.392","<span style=""font-size:30px; font-family: monospace"">Ele</span>"," ","","exp-sent","Ele","","",""
"","629","html-keyboard-response","475","734750","0.0-3.0-1.393","<span style=""font-size:30px; font-family: monospace"">precisa</span>"," ","","exp-sent","precisa","","",""
"","565","html-keyboard-response","476","735566","0.0-3.0-1.394","<span style=""font-size:30px; font-family: monospace"">de</span>"," ","","exp-sent","de","","",""
"","1797","html-keyboard-response","477","737614","0.0-3.0-1.395","<span style=""font-size:30px; font-family: monospace"">um</span>"," ","","exp-sent","um","","",""
"","869","html-keyboard-response","478","738734","0.0-3.0-1.396","<span style=""font-size:30px; font-family: monospace"">protetor</span>"," ","","exp-sent","protetor","","",""
"","517","html-keyboard-response","479","739502","0.0-3.0-1.397","<span style=""font-size:30px; font-family: monospace"">de</span>"," ","","exp-sent","de","","",""
"","660","html-keyboard-response","480","740414","0.0-3.0-1.398","<span style=""font-size:30px; font-family: monospace"">ouvido.</span>"," ","","exp-sent","ouvido.","","",""
"","null","html-keyboard-response","481","741665","0.0-3.0-0.399-0.399","<span style= ""font-size:30px; font-family: monospace"">+</span>","null","fixation","","","","",""
"","210","html-keyboard-response","482","742126","0.0-3.0-1.399","<span style=""font-size:30px; font-family: monospace"">Os</span>"," ","","exp-sent","Os","","",""
"","581","html-keyboard-response","483","742958","0.0-3.0-1.400","<span style=""font-size:30px; font-family: monospace"">hábitos</span>"," ","","exp-sent","hábitos","","",""
"","453","html-keyboard-response","484","743662","0.0-3.0-1.401","<span style=""font-size:30px; font-family: monospace"">de</span>"," ","","exp-sent","de","","",""
"","703","html-keyboard-response","485","744622","0.0-3.0-1.402","<span style=""font-size:30px; font-family: monospace"">lugares</span>"," ","","exp-sent","lugares","","",""
"","613","html-keyboard-response","486","745486","0.0-3.0-1.403","<span style=""font-size:30px; font-family: monospace"">diferentes</span>"," ","","exp-sent","diferentes","","",""
"","565","html-keyboard-response","487","746302","0.0-3.0-1.404","<span style=""font-size:30px; font-family: monospace"">são</span>"," ","","exp-sent","são","","",""
"","517","html-keyboard-response","488","747070","0.0-3.0-1.405","<span style=""font-size:30px; font-family: monospace"">muito</span>"," ","","exp-sent","muito","","",""
"","614","html-keyboard-response","489","747934","0.0-3.0-1.406","<span style=""font-size:30px; font-family: monospace"">lindos.</span>"," ","","exp-sent","lindos.","","",""
"","null","html-keyboard-response","490","749187","0.0-3.0-0.407-0.407","<span style= ""font-size:30px; font-family: monospace"">+</span>","null","fixation","","","","",""
"","288","html-keyboard-response","491","749726","0.0-3.0-1.407","<span style=""font-size:30px; font-family: monospace"">O</span>"," ","","exp-sent","O","","",""
"","725","html-keyboard-response","492","750702","0.0-3.0-1.408","<span style=""font-size:30px; font-family: monospace"">médico</span>"," ","","exp-sent","médico","","",""
"","837","html-keyboard-response","493","751790","0.0-3.0-1.409","<span style=""font-size:30px; font-family: monospace"">corrigiu</span>"," ","","exp-sent","corrigiu","","",""
"","469","html-keyboard-response","494","752510","0.0-3.0-1.410","<span style=""font-size:30px; font-family: monospace"">a</span>"," ","","exp-sent","a","","",""
"","965","html-keyboard-response","495","753726","0.0-3.0-1.411","<span style=""font-size:30px; font-family: monospace"">postura</span>"," ","","exp-sent","postura","","",""
"","645","html-keyboard-response","496","754622","0.0-3.0-1.412","<span style=""font-size:30px; font-family: monospace"">das</span>"," ","","exp-sent","das","","",""
"","580","html-keyboard-response","497","755454","0.0-3.0-1.413","<span style=""font-size:30px; font-family: monospace"">costas</span>"," ","","exp-sent","costas","","",""
"","581","html-keyboard-response","498","756286","0.0-3.0-1.414","<span style=""font-size:30px; font-family: monospace"">da</span>"," ","","exp-sent","da","","",""
"","853","html-keyboard-response","499","757390","0.0-3.0-1.415","<span style=""font-size:30px; font-family: monospace"">pessoa.</span>"," ","","exp-sent","pessoa.","","",""
"","null","html-keyboard-response","500","758642","0.0-3.0-0.416-0.416","<span style= ""font-size:30px; font-family: monospace"">+</span>","null","fixation","","","","",""
"","112","html-keyboard-response","501","759006","0.0-3.0-1.416","<span style=""font-size:30px; font-family: monospace"">Aquele</span>"," ","","exp-sent","Aquele","","",""
"","469","html-keyboard-response","502","759726","0.0-3.0-1.417","<span style=""font-size:30px; font-family: monospace"">era</span>"," ","","exp-sent","era","","",""
"","437","html-keyboard-response","503","760414","0.0-3.0-1.418","<span style=""font-size:30px; font-family: monospace"">um</span>"," ","","exp-sent","um","","",""
"","437","html-keyboard-response","504","761102","0.0-3.0-1.419","<span style=""font-size:30px; font-family: monospace"">caso</span>"," ","","exp-sent","caso","","",""
"","436","html-keyboard-response","505","761790","0.0-3.0-1.420","<span style=""font-size:30px; font-family: monospace"">real</span>"," ","","exp-sent","real","","",""
"","389","html-keyboard-response","506","762434","0.0-3.0-1.421","<span style=""font-size:30px; font-family: monospace"">de</span>"," ","","exp-sent","de","","",""
"","902","html-keyboard-response","507","763586","0.0-3.0-1.422","<span style=""font-size:30px; font-family: monospace"">sequestro</span>"," ","","exp-sent","sequestro","","",""
"","421","html-keyboard-response","508","764258","0.0-3.0-1.423","<span style=""font-size:30px; font-family: monospace"">premeditado.</span>"," ","","comp","premeditado.","","",""
"","8357","html-keyboard-response","509","772866","0.0-3.0-2.423-0.423","<span style=""font-size:30px; font-family: monospace"">Aquele era um caso real de roubo?</span>","n","","comp","","Aquele era um caso real de roubo?","não","false"
"","null","html-keyboard-response","510","774368","0.0-3.0-0.424-0.424","<span style= ""font-size:30px; font-family: monospace"">+</span>","null","fixation","","","","",""
"","7","html-keyboard-response","511","774626","0.0-3.0-1.424","<span style=""font-size:30px; font-family: monospace"">No</span>"," ","","exp-sent","No","","",""
"","1237","html-keyboard-response","512","776114","0.0-3.0-1.425","<span style=""font-size:30px; font-family: monospace"">passado</span>"," ","","exp-sent","passado","","",""
"","853","html-keyboard-response","513","777218","0.0-3.0-1.426","<span style=""font-size:30px; font-family: monospace"">houve</span>"," ","","exp-sent","houve","","",""
"","533","html-keyboard-response","514","778002","0.0-3.0-1.427","<span style=""font-size:30px; font-family: monospace"">uma</span>"," ","","exp-sent","uma","","",""
"","1173","html-keyboard-response","515","779426","0.0-3.0-1.428","<span style=""font-size:30px; font-family: monospace"">rebelião</span>"," ","","exp-sent","rebelião","","",""
"","692","html-keyboard-response","516","780370","0.0-3.0-1.429","<span style=""font-size:30px; font-family: monospace"">nesta</span>"," ","","exp-sent","nesta","","",""
"","949","html-keyboard-response","517","781570","0.0-3.0-1.430","<span style=""font-size:30px; font-family: monospace"">cidade.</span>"," ","","exp-sent","cidade.","","",""
"","null","html-keyboard-response","518","782831","0.0-3.0-0.431-0.431","<span style= ""font-size:30px; font-family: monospace"">+</span>","null","fixation","","","","",""
"","151","html-keyboard-response","519","783234","0.0-3.0-1.431","<span style=""font-size:30px; font-family: monospace"">Ele</span>"," ","","exp-sent","Ele","","",""
"","917","html-keyboard-response","520","784402","0.0-3.0-1.432","<span style=""font-size:30px; font-family: monospace"">fundou</span>"," ","","exp-sent","fundou","","",""
"","837","html-keyboard-response","521","785490","0.0-3.0-1.433","<span style=""font-size:30px; font-family: monospace"">uma</span>"," ","","exp-sent","uma","","",""
"","1029","html-keyboard-response","522","786770","0.0-3.0-1.434","<span style=""font-size:30px; font-family: monospace"">empresa</span>"," ","","exp-sent","empresa","","",""
"","660","html-keyboard-response","523","787682","0.0-3.0-1.435","<span style=""font-size:30px; font-family: monospace"">privada</span>"," ","","exp-sent","privada","","",""
"","597","html-keyboard-response","524","788530","0.0-3.0-1.436","<span style=""font-size:30px; font-family: monospace"">sem</span>"," ","","exp-sent","sem","","",""
"","741","html-keyboard-response","525","789521","0.0-3.0-1.437","<span style=""font-size:30px; font-family: monospace"">ajuda.</span>"," ","","exp-sent","ajuda.","","",""
"","null","html-keyboard-response","526","790773","0.0-3.0-0.438-0.438","<span style= ""font-size:30px; font-family: monospace"">+</span>","null","fixation","","","","",""
"","498","html-keyboard-response","527","791522","0.0-3.0-1.438","<span style=""font-size:30px; font-family: monospace"">As</span>"," ","","exp-sent","As","","",""
"","1060","html-keyboard-response","528","792834","0.0-3.0-1.439","<span style=""font-size:30px; font-family: monospace"">meninas</span>"," ","","exp-sent","meninas","","",""
"","964","html-keyboard-response","529","794050","0.0-3.0-1.440","<span style=""font-size:30px; font-family: monospace"">encontraram</span>"," ","","exp-sent","encontraram","","",""
"","565","html-keyboard-response","530","794865","0.0-3.0-1.441","<span style=""font-size:30px; font-family: monospace"">um</span>"," ","","exp-sent","um","","",""
"","677","html-keyboard-response","531","795794","0.0-3.0-1.442","<span style=""font-size:30px; font-family: monospace"">rato</span>"," ","","exp-sent","rato","","",""
"","644","html-keyboard-response","532","796690","0.0-3.0-1.443","<span style=""font-size:30px; font-family: monospace"">dentro</span>"," ","","exp-sent","dentro","","",""
"","581","html-keyboard-response","533","797522","0.0-3.0-1.444","<span style=""font-size:30px; font-family: monospace"">de</span>"," ","","exp-sent","de","","",""
"","546","html-keyboard-response","534","798322","0.0-3.0-1.445","<span style=""font-size:30px; font-family: monospace"">casa.</span>"," ","","exp-sent","casa.","","",""
"","null","html-keyboard-response","535","799573","0.0-3.0-0.446-0.446","<span style= ""font-size:30px; font-family: monospace"">+</span>","null","fixation","","","","",""
"","545","html-keyboard-response","536","800370","0.0-3.0-1.446","<span style=""font-size:30px; font-family: monospace"">O</span>"," ","","exp-sent","O","","",""
"","805","html-keyboard-response","537","801426","0.0-3.0-1.447","<span style=""font-size:30px; font-family: monospace"">texto</span>"," ","","exp-sent","texto","","",""
"","660","html-keyboard-response","538","802338","0.0-3.0-1.448","<span style=""font-size:30px; font-family: monospace"">tinha</span>"," ","","exp-sent","tinha","","",""
"","677","html-keyboard-response","539","803266","0.0-3.0-1.449","<span style=""font-size:30px; font-family: monospace"">ideias</span>"," ","","exp-sent","ideias","","",""
"","518","html-keyboard-response","540","804050","0.0-3.0-1.450","<span style=""font-size:30px; font-family: monospace"">vagas</span>"," ","","exp-sent","vagas","","",""
"","853","html-keyboard-response","541","805154","0.0-3.0-1.451","<span style=""font-size:30px; font-family: monospace"">e</span>"," ","","exp-sent","e","","",""
"","901","html-keyboard-response","542","806306","0.0-3.0-1.452","<span style=""font-size:30px; font-family: monospace"">confusas.</span>"," ","","exp-sent","confusas.","","",""
"","null","html-keyboard-response","543","807558","0.0-3.0-0.453-0.453","<span style= ""font-size:30px; font-family: monospace"">+</span>","null","fixation","","","","",""
"","576","html-keyboard-response","544","808386","0.0-3.0-1.453","<span style=""font-size:30px; font-family: monospace"">As</span>"," ","","exp-sent","As","","",""
"","1029","html-keyboard-response","545","809666","0.0-3.0-1.454","<span style=""font-size:30px; font-family: monospace"">crianças</span>"," ","","exp-sent","crianças","","",""
"","1188","html-keyboard-response","546","811106","0.0-3.0-1.455","<span style=""font-size:30px; font-family: monospace"">viram</span>"," ","","exp-sent","viram","","",""
"","672","html-keyboard-response","547","812034","0.0-3.0-1.456","<span style=""font-size:30px; font-family: monospace"">a</span>"," ","","exp-sent","a","","",""
"","853","html-keyboard-response","548","813138","0.0-3.0-1.457","<span style=""font-size:30px; font-family: monospace"">acrobata</span>"," ","","exp-sent","acrobata","","",""
"","1125","html-keyboard-response","549","814514","0.0-3.0-1.458","<span style=""font-size:30px; font-family: monospace"">talentosa</span>"," ","","exp-sent","talentosa","","",""
"","533","html-keyboard-response","550","815298","0.0-3.0-1.459","<span style=""font-size:30px; font-family: monospace"">no</span>"," ","","exp-sent","no","","",""
"","888","html-keyboard-response","551","816450","0.0-3.0-1.460","<span style=""font-size:30px; font-family: monospace"">circo.</span>"," ","","comp","circo.","","",""
"","11573","html-keyboard-response","552","828278","0.0-3.0-2.460-0.460","<span style=""font-size:30px; font-family: monospace"">As crianças viram o palhaço no circo?</span>","s","","comp","","As crianças viram o palhaço no circo?","não","false"
"","null","html-keyboard-response","553","829778","0.0-3.0-0.461-0.461","<span style= ""font-size:30px; font-family: monospace"">+</span>","null","fixation","","","","",""
"","440","html-keyboard-response","554","830469","0.0-3.0-1.461","<span style=""font-size:30px; font-family: monospace"">Ursos</span>"," ","","exp-sent","Ursos","","",""
"","410","html-keyboard-response","555","831141","0.0-3.0-1.462","<span style=""font-size:30px; font-family: monospace"">têm</span>"," ","","exp-sent","têm","","",""
"","517","html-keyboard-response","556","831909","0.0-3.0-1.463","<span style=""font-size:30px; font-family: monospace"">uma</span>"," ","","exp-sent","uma","","",""
"","981","html-keyboard-response","557","833141","0.0-3.0-1.464","<span style=""font-size:30px; font-family: monospace"">patada</span>"," ","","exp-sent","patada","","",""
"","645","html-keyboard-response","558","834037","0.0-3.0-1.465","<span style=""font-size:30px; font-family: monospace"">brutal</span>"," ","","exp-sent","brutal","","",""
"","437","html-keyboard-response","559","834725","0.0-3.0-1.466","<span style=""font-size:30px; font-family: monospace"">e</span>"," ","","exp-sent","e","","",""
"","1557","html-keyboard-response","560","836533","0.0-3.0-1.467","<span style=""font-size:30px; font-family: monospace"">poderosa.</span>"," ","","exp-sent","poderosa.","","",""
"","null","html-keyboard-response","561","837786","0.0-3.0-0.468-0.468","<span style= ""font-size:30px; font-family: monospace"">+</span>","null","fixation","","","","",""
"","192","html-keyboard-response","562","838229","0.0-3.0-1.468","<span style=""font-size:30px; font-family: monospace"">Eu</span>"," ","","exp-sent","Eu","","",""
"","852","html-keyboard-response","563","839333","0.0-3.0-1.469","<span style=""font-size:30px; font-family: monospace"">fiz</span>"," ","","exp-sent","fiz","","",""
"","692","html-keyboard-response","564","840277","0.0-3.0-1.470","<span style=""font-size:30px; font-family: monospace"">aulas</span>"," ","","exp-sent","aulas","","",""
"","501","html-keyboard-response","565","841029","0.0-3.0-1.471","<span style=""font-size:30px; font-family: monospace"">de</span>"," ","","exp-sent","de","","",""
"","1125","html-keyboard-response","566","842405","0.0-3.0-1.472","<span style=""font-size:30px; font-family: monospace"">espanhol</span>"," ","","exp-sent","espanhol","","",""
"","629","html-keyboard-response","567","843285","0.0-3.0-1.473","<span style=""font-size:30px; font-family: monospace"">nesta</span>"," ","","exp-sent","nesta","","",""
"","629","html-keyboard-response","568","844165","0.0-3.0-1.474","<span style=""font-size:30px; font-family: monospace"">cidade.</span>"," ","","exp-sent","cidade.","","",""
"","null","html-keyboard-response","569","845418","0.0-3.0-0.475-0.475","<span style= ""font-size:30px; font-family: monospace"">+</span>","null","fixation","","","","",""
"","177","html-keyboard-response","570","845845","0.0-3.0-1.475","<span style=""font-size:30px; font-family: monospace"">Ele</span>"," ","","exp-sent","Ele","","",""
"","693","html-keyboard-response","571","846789","0.0-3.0-1.476","<span style=""font-size:30px; font-family: monospace"">comprou</span>"," ","","exp-sent","comprou","","",""
"","612","html-keyboard-response","572","847653","0.0-3.0-1.477","<span style=""font-size:30px; font-family: monospace"">mais</span>"," ","","exp-sent","mais","","",""
"","549","html-keyboard-response","573","848453","0.0-3.0-1.478","<span style=""font-size:30px; font-family: monospace"">uma</span>"," ","","exp-sent","uma","","",""
"","1109","html-keyboard-response","574","849814","0.0-3.0-1.479","<span style=""font-size:30px; font-family: monospace"">esponja</span>"," ","","exp-sent","esponja","","",""
"","597","html-keyboard-response","575","850661","0.0-3.0-1.480","<span style=""font-size:30px; font-family: monospace"">para</span>"," ","","exp-sent","para","","",""
"","533","html-keyboard-response","576","851445","0.0-3.0-1.481","<span style=""font-size:30px; font-family: monospace"">a</span>"," ","","exp-sent","a","","",""
"","885","html-keyboard-response","577","852581","0.0-3.0-1.482","<span style=""font-size:30px; font-family: monospace"">cozinha.</span>"," ","","exp-sent","cozinha.","","",""
"","null","html-keyboard-response","578","853834","0.0-3.0-0.483-0.483","<span style= ""font-size:30px; font-family: monospace"">+</span>","null","fixation","","","","",""
"","609","html-keyboard-response","579","854693","0.0-3.0-1.483","<span style=""font-size:30px; font-family: monospace"">Ele</span>"," ","","exp-sent","Ele","","",""
"","693","html-keyboard-response","580","855637","0.0-3.0-1.484","<span style=""font-size:30px; font-family: monospace"">teve</span>"," ","","exp-sent","teve","","",""
"","485","html-keyboard-response","581","856373","0.0-3.0-1.485","<span style=""font-size:30px; font-family: monospace"">um</span>"," ","","exp-sent","um","","",""
"","693","html-keyboard-response","582","857317","0.0-3.0-1.486","<span style=""font-size:30px; font-family: monospace"">sono</span>"," ","","exp-sent","sono","","",""
"","805","html-keyboard-response","583","858373","0.0-3.0-1.487","<span style=""font-size:30px; font-family: monospace"">bizarro</span>"," ","","exp-sent","bizarro","","",""
"","533","html-keyboard-response","584","859157","0.0-3.0-1.488","<span style=""font-size:30px; font-family: monospace"">sem</span>"," ","","exp-sent","sem","","",""
