"view_history","rt","trial_type","trial_index","time_elapsed","internal_node_id","stimulus","response","portuguese","kreyol"
"[{""page_index"":0,""viewing_time"":59131}]","59131","instructions","0","59130","0.0-0.0","","","",""
"","null","html-keyboard-response","1","59732","0.0-1.0-0.0","+","null","",""
"","30301","audio-keyboard-response","2","90282","0.0-1.0-1.0","../audio/teste-vocab--56.mp3","s","agricultura","agrikilti"
"","null","html-keyboard-response","3","90801","0.0-1.0-0.1","+","null","",""
"","141611","audio-keyboard-response","4","232421","0.0-1.0-1.1","../audio/teste-vocab--46.mp3","s","ombro","zepòl"
"","null","html-keyboard-response","5","232923","0.0-1.0-0.2","+","null","",""
"","5349","audio-keyboard-response","6","238629","0.0-1.0-1.2","../audio/teste-vocab--51.mp3","s","recolher","kolekte"
"","null","html-keyboard-response","7","239133","0.0-1.0-0.3","+","null","",""
"","2720","audio-keyboard-response","8","241877","0.0-1.0-1.3","../audio/teste-vocab--87.mp3","s","ave","zwazo"
"","null","html-keyboard-response","9","242393","0.0-1.0-0.4","+","null","",""
"","4931","audio-keyboard-response","10","247346","0.0-1.0-1.4","../audio/teste-vocab--101.mp3","s","incandescente","enkandesan"
"","null","html-keyboard-response","11","247858","0.0-1.0-0.5","+","null","",""
"","17651","audio-keyboard-response","12","265523","0.0-1.0-1.5","../audio/teste-vocab--17.mp3","s","móvel","mobil"
"","null","html-keyboard-response","13","266040","0.0-1.0-0.6","+","null","",""
"","5440","audio-keyboard-response","14","271507","0.0-1.0-1.6","../audio/teste-vocab--75.mp3","s","carpinteiro","chapantye"
"","null","html-keyboard-response","15","272015","0.0-1.0-0.7","+","null","",""
"","7760","audio-keyboard-response","16","279795","0.0-1.0-1.7","../audio/teste-vocab--103.mp3","s","utensílio","istansil"
"","null","html-keyboard-response","17","280310","0.0-1.0-0.8","+","null","",""
"","5280","audio-keyboard-response","18","285602","0.0-1.0-1.8","../audio/teste-vocab--26.mp3","s","cotovelo","koud"
"","null","html-keyboard-response","19","286120","0.0-1.0-0.9","+","null","",""
"","8069","audio-keyboard-response","20","294211","0.0-1.0-1.9","../audio/teste-vocab--110.mp3","n","prodígio","pwodij"
"","null","html-keyboard-response","21","294720","0.0-1.0-0.10","+","null","",""
"","6491","audio-keyboard-response","22","301235","0.0-1.0-1.10","../audio/teste-vocab--04.mp3","n","roda","wonn"
"","null","html-keyboard-response","23","301740","0.0-1.0-0.11","+","null","",""
"","4299","audio-keyboard-response","24","306059","0.0-1.0-1.11","../audio/teste-vocab--44.mp3","s","premiar","rekonpanse"
"","null","html-keyboard-response","25","306562","0.0-1.0-0.12","+","null","",""
"","9280","audio-keyboard-response","26","315867","0.0-1.0-1.12","../audio/teste-vocab--25.mp3","s","canguru","kanguwou"
"","null","html-keyboard-response","27","316382","0.0-1.0-0.13","+","null","",""
"","2888","audio-keyboard-response","28","319291","0.0-1.0-1.13","../audio/teste-vocab--64.mp3","s","colher","kiyè"
"","null","html-keyboard-response","29","319792","0.0-1.0-0.14","+","null","",""
"","7432","audio-keyboard-response","30","327243","0.0-1.0-1.14","../audio/teste-vocab--106.mp3","s","lubrificar","grese"
"","null","html-keyboard-response","31","327762","0.0-1.0-0.15","+","null","",""
"","2571","audio-keyboard-response","32","330363","0.0-1.0-1.15","../audio/teste-vocab--54.mp3","s","arbusto","raje"
"","null","html-keyboard-response","33","330872","0.0-1.0-0.16","+","null","",""
"","8920","audio-keyboard-response","34","339819","0.0-1.0-1.16","../audio/teste-vocab--74.mp3","s","desilusão","dezilizyon"
"","null","html-keyboard-response","35","340332","0.0-1.0-0.17","+","null","",""
"","3299","audio-keyboard-response","36","343643","0.0-1.0-1.17","../audio/teste-vocab--104.mp3","s","ira","pwal"
"","null","html-keyboard-response","37","344162","0.0-1.0-0.18","+","null","",""
"","5040","audio-keyboard-response","38","349227","0.0-1.0-1.18","../audio/teste-vocab--57.mp3","n","raiz","rasin"
"","null","html-keyboard-response","39","349738","0.0-1.0-0.19","+","null","",""
"","3549","audio-keyboard-response","40","353306","0.0-1.0-1.19","../audio/teste-vocab--20.mp3","s","medir","mezire"
"","null","html-keyboard-response","41","353822","0.0-1.0-0.20","+","null","",""
"","8741","audio-keyboard-response","42","362587","0.0-1.0-1.20","../audio/teste-vocab--97.mp3","s","frágil","frajil"
"","null","html-keyboard-response","43","363102","0.0-1.0-0.21","+","null","",""
"","8029","audio-keyboard-response","44","371147","0.0-1.0-1.21","../audio/teste-vocab--15.mp3","s","flecha","flèch"
"","null","html-keyboard-response","45","371663","0.0-1.0-0.22","+","null","",""
"","11541","audio-keyboard-response","46","383228","0.0-1.0-1.22","../audio/teste-vocab--47.mp3","s","envelope","anvlope"
"","null","html-keyboard-response","47","383743","0.0-1.0-0.23","+","null","",""
"","13280","audio-keyboard-response","48","397052","0.0-1.0-1.23","../audio/teste-vocab--77.mp3","s","comércio","komès"
"","null","html-keyboard-response","49","397563","0.0-1.0-0.24","+","null","",""
"","5739","audio-keyboard-response","50","403324","0.0-1.0-1.24","../audio/teste-vocab--35.mp3","n","líquido","likid"
"","null","html-keyboard-response","51","403833","0.0-1.0-0.25","+","null","",""
"","29192","audio-keyboard-response","52","433036","0.0-1.0-1.25","../audio/teste-vocab--33.mp3","s","uniforme","inifòm"
"","null","html-keyboard-response","53","433544","0.0-1.0-0.26","+","null","",""
"","3261","audio-keyboard-response","54","436828","0.0-1.0-1.26","../audio/teste-vocab--122.mp3","s","transeunte","pasajè"
"","null","html-keyboard-response","55","437344","0.0-1.0-0.27","+","null","",""
"","12928","audio-keyboard-response","56","450284","0.0-1.0-1.27","../audio/teste-vocab--111.mp3","s","jubilosa","rejwisans"
"","null","html-keyboard-response","57","450794","0.0-1.0-0.28","+","null","",""
"","4792","audio-keyboard-response","58","455596","0.0-1.0-1.28","../audio/teste-vocab--18.mp3","s","abelha","myèl"
"","null","html-keyboard-response","59","456114","0.0-1.0-0.29","+","null","",""
"","4221","audio-keyboard-response","60","460348","0.0-1.0-1.29","../audio/teste-vocab--84.mp3","s","confiar","konfye"
"","null","html-keyboard-response","61","460864","0.0-1.0-0.30","+","null","",""
"","7520","audio-keyboard-response","62","468412","0.0-1.0-1.30","../audio/teste-vocab--55.mp3","s","bosque","forè"
"","null","html-keyboard-response","63","468913","0.0-1.0-0.31","+","null","",""
"","16131","audio-keyboard-response","64","485068","0.0-1.0-1.31","../audio/teste-vocab--61.mp3","s","iluminação","iliminasyon"
"","null","html-keyboard-response","65","485574","0.0-1.0-0.32","+","null","",""
"","24699","audio-keyboard-response","66","510294","0.0-1.0-1.32","../audio/teste-vocab--94.mp3","s","paralelo","paralèl"
"","null","html-keyboard-response","67","510798","0.0-1.0-0.33","+","null","",""
"","6669","audio-keyboard-response","68","517494","0.0-1.0-1.33","../audio/teste-vocab--24.mp3","s","acidente","aksidan"
"","null","html-keyboard-response","69","518007","0.0-1.0-0.34","+","null","",""
"","10000","audio-keyboard-response","70","528022","0.0-1.0-1.34","../audio/teste-vocab--88.mp3","n","portátil","pòtab"
"","null","html-keyboard-response","71","528538","0.0-1.0-0.35","+","null","",""
"","2459","audio-keyboard-response","72","531014","0.0-1.0-1.35","../audio/teste-vocab--03.mp3","s","balançar","balanse"
"","null","html-keyboard-response","73","531518","0.0-1.0-0.36","+","null","",""
"","3141","audio-keyboard-response","74","534678","0.0-1.0-1.36","../audio/teste-vocab--36.mp3","s","grupo","gwoup"
"","null","html-keyboard-response","75","535188","0.0-1.0-0.37","+","null","",""
"","2811","audio-keyboard-response","76","538022","0.0-1.0-1.37","../audio/teste-vocab--31.mp3","s","vazio","vid"
"","null","html-keyboard-response","77","538527","0.0-1.0-0.38","+","null","",""
"","2469","audio-keyboard-response","78","541014","0.0-1.0-1.38","../audio/teste-vocab--14.mp3","s","ler","li"
"","null","html-keyboard-response","79","541517","0.0-1.0-0.39","+","null","",""
"","10149","audio-keyboard-response","80","551686","0.0-1.0-1.39","../audio/teste-vocab--117.mp3","s","córnea","kòn"
"","null","html-keyboard-response","81","552197","0.0-1.0-0.40","+","null","",""
"","11579","audio-keyboard-response","82","563798","0.0-1.0-1.40","../audio/teste-vocab--100.mp3","s","consumir","konsome"
"","null","html-keyboard-response","83","564318","0.0-1.0-0.41","+","null","",""
"","5200","audio-keyboard-response","84","569542","0.0-1.0-1.41","../audio/teste-vocab--78.mp3","s","quarteto","qwatèt"
"","null","html-keyboard-response","85","570058","0.0-1.0-0.42","+","null","",""
"","4040","audio-keyboard-response","86","574123","0.0-1.0-1.42","../audio/teste-vocab--80.mp3","s","binóculo","longvi"
"","null","html-keyboard-response","87","574642","0.0-1.0-0.43","+","null","",""
"","2491","audio-keyboard-response","88","577163","0.0-1.0-1.43","../audio/teste-vocab--43.mp3","s","mecânico","mekanisyen"
"","null","html-keyboard-response","89","577672","0.0-1.0-0.44","+","null","",""
"","13440","audio-keyboard-response","90","591131","0.0-1.0-1.44","../audio/teste-vocab--48.mp3","s","joia","bijou"
"","null","html-keyboard-response","91","591632","0.0-1.0-0.45","+","null","",""
"","5440","audio-keyboard-response","92","597083","0.0-1.0-1.45","../audio/teste-vocab--79.mp3","n","moldura"," chanbranl"
"","null","html-keyboard-response","93","597602","0.0-1.0-0.46","+","null","",""
"","4981","audio-keyboard-response","94","602603","0.0-1.0-1.46","../audio/teste-vocab--58.mp3","s","nutritivo","nourisan"
"","null","html-keyboard-response","95","603105","0.0-1.0-0.47","+","null","",""
"","7232","audio-keyboard-response","96","610363","0.0-1.0-1.47","../audio/teste-vocab--126.mp3","s","ambulante","promennen"
"","null","html-keyboard-response","97","610872","0.0-1.0-0.48","+","null","",""
"","11491","audio-keyboard-response","98","622379","0.0-1.0-1.48","../audio/teste-vocab--83.mp3","s","morsa","mòs"
"","null","html-keyboard-response","99","622882","0.0-1.0-0.49","+","null","",""
"","2611","audio-keyboard-response","100","625514","0.0-1.0-1.49","../audio/teste-vocab--69.mp3","s","pingar","degoute"
"","null","html-keyboard-response","101","626032","0.0-1.0-0.50","+","null","",""
"","1920","audio-keyboard-response","102","627979","0.0-1.0-1.50","../audio/teste-vocab--22.mp3","s","quebrado","kraze"
"","null","html-keyboard-response","103","628492","0.0-1.0-0.51","+","null","",""
"","3960","audio-keyboard-response","104","632475","0.0-1.0-1.51","../audio/teste-vocab--27.mp3","s","rio","rivyè"
"","null","html-keyboard-response","105","632987","0.0-1.0-0.52","+","null","",""
"","8792","audio-keyboard-response","106","641802","0.0-1.0-1.52","../audio/teste-vocab--52.mp3","s","construção","konstriksyon"
"","null","html-keyboard-response","107","642311","0.0-1.0-0.53","+","null","",""
"","1981","audio-keyboard-response","108","644314","0.0-1.0-1.53","../audio/teste-vocab--09.mp3","s","vela","bouji"
"","null","html-keyboard-response","109","644821","0.0-1.0-0.54","+","null","",""
"","3160","audio-keyboard-response","110","647994","0.0-1.0-1.54","../audio/teste-vocab--81.mp3","s","judicial","jidisyè"
"","null","html-keyboard-response","111","648501","0.0-1.0-0.55","+","null","",""
"","4301","audio-keyboard-response","112","652826","0.0-1.0-1.55","../audio/teste-vocab--01.mp3","s","boneca","pope"
"","null","html-keyboard-response","113","653338","0.0-1.0-0.56","+","null","",""
"","9389","audio-keyboard-response","114","662746","0.0-1.0-1.56","../audio/teste-vocab--124.mp3","s","obelisco","obelisk"
"","null","html-keyboard-response","115","663251","0.0-1.0-0.57","+","null","",""
"","6928","audio-keyboard-response","116","670202","0.0-1.0-1.57","../audio/teste-vocab--07.mp3","n","abajur","lanp"
"","null","html-keyboard-response","117","670721","0.0-1.0-0.58","+","null","",""
"","13139","audio-keyboard-response","118","683882","0.0-1.0-1.58","../audio/teste-vocab--66.mp3","s","cooperação","koperasyon"
"","null","html-keyboard-response","119","684391","0.0-1.0-0.59","+","null","",""
"","2621","audio-keyboard-response","120","687034","0.0-1.0-1.59","../audio/teste-vocab--130.mp3","s","gentil","dou"
"","null","html-keyboard-response","121","687541","0.0-1.0-0.60","+","null","",""
"","27139","audio-keyboard-response","122","714691","0.0-1.0-1.60","../audio/teste-vocab--45.mp3","s","dentista","dantis"
"","null","html-keyboard-response","123","715204","0.0-1.0-0.61","+","null","",""
"","4331","audio-keyboard-response","124","719570","0.0-1.0-1.61","../audio/teste-vocab--05.mp3","s","limpar","netwaye"
"","null","html-keyboard-response","125","720084","0.0-1.0-0.62","+","null","",""
"","3059","audio-keyboard-response","126","723170","0.0-1.0-1.62","../audio/teste-vocab--86.mp3","s","pensar","panse"
"","null","html-keyboard-response","127","723684","0.0-1.0-0.63","+","null","",""
"","4179","audio-keyboard-response","128","727891","0.0-1.0-1.63","../audio/teste-vocab--72.mp3","s","ilha","zile"
"","null","html-keyboard-response","129","728404","0.0-1.0-0.64","+","null","",""
"","6179","audio-keyboard-response","130","734610","0.0-1.0-1.64","../audio/teste-vocab--73.mp3","s","ângulo","ang"
"","null","html-keyboard-response","131","735114","0.0-1.0-0.65","+","null","",""
"","4589","audio-keyboard-response","132","739731","0.0-1.0-1.65","../audio/teste-vocab--13.mp3","s","ambulância","anbilans"
"","null","html-keyboard-response","133","740235","0.0-1.0-0.66","+","null","",""
"","13659","audio-keyboard-response","134","753923","0.0-1.0-1.66","../audio/teste-vocab--37.mp3","s","músico","mizisyen"
"","null","html-keyboard-response","135","754424","0.0-1.0-0.67","+","null","",""
"","3920","audio-keyboard-response","136","758370","0.0-1.0-1.67","../audio/teste-vocab--99.mp3","n","arqueólogo","akeyológ"
"","null","html-keyboard-response","137","758874","0.0-1.0-0.68","+","null","",""
"","2421","audio-keyboard-response","138","761315","0.0-1.0-1.68","../audio/teste-vocab--23.mp3","s","acariciar","karese"
"","null","html-keyboard-response","139","761834","0.0-1.0-0.69","+","null","",""
"","3829","audio-keyboard-response","140","765683","0.0-1.0-1.69","../audio/teste-vocab--12.mp3","n","jaula","kaj"
"","null","html-keyboard-response","141","766193","0.0-1.0-0.70","+","null","",""
"","3720","audio-keyboard-response","142","769938","0.0-1.0-1.70","../audio/teste-vocab--128.mp3","n","incisivo","ensisiv"
"","null","html-keyboard-response","143","770454","0.0-1.0-0.71","+","null","",""
"","2792","audio-keyboard-response","144","773267","0.0-1.0-1.71","../audio/teste-vocab--65.mp3","s","discussão","diskisyon"
"","null","html-keyboard-response","145","773774","0.0-1.0-0.72","+","null","",""
"","3160","audio-keyboard-response","146","776959","0.0-1.0-1.72","../audio/teste-vocab--02.mp3","s","homem","gason"
"","null","html-keyboard-response","147","777460","0.0-1.0-0.73","+","null","",""
"","9589","audio-keyboard-response","148","787072","0.0-1.0-1.73","../audio/teste-vocab--96.mp3","s","árido","sechrès"
"","null","html-keyboard-response","149","787591","0.0-1.0-0.74","+","null","",""
"","2531","audio-keyboard-response","150","790143","0.0-1.0-1.74","../audio/teste-vocab--92.mp3","s","esférico","won"
"","null","html-keyboard-response","151","790661","0.0-1.0-0.75","+","null","",""
"","3421","audio-keyboard-response","152","794111","0.0-1.0-1.75","../audio/teste-vocab--121.mp3","s","atônito","sezi"
"","null","html-keyboard-response","153","794620","0.0-1.0-0.76","+","null","",""
"","12261","audio-keyboard-response","154","806911","0.0-1.0-1.76","../audio/teste-vocab--107.mp3","n","elo","emay"
"","null","html-keyboard-response","155","807430","0.0-1.0-0.77","+","null","",""
"","2560","audio-keyboard-response","156","810015","0.0-1.0-1.77","../audio/teste-vocab--62.mp3","s","carretel","bobin"
"","null","html-keyboard-response","157","810521","0.0-1.0-0.78","+","null","",""
"","8488","audio-keyboard-response","158","819039","0.0-1.0-1.78","../audio/teste-vocab--08.mp3","n","vaca","vach"
"","null","html-keyboard-response","159","819551","0.0-1.0-0.79","+","null","",""
"","6349","audio-keyboard-response","160","825919","0.0-1.0-1.79","../audio/teste-vocab--129.mp3","n","elipse","elips"
"","null","html-keyboard-response","161","826431","0.0-1.0-0.80","+","null","",""
"","4771","audio-keyboard-response","162","831231","0.0-1.0-1.80","../audio/teste-vocab--38.mp3","s","cerimônia","seremoni"
"","null","html-keyboard-response","163","831737","0.0-1.0-0.81","+","null","",""
"","7872","audio-keyboard-response","164","839638","0.0-1.0-1.81","../audio/teste-vocab--40.mp3","s","bebida","bwason"
"","null","html-keyboard-response","165","840148","0.0-1.0-0.82","+","null","",""
"","5949","audio-keyboard-response","166","846119","0.0-1.0-1.82","../audio/teste-vocab--95.mp3","s","submergir","plonje"
"","null","html-keyboard-response","167","846638","0.0-1.0-0.83","+","null","",""
"","12040","audio-keyboard-response","168","858695","0.0-1.0-1.83","../audio/teste-vocab--67.mp3","s","corrimão","ranp"
"","null","html-keyboard-response","169","859198","0.0-1.0-0.84","+","null","",""
"","3299","audio-keyboard-response","170","862519","0.0-1.0-1.84","../audio/teste-vocab--113.mp3","s","ascender","limen"
"","null","html-keyboard-response","171","863028","0.0-1.0-0.85","+","null","",""
"","2741","audio-keyboard-response","172","865783","0.0-1.0-1.85","../audio/teste-vocab--16.mp3","s","pescoço","kou"
"","null","html-keyboard-response","173","866288","0.0-1.0-0.86","+","null","",""
"","4029","audio-keyboard-response","174","870343","0.0-1.0-1.86","../audio/teste-vocab--109.mp3","n","anfíbio","anfibyen"
"","null","html-keyboard-response","175","870858","0.0-1.0-0.87","+","null","",""
"","2240","audio-keyboard-response","176","873111","0.0-1.0-1.87","../audio/teste-vocab--10.mp3","s","corneta","kòn"
"","null","html-keyboard-response","177","873628","0.0-1.0-0.88","+","null","",""
"","6720","audio-keyboard-response","178","880375","0.0-1.0-1.88","../audio/teste-vocab--112.mp3","s","aparição","aparisyon"
"","null","html-keyboard-response","179","880888","0.0-1.0-0.89","+","null","",""
"","1920","audio-keyboard-response","180","882823","0.0-1.0-1.89","../audio/teste-vocab--29.mp3","s","rasgar","chire"
"","null","html-keyboard-response","181","883328","0.0-1.0-0.90","+","null","",""
"","6320","audio-keyboard-response","182","889671","0.0-1.0-1.90","../audio/teste-vocab--127.mp3","s","côncavo","konkav"
"","null","html-keyboard-response","183","890188","0.0-1.0-0.91","+","null","",""
"","2021","audio-keyboard-response","184","892231","0.0-1.0-1.91","../audio/teste-vocab--11.mp3","s","joelho","jenou"
"","null","html-keyboard-response","185","892748","0.0-1.0-0.92","+","null","",""
"","2869","audio-keyboard-response","186","895639","0.0-1.0-1.92","../audio/teste-vocab--115.mp3","s","perpendicular","pèpandikilè"
"","null","html-keyboard-response","187","896158","0.0-1.0-0.93","+","null","",""
"","3419","audio-keyboard-response","188","899607","0.0-1.0-1.93","../audio/teste-vocab--42.mp3","s","isolamento","izòlman"
"","null","html-keyboard-response","189","900108","0.0-1.0-0.94","+","null","",""
"","3072","audio-keyboard-response","190","903190","0.0-1.0-1.94","../audio/teste-vocab--123.mp3","s","emissão","emisyon"
"","null","html-keyboard-response","191","903698","0.0-1.0-0.95","+","null","",""
"","7021","audio-keyboard-response","192","910742","0.0-1.0-1.95","../audio/teste-vocab--85.mp3","s","trio","trio"
"","null","html-keyboard-response","193","911248","0.0-1.0-0.96","+","null","",""
"","4240","audio-keyboard-response","194","915510","0.0-1.0-1.96","../audio/teste-vocab--116.mp3","n","vestuário","vestyè"
"","null","html-keyboard-response","195","916013","0.0-1.0-0.97","+","null","",""
"","6040","audio-keyboard-response","196","922070","0.0-1.0-1.97","../audio/teste-vocab--90.mp3","n","carniça","kanivò"
"","null","html-keyboard-response","197","922578","0.0-1.0-0.98","+","null","",""
"","3912","audio-keyboard-response","198","926519","0.0-1.0-1.98","../audio/teste-vocab--71.mp3","s","caule","tij"
"","null","html-keyboard-response","199","927021","0.0-1.0-0.99","+","null","",""
"","5491","audio-keyboard-response","200","932534","0.0-1.0-1.99","../audio/teste-vocab--93.mp3","s","felino","leopa"
"","null","html-keyboard-response","201","933038","0.0-1.0-0.100","+","null","",""
"","2200","audio-keyboard-response","202","935254","0.0-1.0-1.100","../audio/teste-vocab--32.mp3","s","descascar","dekale"
"","null","html-keyboard-response","203","935758","0.0-1.0-0.101","+","null","",""
"","6181","audio-keyboard-response","204","941958","0.0-1.0-1.101","../audio/teste-vocab--19.mp3","s","hora","è"
"","null","html-keyboard-response","205","942468","0.0-1.0-0.102","+","null","",""
"","3600","audio-keyboard-response","206","946086","0.0-1.0-1.102","../audio/teste-vocab--59.mp3","s","par","pè"
"","null","html-keyboard-response","207","946592","0.0-1.0-0.103","+","null","",""
"","6981","audio-keyboard-response","208","953590","0.0-1.0-1.103","../audio/teste-vocab--30.mp3","s","pintor","pent"
"","null","html-keyboard-response","209","954098","0.0-1.0-0.104","+","null","",""
"","3288","audio-keyboard-response","210","957399","0.0-1.0-1.104","../audio/teste-vocab--105.mp3","s","cítrico","sitrik"
"","null","html-keyboard-response","211","957918","0.0-1.0-0.105","+","null","",""
"","2699","audio-keyboard-response","212","960637","0.0-1.0-1.105","../audio/teste-vocab--120.mp3","s","induzir","pwovoke"
"","null","html-keyboard-response","213","961139","0.0-1.0-0.106","+","null","",""
"","2091","audio-keyboard-response","214","963245","0.0-1.0-1.106","../audio/teste-vocab--34.mp3","s","tronco","twon"
"","null","html-keyboard-response","215","963759","0.0-1.0-0.107","+","null","",""
"","4739","audio-keyboard-response","216","968525","0.0-1.0-1.107","../audio/teste-vocab--82.mp3","s","roer","ronje"
"","null","html-keyboard-response","217","969039","0.0-1.0-0.108","+","null","",""
"","2269","audio-keyboard-response","218","971325","0.0-1.0-1.108","../audio/teste-vocab--68.mp3","s","surpreendido","sezi"
"","null","html-keyboard-response","219","971829","0.0-1.0-0.109","+","null","",""
"","1789","audio-keyboard-response","220","973645","0.0-1.0-1.109","../audio/teste-vocab--49.mp3","s","humano","moun"
"","null","html-keyboard-response","221","974159","0.0-1.0-0.110","+","null","",""
"","1888","audio-keyboard-response","222","976077","0.0-1.0-1.110","../audio/teste-vocab--39.mp3","s","cobra","koulèv"
"","null","html-keyboard-response","223","976589","0.0-1.0-0.111","+","null","",""
"","3381","audio-keyboard-response","224","979981","0.0-1.0-1.111","../audio/teste-vocab--114.mp3","s","fragmentar","dechire"
"","null","html-keyboard-response","225","980499","0.0-1.0-0.112","+","null","",""
"","2101","audio-keyboard-response","226","982621","0.0-1.0-1.112","../audio/teste-vocab--119.mp3","s","numeroso","anpil"
"","null","html-keyboard-response","227","983138","0.0-1.0-0.113","+","null","",""
"","3541","audio-keyboard-response","228","986701","0.0-1.0-1.113","../audio/teste-vocab--60.mp3","s","secretaria","sekretè"
"","null","html-keyboard-response","229","987208","0.0-1.0-0.114","+","null","",""
"","2381","audio-keyboard-response","230","989613","0.0-1.0-1.114","../audio/teste-vocab--70.mp3","s","funil","antónwa"
"","null","html-keyboard-response","231","990119","0.0-1.0-0.115","+","null","",""
"","1419","audio-keyboard-response","232","991565","0.0-1.0-1.115","../audio/teste-vocab--108.mp3","s","moradia","kay"
"","null","html-keyboard-response","233","992079","0.0-1.0-0.116","+","null","",""
"","5109","audio-keyboard-response","234","997213","0.0-1.0-1.116","../audio/teste-vocab--98.mp3","s","instruir","enstwi"
"","null","html-keyboard-response","235","997729","0.0-1.0-0.117","+","null","",""
"","2531","audio-keyboard-response","236","1000285","0.0-1.0-1.117","../audio/teste-vocab--89.mp3","s","classificar","klasifika"
"","null","html-keyboard-response","237","1000789","0.0-1.0-0.118","+","null","",""
"","1920","audio-keyboard-response","238","1002733","0.0-1.0-1.118","../audio/teste-vocab--41.mp3","s","médico","doktè,"
"","null","html-keyboard-response","239","1003249","0.0-1.0-0.119","+","null","",""
"","2539","audio-keyboard-response","240","1005805","0.0-1.0-1.119","../audio/teste-vocab--125.mp3","s","lamaçal","labou"
"","null","html-keyboard-response","241","1006319","0.0-1.0-0.120","+","null","",""
"","2371","audio-keyboard-response","242","1008701","0.0-1.0-1.120","../audio/teste-vocab--06.mp3","s","barco","bato"
"","null","html-keyboard-response","243","1009219","0.0-1.0-0.121","+","null","",""
"","3851","audio-keyboard-response","244","1013085","0.0-1.0-1.121","../audio/teste-vocab--76.mp3","s","arquivar","achive"
"","null","html-keyboard-response","245","1013599","0.0-1.0-0.122","+","null","",""
"","7808","audio-keyboard-response","246","1021436","0.0-1.0-1.122","../audio/teste-vocab--91.mp3","n","bússola","bousòl"
"","null","html-keyboard-response","247","1021948","0.0-1.0-0.123","+","null","",""
"","1629","audio-keyboard-response","248","1023596","0.0-1.0-1.123","../audio/teste-vocab--21.mp3","s","baleia","balèn"
"","null","html-keyboard-response","249","1024098","0.0-1.0-0.124","+","null","",""
"","4861","audio-keyboard-response","250","1028988","0.0-1.0-1.124","../audio/teste-vocab--53.mp3","s","orientar","oryante"
"","null","html-keyboard-response","251","1029498","0.0-1.0-0.125","+","null","",""
"","2541","audio-keyboard-response","252","1032060","0.0-1.0-1.125","../audio/teste-vocab--50.mp3","s","artista","atis"
"","null","html-keyboard-response","253","1032578","0.0-1.0-0.126","+","null","",""
"","4960","audio-keyboard-response","254","1037564","0.0-1.0-1.126","../audio/teste-vocab--118.mp3","s","paralelogramo","paralelogram"
"","null","html-keyboard-response","255","1038078","0.0-1.0-0.127","+","null","",""
"","2939","audio-keyboard-response","256","1041036","0.0-1.0-1.127","../audio/teste-vocab--28.mp3","s","águia","èg"
"","null","html-keyboard-response","257","1041538","0.0-1.0-0.128","+","null","",""
"","2331","audio-keyboard-response","258","1043884","0.0-1.0-1.128","../audio/teste-vocab--102.mp3","s","arrogante","arogan"
"","null","html-keyboard-response","259","1044388","0.0-1.0-0.129","+","null","",""
"","3411","audio-keyboard-response","260","1047820","0.0-1.0-1.129","../audio/teste-vocab--63.mp3","s","transparente","transparan"
