[
	{
		"view_history": [
			{
				"page_index": 0,
				"viewing_time": 61407
			},
			{
				"page_index": 1,
				"viewing_time": 1168
			}
		],
		"rt": 62576,
		"trial_type": "instructions",
		"trial_index": 0,
		"time_elapsed": 62578,
		"internal_node_id": "0.0-0.0"
	},
	{
		"rt": null,
		"stimulus": "<span style= \"font-size:30px; font-family: monospace\">+</span>",
		"response": null,
		"trial_part": "fixation",
		"trial_type": "html-keyboard-response",
		"trial_index": 1,
		"time_elapsed": 63697,
		"internal_node_id": "0.0-1.0-0.0-0.0"
	},
	{
		"rt": 10301,
		"stimulus": "../audio/prac-question-1-1.mp3",
		"response": " ",
		"word": "O",
		"trial_type": "audio-keyboard-response",
		"trial_index": 2,
		"time_elapsed": 75036,
		"internal_node_id": "0.0-1.0-1.0"
	},
	{
		"rt": 3760,
		"stimulus": "../audio/prac-question-1-2.mp3",
		"response": " ",
		"word": "dia",
		"trial_type": "audio-keyboard-response",
		"trial_index": 3,
		"time_elapsed": 79091,
		"internal_node_id": "0.0-1.0-1.1"
	},
	{
		"rt": 2661,
		"stimulus": "../audio/prac-question-1-3.mp3",
		"response": " ",
		"word": "estará",
		"trial_type": "audio-keyboard-response",
		"trial_index": 4,
		"time_elapsed": 82040,
		"internal_node_id": "0.0-1.0-1.2"
	},
	{
		"rt": 21,
		"stimulus": "../audio/prac-question-1-4.mp3",
		"response": " ",
		"word": "cheio",
		"trial_type": "audio-keyboard-response",
		"trial_index": 5,
		"time_elapsed": 82353,
		"internal_node_id": "0.0-1.0-1.3"
	},
	{
		"rt": 2509,
		"stimulus": "../audio/prac-question-1-5.mp3",
		"response": " ",
		"word": "de",
		"trial_type": "audio-keyboard-response",
		"trial_index": 6,
		"time_elapsed": 85175,
		"internal_node_id": "0.0-1.0-1.4"
	},
	{
		"rt": 3808,
		"stimulus": "../audio/prac-question-1-6.mp3",
		"response": " ",
		"word": "nuvens",
		"trial_type": "audio-keyboard-response",
		"trial_index": 7,
		"time_elapsed": 89289,
		"internal_node_id": "0.0-1.0-1.5"
	},
	{
		"rt": 3491,
		"stimulus": "../audio/prac-question-1-7.mp3",
		"response": " ",
		"word": "hoje.",
		"trial_type": "audio-keyboard-response",
		"trial_index": 8,
		"time_elapsed": 93064,
		"internal_node_id": "0.0-1.0-1.6"
	},
	{
		"rt": null,
		"stimulus": "<span style= \"font-size:30px; font-family: monospace\">+</span>",
		"response": null,
		"trial_part": "fixation",
		"trial_type": "html-keyboard-response",
		"trial_index": 9,
		"time_elapsed": 94325,
		"internal_node_id": "0.0-1.0-0.7-0.7"
	},
	{
		"rt": 2280,
		"stimulus": "../audio/prac-question-2-1.mp3",
		"response": " ",
		"word": "A",
		"trial_type": "audio-keyboard-response",
		"trial_index": 10,
		"time_elapsed": 96898,
		"internal_node_id": "0.0-1.0-1.7"
	},
	{
		"rt": 1800,
		"stimulus": "../audio/prac-question-2-2.mp3",
		"response": " ",
		"word": "caneca",
		"trial_type": "audio-keyboard-response",
		"trial_index": 11,
		"time_elapsed": 98991,
		"internal_node_id": "0.0-1.0-1.8"
	},
	{
		"rt": 1832,
		"stimulus": "../audio/prac-question-2-3.mp3",
		"response": " ",
		"word": "colorida",
		"trial_type": "audio-keyboard-response",
		"trial_index": 12,
		"time_elapsed": 101126,
		"internal_node_id": "0.0-1.0-1.9"
	},
	{
		"rt": 1149,
		"stimulus": "../audio/prac-question-2-4.mp3",
		"response": " ",
		"word": "caiu",
		"trial_type": "audio-keyboard-response",
		"trial_index": 13,
		"time_elapsed": 102581,
		"internal_node_id": "0.0-1.0-1.10"
	},
	{
		"rt": 760,
		"stimulus": "../audio/prac-question-2-5.mp3",
		"response": " ",
		"word": "da",
		"trial_type": "audio-keyboard-response",
		"trial_index": 14,
		"time_elapsed": 103629,
		"internal_node_id": "0.0-1.0-1.11"
	},
	{
		"rt": 672,
		"stimulus": "../audio/prac-question-2-6.mp3",
		"response": " ",
		"word": "mesa",
		"trial_type": "audio-keyboard-response",
		"trial_index": 15,
		"time_elapsed": 104598,
		"internal_node_id": "0.0-1.0-1.12"
	},
	{
		"rt": 821,
		"stimulus": "../audio/prac-question-2-7.mp3",
		"response": " ",
		"word": "de",
		"trial_type": "audio-keyboard-response",
		"trial_index": 16,
		"time_elapsed": 105712,
		"internal_node_id": "0.0-1.0-1.13"
	},
	{
		"rt": 1432,
		"stimulus": "../audio/prac-question-2-8.mp3",
		"response": " ",
		"word": "jantar.",
		"trial_type": "audio-keyboard-response",
		"trial_index": 17,
		"time_elapsed": 107444,
		"internal_node_id": "0.0-1.0-1.14"
	},
	{
		"rt": 4395,
		"stimulus": "<span style=\"font-size:25px; font-family: monospace\">A caneca era colorida?</span>",
		"response": "s",
		"question": "A caneca era colorida?",
		"answer": "null",
		"trial": "prac-sent",
		"trial_type": "html-keyboard-response",
		"trial_index": 18,
		"time_elapsed": 112096,
		"internal_node_id": "0.0-1.0-2.14-0.14",
		"accuracy": false
	},
	{
		"view_history": [
			{
				"page_index": 0,
				"viewing_time": 8520
			}
		],
		"rt": 8520,
		"trial_type": "instructions",
		"trial_index": 19,
		"time_elapsed": 121133,
		"internal_node_id": "0.0-2.0"
	},
	{
		"rt": null,
		"stimulus": "<span style= \"font-size:30px; font-family: monospace\">+</span>",
		"response": null,
		"trial_part": "fixation",
		"trial_type": "html-keyboard-response",
		"trial_index": 20,
		"time_elapsed": 122252,
		"internal_node_id": "0.0-3.0-0.0-0.0"
	},
	{
		"rt": 1949,
		"stimulus": "../audio/64-1-fem.mp3",
		"response": " ",
		"word": "O",
		"trial_type": "audio-keyboard-response",
		"trial_index": 21,
		"time_elapsed": 124507,
		"internal_node_id": "0.0-3.0-1.0"
	},
	{
		"rt": 1192,
		"stimulus": "../audio/64-2-fem.mp3",
		"response": " ",
		"word": "dia",
		"trial_type": "audio-keyboard-response",
		"trial_index": 22,
		"time_elapsed": 126004,
		"internal_node_id": "0.0-3.0-1.1"
	},
	{
		"rt": 1981,
		"stimulus": "../audio/64-3-fem.mp3",
		"response": " ",
		"word": "começou",
		"trial_type": "audio-keyboard-response",
		"trial_index": 23,
		"time_elapsed": 128282,
		"internal_node_id": "0.0-3.0-1.2"
	},
	{
		"rt": 1309,
		"stimulus": "../audio/64-4-fem.mp3",
		"response": " ",
		"word": "com",
		"trial_type": "audio-keyboard-response",
		"trial_index": 24,
		"time_elapsed": 129897,
		"internal_node_id": "0.0-3.0-1.3"
	},
	{
		"rt": 1600,
		"stimulus": "../audio/64-5-fem.mp3",
		"response": " ",
		"word": "garoa",
		"trial_type": "audio-keyboard-response",
		"trial_index": 25,
		"time_elapsed": 131768,
		"internal_node_id": "0.0-3.0-1.4"
	},
	{
		"rt": 1661,
		"stimulus": "../audio/64-6-fem.mp3",
		"response": " ",
		"word": "gelada",
		"trial_type": "audio-keyboard-response",
		"trial_index": 26,
		"time_elapsed": 133718,
		"internal_node_id": "0.0-3.0-1.5"
	},
	{
		"rt": 1192,
		"stimulus": "../audio/64-7-fem.mp3",
		"response": " ",
		"word": "e",
		"trial_type": "audio-keyboard-response",
		"trial_index": 27,
		"time_elapsed": 135199,
		"internal_node_id": "0.0-3.0-1.6"
	},
	{
		"rt": 1811,
		"stimulus": "../audio/64-8-fem.mp3",
		"response": " ",
		"word": "leve.",
		"trial_type": "audio-keyboard-response",
		"trial_index": 28,
		"time_elapsed": 137304,
		"internal_node_id": "0.0-3.0-1.7"
	},
	{
		"rt": null,
		"stimulus": "<span style= \"font-size:30px; font-family: monospace\">+</span>",
		"response": null,
		"trial_part": "fixation",
		"trial_type": "html-keyboard-response",
		"trial_index": 29,
		"time_elapsed": 138568,
		"internal_node_id": "0.0-3.0-0.8-0.8"
	},
	{
		"rt": 1720,
		"stimulus": "../audio/61-1-fem.mp3",
		"response": " ",
		"word": "Aquele",
		"trial_type": "audio-keyboard-response",
		"trial_index": 30,
		"time_elapsed": 140643,
		"internal_node_id": "0.0-3.0-1.8"
	},
	{
		"rt": 1821,
		"stimulus": "../audio/61-2-fem.mp3",
		"response": " ",
		"word": "senhor",
		"trial_type": "audio-keyboard-response",
		"trial_index": 31,
		"time_elapsed": 142842,
		"internal_node_id": "0.0-3.0-1.9"
	},
	{
		"rt": 1019,
		"stimulus": "../audio/61-3-fem.mp3",
		"response": " ",
		"word": "é",
		"trial_type": "audio-keyboard-response",
		"trial_index": 32,
		"time_elapsed": 144257,
		"internal_node_id": "0.0-3.0-1.10"
	},
	{
		"rt": 1360,
		"stimulus": "../audio/61-4-fem.mp3",
		"response": " ",
		"word": "muito",
		"trial_type": "audio-keyboard-response",
		"trial_index": 33,
		"time_elapsed": 145948,
		"internal_node_id": "0.0-3.0-1.11"
	},
	{
		"rt": 1480,
		"stimulus": "../audio/61-5-fem.mp3",
		"response": " ",
		"word": "sovina",
		"trial_type": "audio-keyboard-response",
		"trial_index": 34,
		"time_elapsed": 147781,
		"internal_node_id": "0.0-3.0-1.12"
	},
	{
		"rt": 1120,
		"stimulus": "../audio/61-6-fem.mp3",
		"response": " ",
		"word": "e",
		"trial_type": "audio-keyboard-response",
		"trial_index": 35,
		"time_elapsed": 149246,
		"internal_node_id": "0.0-3.0-1.13"
	},
	{
		"rt": 1880,
		"stimulus": "../audio/61-7-fem.mp3",
		"response": " ",
		"word": "inflexível.",
		"trial_type": "audio-keyboard-response",
		"trial_index": 36,
		"time_elapsed": 151453,
		"internal_node_id": "0.0-3.0-1.14"
	},
	{
		"rt": null,
		"stimulus": "<span style= \"font-size:30px; font-family: monospace\">+</span>",
		"response": null,
		"trial_part": "fixation",
		"trial_type": "html-keyboard-response",
		"trial_index": 37,
		"time_elapsed": 152722,
		"internal_node_id": "0.0-3.0-0.15-0.15"
	},
	{
		"rt": 1429,
		"stimulus": "../audio/62-1-fem.mp3",
		"response": " ",
		"word": "As",
		"trial_type": "audio-keyboard-response",
		"trial_index": 38,
		"time_elapsed": 154533,
		"internal_node_id": "0.0-3.0-1.15"
	},
	{
		"rt": 1528,
		"stimulus": "../audio/62-2-fem.mp3",
		"response": " ",
		"word": "artesãs",
		"trial_type": "audio-keyboard-response",
		"trial_index": 39,
		"time_elapsed": 156415,
		"internal_node_id": "0.0-3.0-1.16"
	},
	{
		"rt": 1181,
		"stimulus": "../audio/62-3-fem.mp3",
		"response": " ",
		"word": "gostam",
		"trial_type": "audio-keyboard-response",
		"trial_index": 40,
		"time_elapsed": 157918,
		"internal_node_id": "0.0-3.0-1.17"
	},
	{
		"rt": 1259,
		"stimulus": "../audio/62-4-fem.mp3",
		"response": " ",
		"word": "de",
		"trial_type": "audio-keyboard-response",
		"trial_index": 41,
		"time_elapsed": 159503,
		"internal_node_id": "0.0-3.0-1.18"
	},
	{
		"rt": 1688,
		"stimulus": "../audio/62-5-fem.mp3",
		"response": " ",
		"word": "maquiagem",
		"trial_type": "audio-keyboard-response",
		"trial_index": 42,
		"time_elapsed": 161529,
		"internal_node_id": "0.0-3.0-1.19"
	},
	{
		"rt": 1019,
		"stimulus": "../audio/62-6-fem.mp3",
		"response": " ",
		"word": "e",
		"trial_type": "audio-keyboard-response",
		"trial_index": 43,
		"time_elapsed": 162898,
		"internal_node_id": "0.0-3.0-1.20"
	},
	{
		"rt": 1229,
		"stimulus": "../audio/62-7-fem.mp3",
		"response": " ",
		"word": "de",
		"trial_type": "audio-keyboard-response",
		"trial_index": 44,
		"time_elapsed": 164466,
		"internal_node_id": "0.0-3.0-1.21"
	},
	{
		"rt": 1339,
		"stimulus": "../audio/62-8-fem.mp3",
		"response": " ",
		"word": "crochê.",
		"trial_type": "audio-keyboard-response",
		"trial_index": 45,
		"time_elapsed": 166137,
		"internal_node_id": "0.0-3.0-1.22"
	},
	{
		"rt": null,
		"stimulus": "<span style= \"font-size:30px; font-family: monospace\">+</span>",
		"response": null,
		"trial_part": "fixation",
		"trial_type": "html-keyboard-response",
		"trial_index": 46,
		"time_elapsed": 167405,
		"internal_node_id": "0.0-3.0-0.23-0.23"
	},
	{
		"rt": 1808,
		"stimulus": "../audio/63-1-fem.mp3",
		"response": " ",
		"word": "A",
		"trial_type": "audio-keyboard-response",
		"trial_index": 47,
		"time_elapsed": 169573,
		"internal_node_id": "0.0-3.0-1.23"
	},
	{
		"rt": 1659,
		"stimulus": "../audio/63-2-fem.mp3",
		"response": " ",
		"word": "chuva",
		"trial_type": "audio-keyboard-response",
		"trial_index": 48,
		"time_elapsed": 171623,
		"internal_node_id": "0.0-3.0-1.24"
	},
	{
		"rt": 1371,
		"stimulus": "../audio/63-3-fem.mp3",
		"response": " ",
		"word": "entrou",
		"trial_type": "audio-keyboard-response",
		"trial_index": 49,
		"time_elapsed": 173327,
		"internal_node_id": "0.0-3.0-1.25"
	},
	{
		"rt": 1069,
		"stimulus": "../audio/63-4-fem.mp3",
		"response": " ",
		"word": "pela",
		"trial_type": "audio-keyboard-response",
		"trial_index": 50,
		"time_elapsed": 174736,
		"internal_node_id": "0.0-3.0-1.26"
	},
	{
		"rt": 1488,
		"stimulus": "../audio/63-5-fem.mp3",
		"response": " ",
		"word": "abertura",
		"trial_type": "audio-keyboard-response",
		"trial_index": 51,
		"time_elapsed": 176571,
		"internal_node_id": "0.0-3.0-1.27"
	},
	{
		"rt": 1429,
		"stimulus": "../audio/63-6-fem.mp3",
		"response": " ",
		"word": "na",
		"trial_type": "audio-keyboard-response",
		"trial_index": 52,
		"time_elapsed": 178329,
		"internal_node_id": "0.0-3.0-1.28"
	},
	{
		"rt": 2771,
		"stimulus": "../audio/63-7-fem.mp3",
		"response": " ",
		"word": "janela.",
		"trial_type": "audio-keyboard-response",
		"trial_index": 53,
		"time_elapsed": 181417,
		"internal_node_id": "0.0-3.0-1.29"
	},
	{
		"rt": null,
		"stimulus": "<span style= \"font-size:30px; font-family: monospace\">+</span>",
		"response": null,
		"trial_part": "fixation",
		"trial_type": "html-keyboard-response",
		"trial_index": 54,
		"time_elapsed": 182685,
		"internal_node_id": "0.0-3.0-0.30-0.30"
	},
	{
		"rt": 1960,
		"stimulus": "../audio/65-1-masc.mp3",
		"response": " ",
		"word": "O",
		"trial_type": "audio-keyboard-response",
		"trial_index": 55,
		"time_elapsed": 184940,
		"internal_node_id": "0.0-3.0-1.30"
	},
	{
		"rt": 1499,
		"stimulus": "../audio/65-2-masc.mp3",
		"response": " ",
		"word": "fantasma",
		"trial_type": "audio-keyboard-response",
		"trial_index": 56,
		"time_elapsed": 186747,
		"internal_node_id": "0.0-3.0-1.31"
	},
	{
		"rt": 1352,
		"stimulus": "../audio/65-3-masc.mp3",
		"response": " ",
		"word": "veio",
		"trial_type": "audio-keyboard-response",
		"trial_index": 57,
		"time_elapsed": 188401,
		"internal_node_id": "0.0-3.0-1.32"
	},
	{
		"rt": 941,
		"stimulus": "../audio/65-4-masc.mp3",
		"response": " ",
		"word": "da",
		"trial_type": "audio-keyboard-response",
		"trial_index": 58,
		"time_elapsed": 189645,
		"internal_node_id": "0.0-3.0-1.33"
	},
	{
		"rt": 1712,
		"stimulus": "../audio/65-5-masc.mp3",
		"response": " ",
		"word": "escuridão",
		"trial_type": "audio-keyboard-response",
		"trial_index": 59,
		"time_elapsed": 191639,
		"internal_node_id": "0.0-3.0-1.34"
	},
	{
		"rt": 1229,
		"stimulus": "../audio/65-6-masc.mp3",
		"response": " ",
		"word": "do",
		"trial_type": "audio-keyboard-response",
		"trial_index": 60,
		"time_elapsed": 193168,
		"internal_node_id": "0.0-3.0-1.35"
	},
	{
		"rt": 1280,
		"stimulus": "../audio/65-7-masc.mp3",
		"response": " ",
		"word": "armário.",
		"trial_type": "audio-keyboard-response",
		"trial_index": 61,
		"time_elapsed": 194740,
		"internal_node_id": "0.0-3.0-1.36"
	},
	{
		"rt": 5615,
		"stimulus": "<span style=\"font-size:25px; font-family: monospace\">O fantasma veio da escuridão do armário?</span>",
		"response": "s",
		"question": "O fantasma veio da escuridão do armário?",
		"answer": "null",
		"trial": "exp-sent",
		"trial_type": "html-keyboard-response",
		"trial_index": 62,
		"time_elapsed": 200614,
		"internal_node_id": "0.0-3.0-2.36-0.36",
		"accuracy": false
	},
	{
		"rt": null,
		"stimulus": "<span style= \"font-size:30px; font-family: monospace\">+</span>",
		"response": null,
		"trial_part": "fixation",
		"trial_type": "html-keyboard-response",
		"trial_index": 63,
		"time_elapsed": 202132,
		"internal_node_id": "0.0-3.0-0.37-0.37"
	},
	{
		"rt": 2051,
		"stimulus": "../audio/48-1-masc.mp3",
		"response": " ",
		"word": "Ela",
		"trial_type": "audio-keyboard-response",
		"trial_index": 64,
		"time_elapsed": 204555,
		"internal_node_id": "0.0-3.0-1.37"
	},
	{
		"rt": 1099,
		"stimulus": "../audio/48-2-masc.mp3",
		"response": " ",
		"word": "come",
		"trial_type": "audio-keyboard-response",
		"trial_index": 65,
		"time_elapsed": 206018,
		"internal_node_id": "0.0-3.0-1.38"
	},
	{
		"rt": 1061,
		"stimulus": "../audio/48-3-masc.mp3",
		"response": " ",
		"word": "feijão",
		"trial_type": "audio-keyboard-response",
		"trial_index": 66,
		"time_elapsed": 207398,
		"internal_node_id": "0.0-3.0-1.39"
	},
	{
		"rt": 851,
		"stimulus": "../audio/48-4-masc.mp3",
		"response": " ",
		"word": "com",
		"trial_type": "audio-keyboard-response",
		"trial_index": 67,
		"time_elapsed": 208561,
		"internal_node_id": "0.0-3.0-1.40"
	},
	{
		"rt": 1160,
		"stimulus": "../audio/48-5-masc.mp3",
		"response": " ",
		"word": "arroz",
		"trial_type": "audio-keyboard-response",
		"trial_index": 68,
		"time_elapsed": 210078,
		"internal_node_id": "0.0-3.0-1.41"
	},
	{
		"rt": 1080,
		"stimulus": "../audio/48-6-masc.mp3",
		"response": " ",
		"word": "todos",
		"trial_type": "audio-keyboard-response",
		"trial_index": 69,
		"time_elapsed": 211500,
		"internal_node_id": "0.0-3.0-1.42"
	},
	{
		"rt": 939,
		"stimulus": "../audio/48-7-masc.mp3",
		"response": " ",
		"word": "os",
		"trial_type": "audio-keyboard-response",
		"trial_index": 70,
		"time_elapsed": 212808,
		"internal_node_id": "0.0-3.0-1.43"
	},
	{
		"rt": 1240,
		"stimulus": "../audio/48-8-masc.mp3",
		"response": " ",
		"word": "dias.",
		"trial_type": "audio-keyboard-response",
		"trial_index": 71,
		"time_elapsed": 214419,
		"internal_node_id": "0.0-3.0-1.44"
	},
	{
		"rt": null,
		"stimulus": "<span style= \"font-size:30px; font-family: monospace\">+</span>",
		"response": null,
		"trial_part": "fixation",
		"trial_type": "html-keyboard-response",
		"trial_index": 72,
		"time_elapsed": 215686,
		"internal_node_id": "0.0-3.0-0.45-0.45"
	},
	{
		"rt": 829,
		"stimulus": "../audio/47-1-masc.mp3",
		"response": " ",
		"word": "O",
		"trial_type": "audio-keyboard-response",
		"trial_index": 73,
		"time_elapsed": 216907,
		"internal_node_id": "0.0-3.0-1.45"
	},
	{
		"rt": 1000,
		"stimulus": "../audio/47-2-masc.mp3",
		"response": " ",
		"word": "tio",
		"trial_type": "audio-keyboard-response",
		"trial_index": 74,
		"time_elapsed": 218246,
		"internal_node_id": "0.0-3.0-1.46"
	},
	{
		"rt": 1280,
		"stimulus": "../audio/47-3-masc.mp3",
		"response": " ",
		"word": "recusou",
		"trial_type": "audio-keyboard-response",
		"trial_index": 75,
		"time_elapsed": 219859,
		"internal_node_id": "0.0-3.0-1.47"
	},
	{
		"rt": 1040,
		"stimulus": "../audio/47-4-masc.mp3",
		"response": " ",
		"word": "a",
		"trial_type": "audio-keyboard-response",
		"trial_index": 76,
		"time_elapsed": 221230,
		"internal_node_id": "0.0-3.0-1.48"
	},
	{
		"rt": 1451,
		"stimulus": "../audio/47-5-masc.mp3",
		"response": " ",
		"word": "sobremesa",
		"trial_type": "audio-keyboard-response",
		"trial_index": 77,
		"time_elapsed": 223019,
		"internal_node_id": "0.0-3.0-1.49"
	},
	{
		"rt": 1139,
		"stimulus": "../audio/47-6-masc.mp3",
		"response": " ",
		"word": "no",
		"trial_type": "audio-keyboard-response",
		"trial_index": 78,
		"time_elapsed": 224498,
		"internal_node_id": "0.0-3.0-1.50"
	},
	{
		"rt": 1229,
		"stimulus": "../audio/47-7-masc.mp3",
		"response": " ",
		"word": "almoço.",
		"trial_type": "audio-keyboard-response",
		"trial_index": 79,
		"time_elapsed": 226060,
		"internal_node_id": "0.0-3.0-1.51"
	},
	{
		"rt": null,
		"stimulus": "<span style= \"font-size:30px; font-family: monospace\">+</span>",
		"response": null,
		"trial_part": "fixation",
		"trial_type": "html-keyboard-response",
		"trial_index": 80,
		"time_elapsed": 227333,
		"internal_node_id": "0.0-3.0-0.52-0.52"
	},
	{
		"rt": 989,
		"stimulus": "../audio/46-1-masc.mp3",
		"response": " ",
		"word": "Meu",
		"trial_type": "audio-keyboard-response",
		"trial_index": 81,
		"time_elapsed": 228618,
		"internal_node_id": "0.0-3.0-1.52"
	},
	{
		"rt": 971,
		"stimulus": "../audio/46-2-masc.mp3",
		"response": " ",
		"word": "primo",
		"trial_type": "audio-keyboard-response",
		"trial_index": 82,
		"time_elapsed": 229877,
		"internal_node_id": "0.0-3.0-1.53"
	},
	{
		"rt": 1051,
		"stimulus": "../audio/46-3-masc.mp3",
		"response": " ",
		"word": "estava",
		"trial_type": "audio-keyboard-response",
		"trial_index": 83,
		"time_elapsed": 231220,
		"internal_node_id": "0.0-3.0-1.54"
	},
	{
		"rt": 960,
		"stimulus": "../audio/46-4-masc.mp3",
		"response": " ",
		"word": "muito",
		"trial_type": "audio-keyboard-response",
		"trial_index": 84,
		"time_elapsed": 232485,
		"internal_node_id": "0.0-3.0-1.55"
	},
	{
		"rt": 1229,
		"stimulus": "../audio/46-5-masc.mp3",
		"response": " ",
		"word": "deprimido",
		"trial_type": "audio-keyboard-response",
		"trial_index": 85,
		"time_elapsed": 234013,
		"internal_node_id": "0.0-3.0-1.56"
	},
	{
		"rt": 1069,
		"stimulus": "../audio/46-6-masc.mp3",
		"response": " ",
		"word": "no",
		"trial_type": "audio-keyboard-response",
		"trial_index": 86,
		"time_elapsed": 235386,
		"internal_node_id": "0.0-3.0-1.57"
	},
	{
		"rt": 1499,
		"stimulus": "../audio/46-7-masc.mp3",
		"response": " ",
		"word": "inverno.",
		"trial_type": "audio-keyboard-response",
		"trial_index": 87,
		"time_elapsed": 237177,
		"internal_node_id": "0.0-3.0-1.58"
	},
	{
		"rt": null,
		"stimulus": "<span style= \"font-size:30px; font-family: monospace\">+</span>",
		"response": null,
		"trial_part": "fixation",
		"trial_type": "html-keyboard-response",
		"trial_index": 88,
		"time_elapsed": 238451,
		"internal_node_id": "0.0-3.0-0.59-0.59"
	},
	{
		"rt": 1501,
		"stimulus": "../audio/49-1-fem.mp3",
		"response": " ",
		"word": "Eu",
		"trial_type": "audio-keyboard-response",
		"trial_index": 89,
		"time_elapsed": 240312,
		"internal_node_id": "0.0-3.0-1.59"
	},
	{
		"rt": 1189,
		"stimulus": "../audio/49-2-fem.mp3",
		"response": " ",
		"word": "quero",
		"trial_type": "audio-keyboard-response",
		"trial_index": 90,
		"time_elapsed": 241829,
		"internal_node_id": "0.0-3.0-1.60"
	},
	{
		"rt": 941,
		"stimulus": "../audio/49-3-fem.mp3",
		"response": " ",
		"word": "um",
		"trial_type": "audio-keyboard-response",
		"trial_index": 91,
		"time_elapsed": 243114,
		"internal_node_id": "0.0-3.0-1.61"
	},
	{
		"rt": 1440,
		"stimulus": "../audio/49-4-fem.mp3",
		"response": " ",
		"word": "lanche",
		"trial_type": "audio-keyboard-response",
		"trial_index": 92,
		"time_elapsed": 244883,
		"internal_node_id": "0.0-3.0-1.62"
	},
	{
		"rt": 1309,
		"stimulus": "../audio/49-5-fem.mp3",
		"response": " ",
		"word": "duplo",
		"trial_type": "audio-keyboard-response",
		"trial_index": 93,
		"time_elapsed": 246530,
		"internal_node_id": "0.0-3.0-1.63"
	},
	{
		"rt": 909,
		"stimulus": "../audio/49-6-fem.mp3",
		"response": " ",
		"word": "e",
		"trial_type": "audio-keyboard-response",
		"trial_index": 94,
		"time_elapsed": 247769,
		"internal_node_id": "0.0-3.0-1.64"
	},
	{
		"rt": 1299,
		"stimulus": "../audio/49-7-fem.mp3",
		"response": " ",
		"word": "um",
		"trial_type": "audio-keyboard-response",
		"trial_index": 95,
		"time_elapsed": 249407,
		"internal_node_id": "0.0-3.0-1.65"
	},
	{
		"rt": 1371,
		"stimulus": "../audio/49-8-fem.mp3",
		"response": " ",
		"word": "suco.",
		"trial_type": "audio-keyboard-response",
		"trial_index": 96,
		"time_elapsed": 251105,
		"internal_node_id": "0.0-3.0-1.66"
	},
	{
		"rt": null,
		"stimulus": "<span style= \"font-size:30px; font-family: monospace\">+</span>",
		"response": null,
		"trial_part": "fixation",
		"trial_type": "html-keyboard-response",
		"trial_index": 97,
		"time_elapsed": 252371,
		"internal_node_id": "0.0-3.0-0.67-0.67"
	},
	{
		"rt": 851,
		"stimulus": "../audio/50-1-fem.mp3",
		"response": " ",
		"word": "O",
		"trial_type": "audio-keyboard-response",
		"trial_index": 98,
		"time_elapsed": 253593,
		"internal_node_id": "0.0-3.0-1.67"
	},
	{
		"rt": 1581,
		"stimulus": "../audio/50-2-fem.mp3",
		"response": " ",
		"word": "pássaro",
		"trial_type": "audio-keyboard-response",
		"trial_index": 99,
		"time_elapsed": 255509,
		"internal_node_id": "0.0-3.0-1.68"
	},
	{
		"rt": 1189,
		"stimulus": "../audio/50-3-fem.mp3",
		"response": " ",
		"word": "fugiu",
		"trial_type": "audio-keyboard-response",
		"trial_index": 100,
		"time_elapsed": 257050,
		"internal_node_id": "0.0-3.0-1.69"
	},
	{
		"rt": 1131,
		"stimulus": "../audio/50-4-fem.mp3",
		"response": " ",
		"word": "da",
		"trial_type": "audio-keyboard-response",
		"trial_index": 101,
		"time_elapsed": 258516,
		"internal_node_id": "0.0-3.0-1.70"
	},
	{
		"rt": 1360,
		"stimulus": "../audio/50-5-fem.mp3",
		"response": " ",
		"word": "gaiola",
		"trial_type": "audio-keyboard-response",
		"trial_index": 102,
		"time_elapsed": 260211,
		"internal_node_id": "0.0-3.0-1.71"
	},
	{
		"rt": 992,
		"stimulus": "../audio/50-6-fem.mp3",
		"response": " ",
		"word": "pela",
		"trial_type": "audio-keyboard-response",
		"trial_index": 103,
		"time_elapsed": 261520,
		"internal_node_id": "0.0-3.0-1.72"
	},
	{
		"rt": 1549,
		"stimulus": "../audio/50-7-fem.mp3",
		"response": " ",
		"word": "portinhola.",
		"trial_type": "audio-keyboard-response",
		"trial_index": 104,
		"time_elapsed": 263408,
		"internal_node_id": "0.0-3.0-1.73"
	},
	{
		"rt": 11466,
		"stimulus": "<span style=\"font-size:25px; font-family: monospace\">O pássaro fugiu da gaiola?</span>",
		"response": "n",
		"question": "O pássaro fugiu da gaiola?",
		"answer": "null",
		"trial": "exp-sent",
		"trial_type": "html-keyboard-response",
		"trial_index": 105,
		"time_elapsed": 275128,
		"internal_node_id": "0.0-3.0-2.73-0.73",
		"accuracy": false
	},
	{
		"rt": null,
		"stimulus": "<span style= \"font-size:30px; font-family: monospace\">+</span>",
		"response": null,
		"trial_part": "fixation",
		"trial_type": "html-keyboard-response",
		"trial_index": 106,
		"time_elapsed": 276651,
		"internal_node_id": "0.0-3.0-0.74-0.74"
	},
	{
		"rt": 1109,
		"stimulus": "../audio/19-1-fem.mp3",
		"response": " ",
		"word": "O",
		"trial_type": "audio-keyboard-response",
		"trial_index": 107,
		"time_elapsed": 278102,
		"internal_node_id": "0.0-3.0-1.74"
	},
	{
		"rt": 1549,
		"stimulus": "../audio/19-2-fem.mp3",
		"response": " ",
		"word": "menino",
		"trial_type": "audio-keyboard-response",
		"trial_index": 108,
		"time_elapsed": 279989,
		"internal_node_id": "0.0-3.0-1.75"
	},
	{
		"rt": 1339,
		"stimulus": "../audio/19-3-fem.mp3",
		"response": " ",
		"word": "ganhou",
		"trial_type": "audio-keyboard-response",
		"trial_index": 109,
		"time_elapsed": 281664,
		"internal_node_id": "0.0-3.0-1.76"
	},
	{
		"rt": 1272,
		"stimulus": "../audio/19-4-fem.mp3",
		"response": " ",
		"word": "uma",
		"trial_type": "audio-keyboard-response",
		"trial_index": 110,
		"time_elapsed": 283279,
		"internal_node_id": "0.0-3.0-1.77"
	},
	{
		"rt": 1549,
		"stimulus": "../audio/19-5-fem.mp3",
		"response": " ",
		"word": "bala",
		"trial_type": "audio-keyboard-response",
		"trial_index": 111,
		"time_elapsed": 285177,
		"internal_node_id": "0.0-3.0-1.78"
	},
	{
		"rt": 1619,
		"stimulus": "../audio/19-6-fem.mp3",
		"response": " ",
		"word": "depois",
		"trial_type": "audio-keyboard-response",
		"trial_index": 112,
		"time_elapsed": 287128,
		"internal_node_id": "0.0-3.0-1.79"
	},
	{
		"rt": 1291,
		"stimulus": "../audio/19-7-fem.mp3",
		"response": " ",
		"word": "do",
		"trial_type": "audio-keyboard-response",
		"trial_index": 113,
		"time_elapsed": 288750,
		"internal_node_id": "0.0-3.0-1.80"
	},
	{
		"rt": 1491,
		"stimulus": "../audio/19-8-fem.mp3",
		"response": " ",
		"word": "almoço.",
		"trial_type": "audio-keyboard-response",
		"trial_index": 114,
		"time_elapsed": 290558,
		"internal_node_id": "0.0-3.0-1.81"
	},
	{
		"rt": null,
		"stimulus": "<span style= \"font-size:30px; font-family: monospace\">+</span>",
		"response": null,
		"trial_part": "fixation",
		"trial_type": "html-keyboard-response",
		"trial_index": 115,
		"time_elapsed": 291834,
		"internal_node_id": "0.0-3.0-0.82-0.82"
	},
	{
		"rt": 1320,
		"stimulus": "../audio/16-1-masc.mp3",
		"response": " ",
		"word": "Eu",
		"trial_type": "audio-keyboard-response",
		"trial_index": 116,
		"time_elapsed": 293507,
		"internal_node_id": "0.0-3.0-1.82"
	},
	{
		"rt": 1480,
		"stimulus": "../audio/16-2-masc.mp3",
		"response": " ",
		"word": "nunca",
		"trial_type": "audio-keyboard-response",
		"trial_index": 117,
		"time_elapsed": 295328,
		"internal_node_id": "0.0-3.0-1.83"
	},
	{
		"rt": 1280,
		"stimulus": "../audio/16-3-masc.mp3",
		"response": " ",
		"word": "conheci",
		"trial_type": "audio-keyboard-response",
		"trial_index": 118,
		"time_elapsed": 296942,
		"internal_node_id": "0.0-3.0-1.84"
	},
	{
		"rt": 1109,
		"stimulus": "../audio/16-4-masc.mp3",
		"response": " ",
		"word": "um",
		"trial_type": "audio-keyboard-response",
		"trial_index": 119,
		"time_elapsed": 298393,
		"internal_node_id": "0.0-3.0-1.85"
	},
	{
		"rt": 1461,
		"stimulus": "../audio/16-5-masc.mp3",
		"response": " ",
		"word": "general",
		"trial_type": "audio-keyboard-response",
		"trial_index": 120,
		"time_elapsed": 300196,
		"internal_node_id": "0.0-3.0-1.86"
	},
	{
		"rt": 1040,
		"stimulus": "../audio/16-6-masc.mp3",
		"response": " ",
		"word": "do",
		"trial_type": "audio-keyboard-response",
		"trial_index": 121,
		"time_elapsed": 301563,
		"internal_node_id": "0.0-3.0-1.87"
	},
	{
		"rt": 1491,
		"stimulus": "../audio/16-7-masc.mp3",
		"response": " ",
		"word": "exército.",
		"trial_type": "audio-keyboard-response",
		"trial_index": 122,
		"time_elapsed": 303395,
		"internal_node_id": "0.0-3.0-1.88"
	},
	{
		"rt": null,
		"stimulus": "<span style= \"font-size:30px; font-family: monospace\">+</span>",
		"response": null,
		"trial_part": "fixation",
		"trial_type": "html-keyboard-response",
		"trial_index": 123,
		"time_elapsed": 304658,
		"internal_node_id": "0.0-3.0-0.89-0.89"
	},
	{
		"rt": 960,
		"stimulus": "../audio/18-1-masc.mp3",
		"response": " ",
		"word": "O",
		"trial_type": "audio-keyboard-response",
		"trial_index": 124,
		"time_elapsed": 305908,
		"internal_node_id": "0.0-3.0-1.89"
	},
	{
		"rt": 1349,
		"stimulus": "../audio/18-2-masc.mp3",
		"response": " ",
		"word": "enredo",
		"trial_type": "audio-keyboard-response",
		"trial_index": 125,
		"time_elapsed": 307547,
		"internal_node_id": "0.0-3.0-1.90"
	},
	{
		"rt": 1509,
		"stimulus": "../audio/18-3-masc.mp3",
		"response": " ",
		"word": "traz",
		"trial_type": "audio-keyboard-response",
		"trial_index": 126,
		"time_elapsed": 309353,
		"internal_node_id": "0.0-3.0-1.91"
	},
	{
		"rt": 1440,
		"stimulus": "../audio/18-4-masc.mp3",
		"response": " ",
		"word": "um",
		"trial_type": "audio-keyboard-response",
		"trial_index": 127,
		"time_elapsed": 311100,
		"internal_node_id": "0.0-3.0-1.92"
	},
	{
		"rt": 1499,
		"stimulus": "../audio/18-5-masc.mp3",
		"response": " ",
		"word": "dragão",
		"trial_type": "audio-keyboard-response",
		"trial_index": 128,
		"time_elapsed": 312888,
		"internal_node_id": "0.0-3.0-1.93"
	},
	{
		"rt": 1469,
		"stimulus": "../audio/18-6-masc.mp3",
		"response": " ",
		"word": "forte",
		"trial_type": "audio-keyboard-response",
		"trial_index": 129,
		"time_elapsed": 314652,
		"internal_node_id": "0.0-3.0-1.94"
	},
	{
		"rt": 1421,
		"stimulus": "../audio/18-7-masc.mp3",
		"response": " ",
		"word": "e",
		"trial_type": "audio-keyboard-response",
		"trial_index": 130,
		"time_elapsed": 316359,
		"internal_node_id": "0.0-3.0-1.95"
	},
	{
		"rt": 1661,
		"stimulus": "../audio/18-8-masc.mp3",
		"response": " ",
		"word": "solitário.",
		"trial_type": "audio-keyboard-response",
		"trial_index": 131,
		"time_elapsed": 318325,
		"internal_node_id": "0.0-3.0-1.96"
	},
	{
		"rt": null,
		"stimulus": "<span style= \"font-size:30px; font-family: monospace\">+</span>",
		"response": null,
		"trial_part": "fixation",
		"trial_type": "html-keyboard-response",
		"trial_index": 132,
		"time_elapsed": 319588,
		"internal_node_id": "0.0-3.0-0.97-0.97"
	},
	{
		"rt": 1459,
		"stimulus": "../audio/17-1-masc.mp3",
		"response": " ",
		"word": "Falaram",
		"trial_type": "audio-keyboard-response",
		"trial_index": 133,
		"time_elapsed": 321338,
		"internal_node_id": "0.0-3.0-1.97"
	},
	{
		"rt": 1000,
		"stimulus": "../audio/17-2-masc.mp3",
		"response": " ",
		"word": "da",
		"trial_type": "audio-keyboard-response",
		"trial_index": 134,
		"time_elapsed": 322646,
		"internal_node_id": "0.0-3.0-1.98"
	},
	{
		"rt": 1160,
		"stimulus": "../audio/17-3-masc.mp3",
		"response": " ",
		"word": "lei",
		"trial_type": "audio-keyboard-response",
		"trial_index": 135,
		"time_elapsed": 324102,
		"internal_node_id": "0.0-3.0-1.99"
	},
	{
		"rt": 1069,
		"stimulus": "../audio/17-4-masc.mp3",
		"response": " ",
		"word": "no",
		"trial_type": "audio-keyboard-response",
		"trial_index": 136,
		"time_elapsed": 325458,
		"internal_node_id": "0.0-3.0-1.100"
	},
	{
		"rt": 1400,
		"stimulus": "../audio/17-5-masc.mp3",
		"response": " ",
		"word": "ministério",
		"trial_type": "audio-keyboard-response",
		"trial_index": 137,
		"time_elapsed": 327153,
		"internal_node_id": "0.0-3.0-1.101"
	},
	{
		"rt": 1171,
		"stimulus": "../audio/17-6-masc.mp3",
		"response": " ",
		"word": "diversas",
		"trial_type": "audio-keyboard-response",
		"trial_index": 138,
		"time_elapsed": 328598,
		"internal_node_id": "0.0-3.0-1.102"
	},
	{
		"rt": 1088,
		"stimulus": "../audio/17-7-masc.mp3",
		"response": " ",
		"word": "vezes.",
		"trial_type": "audio-keyboard-response",
		"trial_index": 139,
		"time_elapsed": 329976,
		"internal_node_id": "0.0-3.0-1.103"
	},
	{
		"rt": null,
		"stimulus": "<span style= \"font-size:30px; font-family: monospace\">+</span>",
		"response": null,
		"trial_part": "fixation",
		"trial_type": "html-keyboard-response",
		"trial_index": 140,
		"time_elapsed": 331251,
		"internal_node_id": "0.0-3.0-0.104-0.104"
	},
	{
		"rt": 779,
		"stimulus": "../audio/20-1-masc.mp3",
		"response": " ",
		"word": "O",
		"trial_type": "audio-keyboard-response",
		"trial_index": 141,
		"time_elapsed": 332306,
		"internal_node_id": "0.0-3.0-1.104"
	},
	{
		"rt": 920,
		"stimulus": "../audio/20-2-masc.mp3",
		"response": " ",
		"word": "colega",
		"trial_type": "audio-keyboard-response",
		"trial_index": 142,
		"time_elapsed": 333526,
		"internal_node_id": "0.0-3.0-1.105"
	},
	{
		"rt": 941,
		"stimulus": "../audio/20-3-masc.mp3",
		"response": " ",
		"word": "parecia",
		"trial_type": "audio-keyboard-response",
		"trial_index": 143,
		"time_elapsed": 334766,
		"internal_node_id": "0.0-3.0-1.106"
	},
	{
		"rt": 1091,
		"stimulus": "../audio/20-4-masc.mp3",
		"response": " ",
		"word": "muito",
		"trial_type": "audio-keyboard-response",
		"trial_index": 144,
		"time_elapsed": 336149,
		"internal_node_id": "0.0-3.0-1.107"
	},
	{
		"rt": 1448,
		"stimulus": "../audio/20-5-masc.mp3",
		"response": " ",
		"word": "gripado",
		"trial_type": "audio-keyboard-response",
		"trial_index": 145,
		"time_elapsed": 337890,
		"internal_node_id": "0.0-3.0-1.108"
	},
	{
		"rt": 1139,
		"stimulus": "../audio/20-6-masc.mp3",
		"response": " ",
		"word": "no",
		"trial_type": "audio-keyboard-response",
		"trial_index": 146,
		"time_elapsed": 339328,
		"internal_node_id": "0.0-3.0-1.109"
	},
	{
		"rt": 979,
		"stimulus": "../audio/20-7-masc.mp3",
		"response": " ",
		"word": "dia",
		"trial_type": "audio-keyboard-response",
		"trial_index": 147,
		"time_elapsed": 340614,
		"internal_node_id": "0.0-3.0-1.110"
	},
	{
		"rt": 1560,
		"stimulus": "../audio/20-8-masc.mp3",
		"response": " ",
		"word": "anterior.",
		"trial_type": "audio-keyboard-response",
		"trial_index": 148,
		"time_elapsed": 342474,
		"internal_node_id": "0.0-3.0-1.111"
	},
	{
		"rt": 11430,
		"stimulus": "<span style=\"font-size:25px; font-family: monospace\">O colega parecia muito gripado?</span>",
		"response": "s",
		"question": "O colega parecia muito gripado?",
		"answer": "null",
		"trial": "exp-sent",
		"trial_type": "html-keyboard-response",
		"trial_index": 149,
		"time_elapsed": 354163,
		"internal_node_id": "0.0-3.0-2.111-0.111",
		"accuracy": false
	},
	{
		"rt": null,
		"stimulus": "<span style= \"font-size:30px; font-family: monospace\">+</span>",
		"response": null,
		"trial_part": "fixation",
		"trial_type": "html-keyboard-response",
		"trial_index": 150,
		"time_elapsed": 355677,
		"internal_node_id": "0.0-3.0-0.112-0.112"
	},
	{
		"rt": 192,
		"stimulus": "../audio/09-1-masc.mp3",
		"response": " ",
		"word": "O",
		"trial_type": "audio-keyboard-response",
		"trial_index": 151,
		"time_elapsed": 356159,
		"internal_node_id": "0.0-3.0-1.112"
	},
	{
		"rt": 1421,
		"stimulus": "../audio/09-2-masc.mp3",
		"response": " ",
		"word": "rapaz",
		"trial_type": "audio-keyboard-response",
		"trial_index": 152,
		"time_elapsed": 357879,
		"internal_node_id": "0.0-3.0-1.113"
	},
	{
		"rt": 1301,
		"stimulus": "../audio/09-3-masc.mp3",
		"response": " ",
		"word": "limpou",
		"trial_type": "audio-keyboard-response",
		"trial_index": 153,
		"time_elapsed": 359471,
		"internal_node_id": "0.0-3.0-1.114"
	},
	{
		"rt": 971,
		"stimulus": "../audio/09-4-masc.mp3",
		"response": " ",
		"word": "o",
		"trial_type": "audio-keyboard-response",
		"trial_index": 154,
		"time_elapsed": 360742,
		"internal_node_id": "0.0-3.0-1.115"
	},
	{
		"rt": 1059,
		"stimulus": "../audio/09-5-masc.mp3",
		"response": " ",
		"word": "terreno",
		"trial_type": "audio-keyboard-response",
		"trial_index": 155,
		"time_elapsed": 362093,
		"internal_node_id": "0.0-3.0-1.116"
	},
	{
		"rt": 1179,
		"stimulus": "../audio/09-6-masc.mp3",
		"response": " ",
		"word": "com",
		"trial_type": "audio-keyboard-response",
		"trial_index": 156,
		"time_elapsed": 363576,
		"internal_node_id": "0.0-3.0-1.117"
	},
	{
		"rt": 1139,
		"stimulus": "../audio/09-7-masc.mp3",
		"response": " ",
		"word": "uma",
		"trial_type": "audio-keyboard-response",
		"trial_index": 157,
		"time_elapsed": 365008,
		"internal_node_id": "0.0-3.0-1.118"
	},
	{
		"rt": 1011,
		"stimulus": "../audio/09-8-masc.mp3",
		"response": " ",
		"word": "pá.",
		"trial_type": "audio-keyboard-response",
		"trial_index": 158,
		"time_elapsed": 366324,
		"internal_node_id": "0.0-3.0-1.119"
	},
	{
		"rt": null,
		"stimulus": "<span style= \"font-size:30px; font-family: monospace\">+</span>",
		"response": null,
		"trial_part": "fixation",
		"trial_type": "html-keyboard-response",
		"trial_index": 159,
		"time_elapsed": 367587,
		"internal_node_id": "0.0-3.0-0.120-0.120"
	},
	{
		"rt": 1339,
		"stimulus": "../audio/08-1-fem.mp3",
		"response": " ",
		"word": "A",
		"trial_type": "audio-keyboard-response",
		"trial_index": 160,
		"time_elapsed": 369293,
		"internal_node_id": "0.0-3.0-1.120"
	},
	{
		"rt": 1419,
		"stimulus": "../audio/08-2-fem.mp3",
		"response": " ",
		"word": "receita",
		"trial_type": "audio-keyboard-response",
		"trial_index": 161,
		"time_elapsed": 371054,
		"internal_node_id": "0.0-3.0-1.121"
	},
	{
		"rt": 1360,
		"stimulus": "../audio/08-3-fem.mp3",
		"response": " ",
		"word": "pede",
		"trial_type": "audio-keyboard-response",
		"trial_index": 162,
		"time_elapsed": 372742,
		"internal_node_id": "0.0-3.0-1.122"
	},
	{
		"rt": 1109,
		"stimulus": "../audio/08-4-fem.mp3",
		"response": " ",
		"word": "um",
		"trial_type": "audio-keyboard-response",
		"trial_index": 163,
		"time_elapsed": 374179,
		"internal_node_id": "0.0-3.0-1.123"
	},
	{
		"rt": 1459,
		"stimulus": "../audio/08-5-fem.mp3",
		"response": " ",
		"word": "litro",
		"trial_type": "audio-keyboard-response",
		"trial_index": 164,
		"time_elapsed": 375983,
		"internal_node_id": "0.0-3.0-1.124"
	},
	{
		"rt": 1099,
		"stimulus": "../audio/08-6-fem.mp3",
		"response": " ",
		"word": "de",
		"trial_type": "audio-keyboard-response",
		"trial_index": 165,
		"time_elapsed": 377409,
		"internal_node_id": "0.0-3.0-1.125"
	},
	{
		"rt": 1091,
		"stimulus": "../audio/08-7-fem.mp3",
		"response": " ",
		"word": "leite",
		"trial_type": "audio-keyboard-response",
		"trial_index": 166,
		"time_elapsed": 378839,
		"internal_node_id": "0.0-3.0-1.126"
	},
	{
		"rt": 1560,
		"stimulus": "../audio/08-8-fem.mp3",
		"response": " ",
		"word": "integral.",
		"trial_type": "audio-keyboard-response",
		"trial_index": 167,
		"time_elapsed": 380732,
		"internal_node_id": "0.0-3.0-1.127"
	},
	{
		"rt": null,
		"stimulus": "<span style= \"font-size:30px; font-family: monospace\">+</span>",
		"response": null,
		"trial_part": "fixation",
		"trial_type": "html-keyboard-response",
		"trial_index": 168,
		"time_elapsed": 381991,
		"internal_node_id": "0.0-3.0-0.128-0.128"
	},
	{
		"rt": 928,
		"stimulus": "../audio/07-1-masc.mp3",
		"response": " ",
		"word": "Meu",
		"trial_type": "audio-keyboard-response",
		"trial_index": 169,
		"time_elapsed": 383215,
		"internal_node_id": "0.0-3.0-1.128"
	},
	{
		"rt": 1160,
		"stimulus": "../audio/07-2-masc.mp3",
		"response": " ",
		"word": "filho",
		"trial_type": "audio-keyboard-response",
		"trial_index": 170,
		"time_elapsed": 384679,
		"internal_node_id": "0.0-3.0-1.129"
	},
	{
		"rt": 1101,
		"stimulus": "../audio/07-3-masc.mp3",
		"response": " ",
		"word": "é",
		"trial_type": "audio-keyboard-response",
		"trial_index": 171,
		"time_elapsed": 386076,
		"internal_node_id": "0.0-3.0-1.130"
	},
	{
		"rt": 1171,
		"stimulus": "../audio/07-4-masc.mp3",
		"response": " ",
		"word": "muito",
		"trial_type": "audio-keyboard-response",
		"trial_index": 172,
		"time_elapsed": 387553,
		"internal_node_id": "0.0-3.0-1.131"
	},
	{
		"rt": 1411,
		"stimulus": "../audio/07-5-masc.mp3",
		"response": " ",
		"word": "responsável",
		"trial_type": "audio-keyboard-response",
		"trial_index": 173,
		"time_elapsed": 389229,
		"internal_node_id": "0.0-3.0-1.132"
	},
	{
		"rt": 1208,
		"stimulus": "../audio/07-6-masc.mp3",
		"response": " ",
		"word": "nos",
		"trial_type": "audio-keyboard-response",
		"trial_index": 174,
		"time_elapsed": 390733,
		"internal_node_id": "0.0-3.0-1.133"
	},
	{
		"rt": 1349,
		"stimulus": "../audio/07-7-masc.mp3",
		"response": " ",
		"word": "estudos.",
		"trial_type": "audio-keyboard-response",
		"trial_index": 175,
		"time_elapsed": 392377,
		"internal_node_id": "0.0-3.0-1.134"
	},
	{
		"rt": null,
		"stimulus": "<span style= \"font-size:30px; font-family: monospace\">+</span>",
		"response": null,
		"trial_part": "fixation",
		"trial_type": "html-keyboard-response",
		"trial_index": 176,
		"time_elapsed": 393654,
		"internal_node_id": "0.0-3.0-0.135-0.135"
	},
	{
		"rt": 1259,
		"stimulus": "../audio/06-1-masc.mp3",
		"response": " ",
		"word": "Ouvimos",
		"trial_type": "audio-keyboard-response",
		"trial_index": 177,
		"time_elapsed": 395296,
		"internal_node_id": "0.0-3.0-1.135"
	},
	{
		"rt": 1032,
		"stimulus": "../audio/06-2-masc.mp3",
		"response": " ",
		"word": "a",
		"trial_type": "audio-keyboard-response",
		"trial_index": 178,
		"time_elapsed": 396642,
		"internal_node_id": "0.0-3.0-1.136"
	},
	{
		"rt": 1211,
		"stimulus": "../audio/06-3-masc.mp3",
		"response": " ",
		"word": "fala",
		"trial_type": "audio-keyboard-response",
		"trial_index": 179,
		"time_elapsed": 398177,
		"internal_node_id": "0.0-3.0-1.137"
	},
	{
		"rt": 1189,
		"stimulus": "../audio/06-4-masc.mp3",
		"response": " ",
		"word": "do",
		"trial_type": "audio-keyboard-response",
		"trial_index": 180,
		"time_elapsed": 399688,
		"internal_node_id": "0.0-3.0-1.138"
	},
	{
		"rt": 1189,
		"stimulus": "../audio/06-5-masc.mp3",
		"response": " ",
		"word": "profeta",
		"trial_type": "audio-keyboard-response",
		"trial_index": 181,
		"time_elapsed": 401196,
		"internal_node_id": "0.0-3.0-1.139"
	},
	{
		"rt": 1032,
		"stimulus": "../audio/06-6-masc.mp3",
		"response": " ",
		"word": "no",
		"trial_type": "audio-keyboard-response",
		"trial_index": 182,
		"time_elapsed": 402563,
		"internal_node_id": "0.0-3.0-1.140"
	},
	{
		"rt": 1259,
		"stimulus": "../audio/06-7-masc.mp3",
		"response": " ",
		"word": "púlpito",
		"trial_type": "audio-keyboard-response",
		"trial_index": 183,
		"time_elapsed": 404147,
		"internal_node_id": "0.0-3.0-1.141"
	},
	{
		"rt": 1000,
		"stimulus": "../audio/06-8-masc.mp3",
		"response": " ",
		"word": "da",
		"trial_type": "audio-keyboard-response",
		"trial_index": 184,
		"time_elapsed": 405480,
		"internal_node_id": "0.0-3.0-1.142"
	},
	{
		"rt": 1192,
		"stimulus": "../audio/06-9-masc.mp3",
		"response": " ",
		"word": "igreja.",
		"trial_type": "audio-keyboard-response",
		"trial_index": 185,
		"time_elapsed": 406999,
		"internal_node_id": "0.0-3.0-1.143"
	},
	{
		"rt": null,
		"stimulus": "<span style= \"font-size:30px; font-family: monospace\">+</span>",
		"response": null,
		"trial_part": "fixation",
		"trial_type": "html-keyboard-response",
		"trial_index": 186,
		"time_elapsed": 408267,
		"internal_node_id": "0.0-3.0-0.144-0.144"
	},
	{
		"rt": 869,
		"stimulus": "../audio/10-1-fem.mp3",
		"response": " ",
		"word": "O",
		"trial_type": "audio-keyboard-response",
		"trial_index": 187,
		"time_elapsed": 409503,
		"internal_node_id": "0.0-3.0-1.144"
	},
	{
		"rt": 1200,
		"stimulus": "../audio/10-2-fem.mp3",
		"response": " ",
		"word": "pássaro",
		"trial_type": "audio-keyboard-response",
		"trial_index": 188,
		"time_elapsed": 411030,
		"internal_node_id": "0.0-3.0-1.145"
	},
	{
		"rt": 1171,
		"stimulus": "../audio/10-3-fem.mp3",
		"response": " ",
		"word": "azul",
		"trial_type": "audio-keyboard-response",
		"trial_index": 189,
		"time_elapsed": 412544,
		"internal_node_id": "0.0-3.0-1.146"
	},
	{
		"rt": 1360,
		"stimulus": "../audio/10-4-fem.mp3",
		"response": " ",
		"word": "estava",
		"trial_type": "audio-keyboard-response",
		"trial_index": 190,
		"time_elapsed": 414228,
		"internal_node_id": "0.0-3.0-1.147"
	},
	{
		"rt": 1200,
		"stimulus": "../audio/10-5-fem.mp3",
		"response": " ",
		"word": "vivo",
		"trial_type": "audio-keyboard-response",
		"trial_index": 191,
		"time_elapsed": 415777,
		"internal_node_id": "0.0-3.0-1.148"
	},
	{
		"rt": 1069,
		"stimulus": "../audio/10-6-fem.mp3",
		"response": " ",
		"word": "e",
		"trial_type": "audio-keyboard-response",
		"trial_index": 192,
		"time_elapsed": 417184,
		"internal_node_id": "0.0-3.0-1.149"
	},
	{
		"rt": 1131,
		"stimulus": "../audio/10-7-fem.mp3",
		"response": " ",
		"word": "em",
		"trial_type": "audio-keyboard-response",
		"trial_index": 193,
		"time_elapsed": 418646,
		"internal_node_id": "0.0-3.0-1.150"
	},
	{
		"rt": 1221,
		"stimulus": "../audio/10-8-fem.mp3",
		"response": " ",
		"word": "segurança.",
		"trial_type": "audio-keyboard-response",
		"trial_index": 194,
		"time_elapsed": 420198,
		"internal_node_id": "0.0-3.0-1.151"
	},
	{
		"rt": 8146,
		"stimulus": "<span style=\"font-size:25px; font-family: monospace\">O pássaro vermelho estava em segurança?</span>",
		"response": "s",
		"question": "O pássaro vermelho estava em segurança?",
		"answer": "null",
		"trial": "exp-sent",
		"trial_type": "html-keyboard-response",
		"trial_index": 195,
		"time_elapsed": 428598,
		"internal_node_id": "0.0-3.0-2.151-0.151",
		"accuracy": false
	},
	{
		"rt": null,
		"stimulus": "<span style= \"font-size:30px; font-family: monospace\">+</span>",
		"response": null,
		"trial_part": "fixation",
		"trial_type": "html-keyboard-response",
		"trial_index": 196,
		"time_elapsed": 430123,
		"internal_node_id": "0.0-3.0-0.152-0.152"
	},
	{
		"rt": 941,
		"stimulus": "../audio/02-2-fem.mp3",
		"response": " ",
		"word": "Havia",
		"trial_type": "audio-keyboard-response",
		"trial_index": 197,
		"time_elapsed": 431442,
		"internal_node_id": "0.0-3.0-1.152"
	},
	{
		"rt": 960,
		"stimulus": "../audio/02-2-fem.mp3",
		"response": " ",
		"word": "um",
		"trial_type": "audio-keyboard-response",
		"trial_index": 198,
		"time_elapsed": 432657,
		"internal_node_id": "0.0-3.0-1.153"
	},
	{
		"rt": 1179,
		"stimulus": "../audio/02-3-fem.mp3",
		"response": " ",
		"word": "cheiro",
		"trial_type": "audio-keyboard-response",
		"trial_index": 199,
		"time_elapsed": 434217,
		"internal_node_id": "0.0-3.0-1.154"
	},
	{
		"rt": 960,
		"stimulus": "../audio/02-4-fem.mp3",
		"response": " ",
		"word": "de",
		"trial_type": "audio-keyboard-response",
		"trial_index": 200,
		"time_elapsed": 435511,
		"internal_node_id": "0.0-3.0-1.155"
	},
	{
		"rt": 832,
		"stimulus": "../audio/02-5-fem.mp3",
		"response": " ",
		"word": "gasolina",
		"trial_type": "audio-keyboard-response",
		"trial_index": 201,
		"time_elapsed": 436685,
		"internal_node_id": "0.0-3.0-1.156"
	},
	{
		"rt": 1339,
		"stimulus": "../audio/02-6-fem.mp3",
		"response": " ",
		"word": "na",
		"trial_type": "audio-keyboard-response",
		"trial_index": 202,
		"time_elapsed": 438340,
		"internal_node_id": "0.0-3.0-1.157"
	},
	{
		"rt": 1179,
		"stimulus": "../audio/02-7-fem.mp3",
		"response": " ",
		"word": "garagem.",
		"trial_type": "audio-keyboard-response",
		"trial_index": 203,
		"time_elapsed": 439818,
		"internal_node_id": "0.0-3.0-1.158"
	},
	{
		"rt": null,
		"stimulus": "<span style= \"font-size:30px; font-family: monospace\">+</span>",
		"response": null,
		"trial_part": "fixation",
		"trial_type": "html-keyboard-response",
		"trial_index": 204,
		"time_elapsed": 441080,
		"internal_node_id": "0.0-3.0-0.159-0.159"
	},
	{
		"rt": 749,
		"stimulus": "../audio/03-1-fem.mp3",
		"response": " ",
		"word": "O",
		"trial_type": "audio-keyboard-response",
		"trial_index": 205,
		"time_elapsed": 442211,
		"internal_node_id": "0.0-3.0-1.159"
	},
	{
		"rt": 960,
		"stimulus": "../audio/03-2-fem.mp3",
		"response": " ",
		"word": "coelho",
		"trial_type": "audio-keyboard-response",
		"trial_index": 206,
		"time_elapsed": 443501,
		"internal_node_id": "0.0-3.0-1.160"
	},
	{
		"rt": 1048,
		"stimulus": "../audio/03-3-fem.mp3",
		"response": " ",
		"word": "foi",
		"trial_type": "audio-keyboard-response",
		"trial_index": 207,
		"time_elapsed": 444893,
		"internal_node_id": "0.0-3.0-1.161"
	},
	{
		"rt": 1520,
		"stimulus": "../audio/03-4-fem.mp3",
		"response": " ",
		"word": "bastante",
		"trial_type": "audio-keyboard-response",
		"trial_index": 208,
		"time_elapsed": 446738,
		"internal_node_id": "0.0-3.0-1.162"
	},
	{
		"rt": 1080,
		"stimulus": "../audio/03-5-fem.mp3",
		"response": " ",
		"word": "dócil",
		"trial_type": "audio-keyboard-response",
		"trial_index": 209,
		"time_elapsed": 448139,
		"internal_node_id": "0.0-3.0-1.163"
	},
	{
		"rt": 1189,
		"stimulus": "../audio/03-6-fem.mp3",
		"response": " ",
		"word": "com",
		"trial_type": "audio-keyboard-response",
		"trial_index": 210,
		"time_elapsed": 449665,
		"internal_node_id": "0.0-3.0-1.164"
	},
	{
		"rt": 1829,
		"stimulus": "../audio/03-7-fem.mp3",
		"response": " ",
		"word": "as",
		"trial_type": "audio-keyboard-response",
		"trial_index": 211,
		"time_elapsed": 451835,
		"internal_node_id": "0.0-3.0-1.165"
	},
	{
		"rt": 1520,
		"stimulus": "../audio/03-8-fem.mp3",
		"response": " ",
		"word": "crianças.",
		"trial_type": "audio-keyboard-response",
		"trial_index": 212,
		"time_elapsed": 453757,
		"internal_node_id": "0.0-3.0-1.166"
	},
	{
		"rt": null,
		"stimulus": "<span style= \"font-size:30px; font-family: monospace\">+</span>",
		"response": null,
		"trial_part": "fixation",
		"trial_type": "html-keyboard-response",
		"trial_index": 213,
		"time_elapsed": 455031,
		"internal_node_id": "0.0-3.0-0.167-0.167"
	},
	{
		"rt": 701,
		"stimulus": "../audio/01-1-fem.mp3",
		"response": " ",
		"word": "O",
		"trial_type": "audio-keyboard-response",
		"trial_index": 214,
		"time_elapsed": 456037,
		"internal_node_id": "0.0-3.0-1.167"
	},
	{
		"rt": 1520,
		"stimulus": "../audio/01-2-fem.mp3",
		"response": " ",
		"word": "menino",
		"trial_type": "audio-keyboard-response",
		"trial_index": 215,
		"time_elapsed": 457855,
		"internal_node_id": "0.0-3.0-1.168"
	},
	{
		"rt": 51,
		"stimulus": "../audio/01-3-fem.mp3",
		"response": " ",
		"word": "derrubou",
		"trial_type": "audio-keyboard-response",
		"trial_index": 216,
		"time_elapsed": 458191,
		"internal_node_id": "0.0-3.0-1.169"
	},
	{
		"rt": 989,
		"stimulus": "../audio/01-4-fem.mp3",
		"response": " ",
		"word": "a",
		"trial_type": "audio-keyboard-response",
		"trial_index": 217,
		"time_elapsed": 459468,
		"internal_node_id": "0.0-3.0-1.170"
	},
	{
		"rt": 1509,
		"stimulus": "../audio/01-5-fem.mp3",
		"response": " ",
		"word": "guitarra",
		"trial_type": "audio-keyboard-response",
		"trial_index": 218,
		"time_elapsed": 461270,
		"internal_node_id": "0.0-3.0-1.171"
	},
	{
		"rt": 1149,
		"stimulus": "../audio/01-6-fem.mp3",
		"response": " ",
		"word": "no",
		"trial_type": "audio-keyboard-response",
		"trial_index": 219,
		"time_elapsed": 462712,
		"internal_node_id": "0.0-3.0-1.172"
	},
	{
		"rt": 1320,
		"stimulus": "../audio/01-7-fem.mp3",
		"response": " ",
		"word": "chão.",
		"trial_type": "audio-keyboard-response",
		"trial_index": 220,
		"time_elapsed": 464318,
		"internal_node_id": "0.0-3.0-1.173"
	},
	{
		"rt": null,
		"stimulus": "<span style= \"font-size:30px; font-family: monospace\">+</span>",
		"response": null,
		"trial_part": "fixation",
		"trial_type": "html-keyboard-response",
		"trial_index": 221,
		"time_elapsed": 465597,
		"internal_node_id": "0.0-3.0-0.174-0.174"
	},
	{
		"rt": 1411,
		"stimulus": "../audio/04-1-fem.mp3",
		"response": " ",
		"word": "Duzentos",
		"trial_type": "audio-keyboard-response",
		"trial_index": 222,
		"time_elapsed": 467338,
		"internal_node_id": "0.0-3.0-1.174"
	},
	{
		"rt": 1208,
		"stimulus": "../audio/04-2-fem.mp3",
		"response": " ",
		"word": "carros",
		"trial_type": "audio-keyboard-response",
		"trial_index": 223,
		"time_elapsed": 468890,
		"internal_node_id": "0.0-3.0-1.175"
	},
	{
		"rt": 1440,
		"stimulus": "../audio/04-3-fem.mp3",
		"response": " ",
		"word": "passaram",
		"trial_type": "audio-keyboard-response",
		"trial_index": 224,
		"time_elapsed": 470648,
		"internal_node_id": "0.0-3.0-1.176"
	},
	{
		"rt": 1029,
		"stimulus": "../audio/04-4-fem.mp3",
		"response": " ",
		"word": "pela",
		"trial_type": "audio-keyboard-response",
		"trial_index": 225,
		"time_elapsed": 472027,
		"internal_node_id": "0.0-3.0-1.177"
	},
	{
		"rt": 1109,
		"stimulus": "../audio/04-5-fem.mp3",
		"response": " ",
		"word": "ponte",
		"trial_type": "audio-keyboard-response",
		"trial_index": 226,
		"time_elapsed": 473472,
		"internal_node_id": "0.0-3.0-1.178"
	},
	{
		"rt": 1051,
		"stimulus": "../audio/04-6-fem.mp3",
		"response": " ",
		"word": "hoje",
		"trial_type": "audio-keyboard-response",
		"trial_index": 227,
		"time_elapsed": 474858,
		"internal_node_id": "0.0-3.0-1.179"
	},
	{
		"rt": 931,
		"stimulus": "../audio/04-7-fem.mp3",
		"response": " ",
		"word": "de",
		"trial_type": "audio-keyboard-response",
		"trial_index": 228,
		"time_elapsed": 476123,
		"internal_node_id": "0.0-3.0-1.180"
	},
	{
		"rt": 1120,
		"stimulus": "../audio/04-8-fem.mp3",
		"response": " ",
		"word": "tarde.",
		"trial_type": "audio-keyboard-response",
		"trial_index": 229,
		"time_elapsed": 477585,
		"internal_node_id": "0.0-3.0-1.181"
	},
	{
		"rt": null,
		"stimulus": "<span style= \"font-size:30px; font-family: monospace\">+</span>",
		"response": null,
		"trial_part": "fixation",
		"trial_type": "html-keyboard-response",
		"trial_index": 230,
		"time_elapsed": 478857,
		"internal_node_id": "0.0-3.0-0.182-0.182"
	},
	{
		"rt": 779,
		"stimulus": "../audio/05-1-fem.mp3",
		"response": " ",
		"word": "A",
		"trial_type": "audio-keyboard-response",
		"trial_index": 231,
		"time_elapsed": 480016,
		"internal_node_id": "0.0-3.0-1.182"
	},
	{
		"rt": 1451,
		"stimulus": "../audio/05-2-fem.mp3",
		"response": " ",
		"word": "vendedora",
		"trial_type": "audio-keyboard-response",
		"trial_index": 232,
		"time_elapsed": 481805,
		"internal_node_id": "0.0-3.0-1.183"
	},
	{
		"rt": 1229,
		"stimulus": "../audio/05-3-fem.mp3",
		"response": " ",
		"word": "ajudou",
		"trial_type": "audio-keyboard-response",
		"trial_index": 233,
		"time_elapsed": 483355,
		"internal_node_id": "0.0-3.0-1.184"
	},
	{
		"rt": 1400,
		"stimulus": "../audio/05-4-fem.mp3",
		"response": " ",
		"word": "um",
		"trial_type": "audio-keyboard-response",
		"trial_index": 234,
		"time_elapsed": 485094,
		"internal_node_id": "0.0-3.0-1.185"
	},
	{
		"rt": 1469,
		"stimulus": "../audio/05-5-fem.mp3",
		"response": " ",
		"word": "turista",
		"trial_type": "audio-keyboard-response",
		"trial_index": 235,
		"time_elapsed": 486902,
		"internal_node_id": "0.0-3.0-1.186"
	},
	{
		"rt": 1291,
		"stimulus": "../audio/05-6-fem.mp3",
		"response": " ",
		"word": "na",
		"trial_type": "audio-keyboard-response",
		"trial_index": 236,
		"time_elapsed": 488518,
		"internal_node_id": "0.0-3.0-1.187"
	},
	{
		"rt": 1811,
		"stimulus": "../audio/05-7-fem.mp3",
		"response": " ",
		"word": "loja.",
		"trial_type": "audio-keyboard-response",
		"trial_index": 237,
		"time_elapsed": 490664,
		"internal_node_id": "0.0-3.0-1.188"
	},
	{
		"rt": 8584,
		"stimulus": "<span style=\"font-size:25px; font-family: monospace\">A vendedora ajudou um turista?</span>",
		"response": "s",
		"question": "A vendedora ajudou um turista?",
		"answer": "null",
		"trial": "exp-sent",
		"trial_type": "html-keyboard-response",
		"trial_index": 238,
		"time_elapsed": 499511,
		"internal_node_id": "0.0-3.0-2.188-0.188",
		"accuracy": false
	},
	{
		"rt": null,
		"stimulus": "<span style= \"font-size:30px; font-family: monospace\">+</span>",
		"response": null,
		"trial_part": "fixation",
		"trial_type": "html-keyboard-response",
		"trial_index": 239,
		"time_elapsed": 501027,
		"internal_node_id": "0.0-3.0-0.189-0.189"
	},
	{
		"rt": 768,
		"stimulus": "../audio/53-1-fem.mp3",
		"response": " ",
		"word": "O",
		"trial_type": "audio-keyboard-response",
		"trial_index": 240,
		"time_elapsed": 502174,
		"internal_node_id": "0.0-3.0-1.189"
	},
	{
		"rt": 971,
		"stimulus": "../audio/53-2-fem.mp3",
		"response": " ",
		"word": "médico",
		"trial_type": "audio-keyboard-response",
		"trial_index": 241,
		"time_elapsed": 503472,
		"internal_node_id": "0.0-3.0-1.190"
	},
	{
		"rt": 1221,
		"stimulus": "../audio/53-3-fem.mp3",
		"response": " ",
		"word": "foi",
		"trial_type": "audio-keyboard-response",
		"trial_index": 242,
		"time_elapsed": 505030,
		"internal_node_id": "0.0-3.0-1.191"
	},
	{
		"rt": 1651,
		"stimulus": "../audio/53-4-fem.mp3",
		"response": " ",
		"word": "bastante",
		"trial_type": "audio-keyboard-response",
		"trial_index": 243,
		"time_elapsed": 507005,
		"internal_node_id": "0.0-3.0-1.192"
	},
	{
		"rt": 80,
		"stimulus": "../audio/53-5-fem.mp3",
		"response": " ",
		"word": "preciso",
		"trial_type": "audio-keyboard-response",
		"trial_index": 244,
		"time_elapsed": 507417,
		"internal_node_id": "0.0-3.0-1.193"
	},
	{
		"rt": 1339,
		"stimulus": "../audio/53-6-fem.mp3",
		"response": " ",
		"word": "durante",
		"trial_type": "audio-keyboard-response",
		"trial_index": 245,
		"time_elapsed": 509058,
		"internal_node_id": "0.0-3.0-1.194"
	},
	{
		"rt": 811,
		"stimulus": "../audio/53-7-fem.mp3",
		"response": " ",
		"word": "a",
		"trial_type": "audio-keyboard-response",
		"trial_index": 246,
		"time_elapsed": 510189,
		"internal_node_id": "0.0-3.0-1.195"
	},
	{
		"rt": 1600,
		"stimulus": "../audio/53-8-fem.mp3",
		"response": " ",
		"word": "cirurgia.",
		"trial_type": "audio-keyboard-response",
		"trial_index": 247,
		"time_elapsed": 512131,
		"internal_node_id": "0.0-3.0-1.196"
	},
	{
		"rt": null,
		"stimulus": "<span style= \"font-size:30px; font-family: monospace\">+</span>",
		"response": null,
		"trial_part": "fixation",
		"trial_type": "html-keyboard-response",
		"trial_index": 248,
		"time_elapsed": 513393,
		"internal_node_id": "0.0-3.0-0.197-0.197"
	},
	{
		"rt": 1531,
		"stimulus": "../audio/51-1-fem.mp3",
		"response": " ",
		"word": "Suco",
		"trial_type": "audio-keyboard-response",
		"trial_index": 249,
		"time_elapsed": 515218,
		"internal_node_id": "0.0-3.0-1.197"
	},
	{
		"rt": 1139,
		"stimulus": "../audio/51-2-fem.mp3",
		"response": " ",
		"word": "de",
		"trial_type": "audio-keyboard-response",
		"trial_index": 250,
		"time_elapsed": 516651,
		"internal_node_id": "0.0-3.0-1.198"
	},
	{
		"rt": 1760,
		"stimulus": "../audio/51-3-fem.mp3",
		"response": " ",
		"word": "acerola",
		"trial_type": "audio-keyboard-response",
		"trial_index": 251,
		"time_elapsed": 518715,
		"internal_node_id": "0.0-3.0-1.199"
	},
	{
		"rt": 1131,
		"stimulus": "../audio/51-4-fem.mp3",
		"response": " ",
		"word": "é",
		"trial_type": "audio-keyboard-response",
		"trial_index": 252,
		"time_elapsed": 520115,
		"internal_node_id": "0.0-3.0-1.200"
	},
	{
		"rt": 1611,
		"stimulus": "../audio/51-5-fem.mp3",
		"response": " ",
		"word": "azedo",
		"trial_type": "audio-keyboard-response",
		"trial_index": 253,
		"time_elapsed": 522000,
		"internal_node_id": "0.0-3.0-1.201"
	},
	{
		"rt": 1128,
		"stimulus": "../audio/51-6-fem.mp3",
		"response": " ",
		"word": "e",
		"trial_type": "audio-keyboard-response",
		"trial_index": 254,
		"time_elapsed": 523415,
		"internal_node_id": "0.0-3.0-1.202"
	},
	{
		"rt": 1229,
		"stimulus": "../audio/51-7-fem.mp3",
		"response": " ",
		"word": "até",
		"trial_type": "audio-keyboard-response",
		"trial_index": 255,
		"time_elapsed": 524945,
		"internal_node_id": "0.0-3.0-1.203"
	},
	{
		"rt": 1491,
		"stimulus": "../audio/51-8-fem.mp3",
		"response": " ",
		"word": "barato.",
		"trial_type": "audio-keyboard-response",
		"trial_index": 256,
		"time_elapsed": 526744,
		"internal_node_id": "0.0-3.0-1.204"
	},
	{
		"rt": null,
		"stimulus": "<span style= \"font-size:30px; font-family: monospace\">+</span>",
		"response": null,
		"trial_part": "fixation",
		"trial_type": "html-keyboard-response",
		"trial_index": 257,
		"time_elapsed": 528009,
		"internal_node_id": "0.0-3.0-0.205-0.205"
	},
	{
		"rt": 1232,
		"stimulus": "../audio/54-1-fem.mp3",
		"response": " ",
		"word": "Estou",
		"trial_type": "audio-keyboard-response",
		"trial_index": 258,
		"time_elapsed": 529525,
		"internal_node_id": "0.0-3.0-1.205"
	},
	{
		"rt": 931,
		"stimulus": "../audio/54-2-fem.mp3",
		"response": " ",
		"word": "com",
		"trial_type": "audio-keyboard-response",
		"trial_index": 259,
		"time_elapsed": 530757,
		"internal_node_id": "0.0-3.0-1.206"
	},
	{
		"rt": 1291,
		"stimulus": "../audio/54-3-fem.mp3",
		"response": " ",
		"word": "medo",
		"trial_type": "audio-keyboard-response",
		"trial_index": 260,
		"time_elapsed": 532351,
		"internal_node_id": "0.0-3.0-1.207"
	},
	{
		"rt": 1000,
		"stimulus": "../audio/54-4-fem.mp3",
		"response": " ",
		"word": "da",
		"trial_type": "audio-keyboard-response",
		"trial_index": 261,
		"time_elapsed": 533649,
		"internal_node_id": "0.0-3.0-1.208"
	},
	{
		"rt": 1328,
		"stimulus": "../audio/54-5-fem.mp3",
		"response": " ",
		"word": "atual",
		"trial_type": "audio-keyboard-response",
		"trial_index": 262,
		"time_elapsed": 535296,
		"internal_node_id": "0.0-3.0-1.209"
	},
	{
		"rt": 1808,
		"stimulus": "../audio/54-6-fem.mp3",
		"response": " ",
		"word": "organização",
		"trial_type": "audio-keyboard-response",
		"trial_index": 263,
		"time_elapsed": 537414,
		"internal_node_id": "0.0-3.0-1.210"
	},
	{
		"rt": 1069,
		"stimulus": "../audio/54-7-fem.mp3",
		"response": " ",
		"word": "do",
		"trial_type": "audio-keyboard-response",
		"trial_index": 264,
		"time_elapsed": 538784,
		"internal_node_id": "0.0-3.0-1.211"
	},
	{
		"rt": 1680,
		"stimulus": "../audio/54-8-fem.mp3",
		"response": " ",
		"word": "país.",
		"trial_type": "audio-keyboard-response",
		"trial_index": 265,
		"time_elapsed": 540754,
		"internal_node_id": "0.0-3.0-1.212"
	},
	{
		"rt": null,
		"stimulus": "<span style= \"font-size:30px; font-family: monospace\">+</span>",
		"response": null,
		"trial_part": "fixation",
		"trial_type": "html-keyboard-response",
		"trial_index": 266,
		"time_elapsed": 542030,
		"internal_node_id": "0.0-3.0-0.213-0.213"
	},
	{
		"rt": 1368,
		"stimulus": "../audio/52-1-masc.mp3",
		"response": " ",
		"word": "Às",
		"trial_type": "audio-keyboard-response",
		"trial_index": 267,
		"time_elapsed": 543693,
		"internal_node_id": "0.0-3.0-1.213"
	},
	{
		"rt": 1331,
		"stimulus": "../audio/52-2-masc.mp3",
		"response": " ",
		"word": "vezes",
		"trial_type": "audio-keyboard-response",
		"trial_index": 268,
		"time_elapsed": 545317,
		"internal_node_id": "0.0-3.0-1.214"
	},
	{
		"rt": 1192,
		"stimulus": "../audio/52-3-masc.mp3",
		"response": " ",
		"word": "eu",
		"trial_type": "audio-keyboard-response",
		"trial_index": 269,
		"time_elapsed": 546797,
		"internal_node_id": "0.0-3.0-1.215"
	},
	{
		"rt": 1181,
		"stimulus": "../audio/52-4-masc.mp3",
		"response": " ",
		"word": "tenho",
		"trial_type": "audio-keyboard-response",
		"trial_index": 270,
		"time_elapsed": 548274,
		"internal_node_id": "0.0-3.0-1.216"
	},
	{
		"rt": 1371,
		"stimulus": "../audio/52-5-masc.mp3",
		"response": " ",
		"word": "azia",
		"trial_type": "audio-keyboard-response",
		"trial_index": 271,
		"time_elapsed": 549940,
		"internal_node_id": "0.0-3.0-1.217"
	},
	{
		"rt": 1168,
		"stimulus": "../audio/52-6-masc.mp3",
		"response": " ",
		"word": "depois",
		"trial_type": "audio-keyboard-response",
		"trial_index": 272,
		"time_elapsed": 551410,
		"internal_node_id": "0.0-3.0-1.218"
	},
	{
		"rt": 1011,
		"stimulus": "../audio/52-7-masc.mp3",
		"response": " ",
		"word": "da",
		"trial_type": "audio-keyboard-response",
		"trial_index": 273,
		"time_elapsed": 552711,
		"internal_node_id": "0.0-3.0-1.219"
	},
	{
		"rt": 1488,
		"stimulus": "../audio/52-8-masc.mp3",
		"response": " ",
		"word": "janta.",
		"trial_type": "audio-keyboard-response",
		"trial_index": 274,
		"time_elapsed": 554495,
		"internal_node_id": "0.0-3.0-1.220"
	},
	{
		"rt": null,
		"stimulus": "<span style= \"font-size:30px; font-family: monospace\">+</span>",
		"response": null,
		"trial_part": "fixation",
		"trial_type": "html-keyboard-response",
		"trial_index": 275,
		"time_elapsed": 555760,
		"internal_node_id": "0.0-3.0-0.221-0.221"
	},
	{
		"rt": 1240,
		"stimulus": "../audio/55-1-fem.mp3",
		"response": " ",
		"word": "O",
		"trial_type": "audio-keyboard-response",
		"trial_index": 276,
		"time_elapsed": 557378,
		"internal_node_id": "0.0-3.0-1.221"
	},
	{
		"rt": 1560,
		"stimulus": "../audio/55-2-fem.mp3",
		"response": " ",
		"word": "insulto",
		"trial_type": "audio-keyboard-response",
		"trial_index": 277,
		"time_elapsed": 559268,
		"internal_node_id": "0.0-3.0-1.222"
	},
	{
		"rt": 1211,
		"stimulus": "../audio/55-3-fem.mp3",
		"response": " ",
		"word": "recente",
		"trial_type": "audio-keyboard-response",
		"trial_index": 278,
		"time_elapsed": 560825,
		"internal_node_id": "0.0-3.0-1.223"
	},
	{
		"rt": 2040,
		"stimulus": "../audio/55-4-fem.mp3",
		"response": " ",
		"word": "causou",
		"trial_type": "audio-keyboard-response",
		"trial_index": 279,
		"time_elapsed": 563191,
		"internal_node_id": "0.0-3.0-1.224"
	},
	{
		"rt": 2528,
		"stimulus": "../audio/55-5-fem.mp3",
		"response": " ",
		"word": "indignação",
		"trial_type": "audio-keyboard-response",
		"trial_index": 280,
		"time_elapsed": 566089,
		"internal_node_id": "0.0-3.0-1.225"
	},
	{
		"rt": 2640,
		"stimulus": "../audio/55-6-fem.mp3",
		"response": " ",
		"word": "em",
		"trial_type": "audio-keyboard-response",
		"trial_index": 281,
		"time_elapsed": 569086,
		"internal_node_id": "0.0-3.0-1.226"
	},
	{
		"rt": 1352,
		"stimulus": "../audio/55-7-fem.mp3",
		"response": " ",
		"word": "todos.",
		"trial_type": "audio-keyboard-response",
		"trial_index": 282,
		"time_elapsed": 570799,
		"internal_node_id": "0.0-3.0-1.227"
	},
	{
		"rt": 5186,
		"stimulus": "<span style=\"font-size:25px; font-family: monospace\">O insulto causou calmaria?</span>",
		"response": "n",
		"question": "O insulto causou calmaria?",
		"answer": "null",
		"trial": "exp-sent",
		"trial_type": "html-keyboard-response",
		"trial_index": 283,
		"time_elapsed": 576244,
		"internal_node_id": "0.0-3.0-2.227-0.227",
		"accuracy": false
	},
	{
		"rt": null,
		"stimulus": "<span style= \"font-size:30px; font-family: monospace\">+</span>",
		"response": null,
		"trial_part": "fixation",
		"trial_type": "html-keyboard-response",
		"trial_index": 284,
		"time_elapsed": 577763,
		"internal_node_id": "0.0-3.0-0.228-0.228"
	},
	{
		"rt": 981,
		"stimulus": "../audio/79-1-masc.mp3",
		"response": " ",
		"word": "A",
		"trial_type": "audio-keyboard-response",
		"trial_index": 285,
		"time_elapsed": 579111,
		"internal_node_id": "0.0-3.0-1.228"
	},
	{
		"rt": 1261,
		"stimulus": "../audio/79-2-masc.mp3",
		"response": " ",
		"word": "médica",
		"trial_type": "audio-keyboard-response",
		"trial_index": 286,
		"time_elapsed": 580726,
		"internal_node_id": "0.0-3.0-1.229"
	},
	{
		"rt": 1509,
		"stimulus": "../audio/79-3-masc.mp3",
		"response": " ",
		"word": "verificou",
		"trial_type": "audio-keyboard-response",
		"trial_index": 287,
		"time_elapsed": 582569,
		"internal_node_id": "0.0-3.0-1.230"
	},
	{
		"rt": 1379,
		"stimulus": "../audio/79-4-masc.mp3",
		"response": " ",
		"word": "a",
		"trial_type": "audio-keyboard-response",
		"trial_index": 288,
		"time_elapsed": 584262,
		"internal_node_id": "0.0-3.0-1.231"
	},
	{
		"rt": 2008,
		"stimulus": "../audio/79-5-masc.mp3",
		"response": " ",
		"word": "gengiva",
		"trial_type": "audio-keyboard-response",
		"trial_index": 289,
		"time_elapsed": 586616,
		"internal_node_id": "0.0-3.0-1.232"
	},
	{
		"rt": 1699,
		"stimulus": "../audio/79-6-masc.mp3",
		"response": " ",
		"word": "por",
		"trial_type": "audio-keyboard-response",
		"trial_index": 290,
		"time_elapsed": 588689,
		"internal_node_id": "0.0-3.0-1.233"
	},
	{
		"rt": 1469,
		"stimulus": "../audio/79-7-masc.mp3",
		"response": " ",
		"word": "último.",
		"trial_type": "audio-keyboard-response",
		"trial_index": 291,
		"time_elapsed": 590545,
		"internal_node_id": "0.0-3.0-1.234"
	},
	{
		"rt": null,
		"stimulus": "<span style= \"font-size:30px; font-family: monospace\">+</span>",
		"response": null,
		"trial_part": "fixation",
		"trial_type": "html-keyboard-response",
		"trial_index": 292,
		"time_elapsed": 591808,
		"internal_node_id": "0.0-3.0-0.235-0.235"
	},
	{
		"rt": 1981,
		"stimulus": "../audio/76-1-fem.mp3",
		"response": " ",
		"word": "O",
		"trial_type": "audio-keyboard-response",
		"trial_index": 293,
		"time_elapsed": 594076,
		"internal_node_id": "0.0-3.0-1.235"
	},
	{
		"rt": 1541,
		"stimulus": "../audio/76-2-fem.mp3",
		"response": " ",
		"word": "bisavô",
		"trial_type": "audio-keyboard-response",
		"trial_index": 294,
		"time_elapsed": 595926,
		"internal_node_id": "0.0-3.0-1.236"
	},
	{
		"rt": 1781,
		"stimulus": "../audio/76-3-fem.mp3",
		"response": " ",
		"word": "comprou",
		"trial_type": "audio-keyboard-response",
		"trial_index": 295,
		"time_elapsed": 598005,
		"internal_node_id": "0.0-3.0-1.237"
	},
	{
		"rt": 1741,
		"stimulus": "../audio/76-4-fem.mp3",
		"response": " ",
		"word": "um",
		"trial_type": "audio-keyboard-response",
		"trial_index": 296,
		"time_elapsed": 600041,
		"internal_node_id": "0.0-3.0-1.238"
	},
	{
		"rt": 1619,
		"stimulus": "../audio/76-5-fem.mp3",
		"response": " ",
		"word": "ralador",
		"trial_type": "audio-keyboard-response",
		"trial_index": 297,
		"time_elapsed": 601971,
		"internal_node_id": "0.0-3.0-1.239"
	},
	{
		"rt": 1080,
		"stimulus": "../audio/76-6-fem.mp3",
		"response": " ",
		"word": "de",
		"trial_type": "audio-keyboard-response",
		"trial_index": 298,
		"time_elapsed": 603332,
		"internal_node_id": "0.0-3.0-1.240"
	},
	{
		"rt": 1579,
		"stimulus": "../audio/76-7-fem.mp3",
		"response": " ",
		"word": "queijo.",
		"trial_type": "audio-keyboard-response",
		"trial_index": 299,
		"time_elapsed": 605212,
		"internal_node_id": "0.0-3.0-1.241"
	},
	{
		"rt": null,
		"stimulus": "<span style= \"font-size:30px; font-family: monospace\">+</span>",
		"response": null,
		"trial_part": "fixation",
		"trial_type": "html-keyboard-response",
		"trial_index": 300,
		"time_elapsed": 606480,
		"internal_node_id": "0.0-3.0-0.242-0.242"
	},
	{
		"rt": 1349,
		"stimulus": "../audio/78-1-fem.mp3",
		"response": " ",
		"word": "Eles",
		"trial_type": "audio-keyboard-response",
		"trial_index": 301,
		"time_elapsed": 608157,
		"internal_node_id": "0.0-3.0-1.242"
	},
	{
		"rt": 1371,
		"stimulus": "../audio/78-2-fem.mp3",
		"response": " ",
		"word": "trazem",
		"trial_type": "audio-keyboard-response",
		"trial_index": 302,
		"time_elapsed": 609876,
		"internal_node_id": "0.0-3.0-1.243"
	},
	{
		"rt": 1381,
		"stimulus": "../audio/78-3-fem.mp3",
		"response": " ",
		"word": "um",
		"trial_type": "audio-keyboard-response",
		"trial_index": 303,
		"time_elapsed": 611589,
		"internal_node_id": "0.0-3.0-1.244"
	},
	{
		"rt": 1501,
		"stimulus": "../audio/78-4-fem.mp3",
		"response": " ",
		"word": "fato",
		"trial_type": "audio-keyboard-response",
		"trial_index": 304,
		"time_elapsed": 613431,
		"internal_node_id": "0.0-3.0-1.245"
	},
	{
		"rt": 1459,
		"stimulus": "../audio/78-5-fem.mp3",
		"response": " ",
		"word": "urgente",
		"trial_type": "audio-keyboard-response",
		"trial_index": 305,
		"time_elapsed": 615219,
		"internal_node_id": "0.0-3.0-1.246"
	},
	{
		"rt": 1219,
		"stimulus": "../audio/78-6-fem.mp3",
		"response": " ",
		"word": "todos",
		"trial_type": "audio-keyboard-response",
		"trial_index": 306,
		"time_elapsed": 616779,
		"internal_node_id": "0.0-3.0-1.247"
	},
	{
		"rt": 1379,
		"stimulus": "../audio/78-7-fem.mp3",
		"response": " ",
		"word": "os",
		"trial_type": "audio-keyboard-response",
		"trial_index": 307,
		"time_elapsed": 618499,
		"internal_node_id": "0.0-3.0-1.248"
	},
	{
		"rt": 1571,
		"stimulus": "../audio/78-8-fem.mp3",
		"response": " ",
		"word": "dias.",
		"trial_type": "audio-keyboard-response",
		"trial_index": 308,
		"time_elapsed": 620387,
		"internal_node_id": "0.0-3.0-1.249"
	},
	{
		"rt": null,
		"stimulus": "<span style= \"font-size:30px; font-family: monospace\">+</span>",
		"response": null,
		"trial_part": "fixation",
		"trial_type": "html-keyboard-response",
		"trial_index": 309,
		"time_elapsed": 621661,
		"internal_node_id": "0.0-3.0-0.250-0.250"
	},
	{
		"rt": 1080,
		"stimulus": "../audio/77-1-masc.mp3",
		"response": " ",
		"word": "A",
		"trial_type": "audio-keyboard-response",
		"trial_index": 310,
		"time_elapsed": 623031,
		"internal_node_id": "0.0-3.0-1.250"
	},
	{
		"rt": 1320,
		"stimulus": "../audio/77-2-masc.mp3",
		"response": " ",
		"word": "criança",
		"trial_type": "audio-keyboard-response",
		"trial_index": 311,
		"time_elapsed": 624653,
		"internal_node_id": "0.0-3.0-1.251"
	},
	{
		"rt": 1109,
		"stimulus": "../audio/77-3-masc.mp3",
		"response": " ",
		"word": "ficou",
		"trial_type": "audio-keyboard-response",
		"trial_index": 312,
		"time_elapsed": 626057,
		"internal_node_id": "0.0-3.0-1.252"
	},
	{
		"rt": 1379,
		"stimulus": "../audio/77-4-masc.mp3",
		"response": " ",
		"word": "muito",
		"trial_type": "audio-keyboard-response",
		"trial_index": 313,
		"time_elapsed": 627729,
		"internal_node_id": "0.0-3.0-1.253"
	},
	{
		"rt": 1491,
		"stimulus": "../audio/77-5-masc.mp3",
		"response": " ",
		"word": "feliz",
		"trial_type": "audio-keyboard-response",
		"trial_index": 314,
		"time_elapsed": 629499,
		"internal_node_id": "0.0-3.0-1.254"
	},
	{
		"rt": 899,
		"stimulus": "../audio/77-6-masc.mp3",
		"response": " ",
		"word": "com",
		"trial_type": "audio-keyboard-response",
		"trial_index": 315,
		"time_elapsed": 630695,
		"internal_node_id": "0.0-3.0-1.255"
	},
	{
		"rt": 1109,
		"stimulus": "../audio/77-7-masc.mp3",
		"response": " ",
		"word": "o",
		"trial_type": "audio-keyboard-response",
		"trial_index": 316,
		"time_elapsed": 632097,
		"internal_node_id": "0.0-3.0-1.256"
	},
	{
		"rt": 1931,
		"stimulus": "../audio/77-8-masc.mp3",
		"response": " ",
		"word": "brinquedo.",
		"trial_type": "audio-keyboard-response",
		"trial_index": 317,
		"time_elapsed": 634325,
		"internal_node_id": "0.0-3.0-1.257"
	},
	{
		"rt": null,
		"stimulus": "<span style= \"font-size:30px; font-family: monospace\">+</span>",
		"response": null,
		"trial_part": "fixation",
		"trial_type": "html-keyboard-response",
		"trial_index": 318,
		"time_elapsed": 635602,
		"internal_node_id": "0.0-3.0-0.258-0.258"
	},
	{
		"rt": 989,
		"stimulus": "../audio/80-1-fem.mp3",
		"response": " ",
		"word": "Meu",
		"trial_type": "audio-keyboard-response",
		"trial_index": 319,
		"time_elapsed": 636871,
		"internal_node_id": "0.0-3.0-1.258"
	},
	{
		"rt": 968,
		"stimulus": "../audio/80-2-fem.mp3",
		"response": " ",
		"word": "primo",
		"trial_type": "audio-keyboard-response",
		"trial_index": 320,
		"time_elapsed": 638130,
		"internal_node_id": "0.0-3.0-1.259"
	},
	{
		"rt": 1531,
		"stimulus": "../audio/80-3-fem.mp3",
		"response": " ",
		"word": "conheceu",
		"trial_type": "audio-keyboard-response",
		"trial_index": 321,
		"time_elapsed": 639946,
		"internal_node_id": "0.0-3.0-1.260"
	},
	{
		"rt": 928,
		"stimulus": "../audio/80-4-fem.mp3",
		"response": " ",
		"word": "um",
		"trial_type": "audio-keyboard-response",
		"trial_index": 322,
		"time_elapsed": 641174,
		"internal_node_id": "0.0-3.0-1.261"
	},
	{
		"rt": 1248,
		"stimulus": "../audio/80-5-fem.mp3",
		"response": " ",
		"word": "jovem",
		"trial_type": "audio-keyboard-response",
		"trial_index": 323,
		"time_elapsed": 642736,
		"internal_node_id": "0.0-3.0-1.262"
	},
	{
		"rt": 1501,
		"stimulus": "../audio/80-6-fem.mp3",
		"response": " ",
		"word": "amável",
		"trial_type": "audio-keyboard-response",
		"trial_index": 324,
		"time_elapsed": 644518,
		"internal_node_id": "0.0-3.0-1.263"
	},
	{
		"rt": 971,
		"stimulus": "../audio/80-7-fem.mp3",
		"response": " ",
		"word": "e",
		"trial_type": "audio-keyboard-response",
		"trial_index": 325,
		"time_elapsed": 645787,
		"internal_node_id": "0.0-3.0-1.264"
	},
	{
		"rt": 1112,
		"stimulus": "../audio/80-8-fem.mp3",
		"response": " ",
		"word": "confiante.",
		"trial_type": "audio-keyboard-response",
		"trial_index": 326,
		"time_elapsed": 647200,
		"internal_node_id": "0.0-3.0-1.265"
	},
	{
		"rt": 9956,
		"stimulus": "<span style=\"font-size:25px; font-family: monospace\">O primo conheceu um jovem irritante?</span>",
		"response": "s",
		"question": "O primo conheceu um jovem irritante?",
		"answer": "null",
		"trial": "exp-sent",
		"trial_type": "html-keyboard-response",
		"trial_index": 327,
		"time_elapsed": 657409,
		"internal_node_id": "0.0-3.0-2.265-0.265",
		"accuracy": false
	},
	{
		"rt": null,
		"stimulus": "<span style= \"font-size:30px; font-family: monospace\">+</span>",
		"response": null,
		"trial_part": "fixation",
		"trial_type": "html-keyboard-response",
		"trial_index": 328,
		"time_elapsed": 658921,
		"internal_node_id": "0.0-3.0-0.266-0.266"
	},
	{
		"rt": 960,
		"stimulus": "../audio/69-1-masc.mp3",
		"response": " ",
		"word": "A",
		"trial_type": "audio-keyboard-response",
		"trial_index": 329,
		"time_elapsed": 661119,
		"internal_node_id": "0.0-3.0-1.266"
	},
	{
		"rt": 1269,
		"stimulus": "../audio/69-2-masc.mp3",
		"response": " ",
		"word": "loja",
		"trial_type": "audio-keyboard-response",
		"trial_index": 330,
		"time_elapsed": 662732,
		"internal_node_id": "0.0-3.0-1.267"
	},
	{
		"rt": 1339,
		"stimulus": "../audio/69-3-masc.mp3",
		"response": " ",
		"word": "recebeu",
		"trial_type": "audio-keyboard-response",
		"trial_index": 331,
		"time_elapsed": 664407,
		"internal_node_id": "0.0-3.0-1.268"
	},
	{
		"rt": 949,
		"stimulus": "../audio/69-4-masc.mp3",
		"response": " ",
		"word": "uma",
		"trial_type": "audio-keyboard-response",
		"trial_index": 332,
		"time_elapsed": 665689,
		"internal_node_id": "0.0-3.0-1.269"
	},
	{
		"rt": 880,
		"stimulus": "../audio/69-5-masc.mp3",
		"response": " ",
		"word": "poltrona",
		"trial_type": "audio-keyboard-response",
		"trial_index": 333,
		"time_elapsed": 666917,
		"internal_node_id": "0.0-3.0-1.270"
	},
	{
		"rt": 920,
		"stimulus": "../audio/69-6-masc.mp3",
		"response": " ",
		"word": "de",
		"trial_type": "audio-keyboard-response",
		"trial_index": 334,
		"time_elapsed": 668175,
		"internal_node_id": "0.0-3.0-1.271"
	},
	{
		"rt": 1048,
		"stimulus": "../audio/69-7-masc.mp3",
		"response": " ",
		"word": "couro",
		"trial_type": "audio-keyboard-response",
		"trial_index": 335,
		"time_elapsed": 669536,
		"internal_node_id": "0.0-3.0-1.272"
	},
	{
		"rt": 1149,
		"stimulus": "../audio/69-8-masc.mp3",
		"response": " ",
		"word": "preto.",
		"trial_type": "audio-keyboard-response",
		"trial_index": 336,
		"time_elapsed": 671017,
		"internal_node_id": "0.0-3.0-1.273"
	},
	{
		"rt": null,
		"stimulus": "<span style= \"font-size:30px; font-family: monospace\">+</span>",
		"response": null,
		"trial_part": "fixation",
		"trial_type": "html-keyboard-response",
		"trial_index": 337,
		"time_elapsed": 672291,
		"internal_node_id": "0.0-3.0-0.274-0.274"
	},
	{
		"rt": 1101,
		"stimulus": "../audio/68-1-fem.mp3",
		"response": " ",
		"word": "Meu",
		"trial_type": "audio-keyboard-response",
		"trial_index": 338,
		"time_elapsed": 673758,
		"internal_node_id": "0.0-3.0-1.274"
	},
	{
		"rt": 1051,
		"stimulus": "../audio/68-2-fem.mp3",
		"response": " ",
		"word": "irmão",
		"trial_type": "audio-keyboard-response",
		"trial_index": 339,
		"time_elapsed": 675156,
		"internal_node_id": "0.0-3.0-1.275"
	},
	{
		"rt": 1099,
		"stimulus": "../audio/68-3-fem.mp3",
		"response": " ",
		"word": "teve",
		"trial_type": "audio-keyboard-response",
		"trial_index": 340,
		"time_elapsed": 676585,
		"internal_node_id": "0.0-3.0-1.276"
	},
	{
		"rt": 1000,
		"stimulus": "../audio/68-4-fem.mp3",
		"response": " ",
		"word": "um",
		"trial_type": "audio-keyboard-response",
		"trial_index": 341,
		"time_elapsed": 677907,
		"internal_node_id": "0.0-3.0-1.277"
	},
	{
		"rt": 1120,
		"stimulus": "../audio/68-5-fem.mp3",
		"response": " ",
		"word": "noivado",
		"trial_type": "audio-keyboard-response",
		"trial_index": 342,
		"time_elapsed": 679393,
		"internal_node_id": "0.0-3.0-1.278"
	},
	{
		"rt": 1339,
		"stimulus": "../audio/68-6-fem.mp3",
		"response": " ",
		"word": "longo",
		"trial_type": "audio-keyboard-response",
		"trial_index": 343,
		"time_elapsed": 681066,
		"internal_node_id": "0.0-3.0-1.279"
	},
	{
		"rt": 1011,
		"stimulus": "../audio/68-7-fem.mp3",
		"response": " ",
		"word": "e",
		"trial_type": "audio-keyboard-response",
		"trial_index": 344,
		"time_elapsed": 682400,
		"internal_node_id": "0.0-3.0-1.280"
	},
	{
		"rt": 1771,
		"stimulus": "../audio/68-8-fem.mp3",
		"response": " ",
		"word": "maravilhoso.",
		"trial_type": "audio-keyboard-response",
		"trial_index": 345,
		"time_elapsed": 684511,
		"internal_node_id": "0.0-3.0-1.281"
	},
	{
		"rt": null,
		"stimulus": "<span style= \"font-size:30px; font-family: monospace\">+</span>",
		"response": null,
		"trial_part": "fixation",
		"trial_type": "html-keyboard-response",
		"trial_index": 346,
		"time_elapsed": 685778,
		"internal_node_id": "0.0-3.0-0.282-0.282"
	},
	{
		"rt": 1480,
		"stimulus": "../audio/66-1-fem.mp3",
		"response": " ",
		"word": "Não",
		"trial_type": "audio-keyboard-response",
		"trial_index": 347,
		"time_elapsed": 687552,
		"internal_node_id": "0.0-3.0-1.282"
	},
	{
		"rt": 1421,
		"stimulus": "../audio/66-2-fem.mp3",
		"response": " ",
		"word": "gosto",
		"trial_type": "audio-keyboard-response",
		"trial_index": 348,
		"time_elapsed": 689243,
		"internal_node_id": "0.0-3.0-1.283"
	},
	{
		"rt": 1011,
		"stimulus": "../audio/66-3-fem.mp3",
		"response": " ",
		"word": "de",
		"trial_type": "audio-keyboard-response",
		"trial_index": 349,
		"time_elapsed": 690555,
		"internal_node_id": "0.0-3.0-1.284"
	},
	{
		"rt": 1451,
		"stimulus": "../audio/66-4-fem.mp3",
		"response": " ",
		"word": "gente",
		"trial_type": "audio-keyboard-response",
		"trial_index": 350,
		"time_elapsed": 692299,
		"internal_node_id": "0.0-3.0-1.285"
	},
	{
		"rt": 1709,
		"stimulus": "../audio/66-5-fem.mp3",
		"response": " ",
		"word": "egoísta",
		"trial_type": "audio-keyboard-response",
		"trial_index": 351,
		"time_elapsed": 694306,
		"internal_node_id": "0.0-3.0-1.286"
	},
	{
		"rt": 1211,
		"stimulus": "../audio/66-6-fem.mp3",
		"response": " ",
		"word": "nem",
		"trial_type": "audio-keyboard-response",
		"trial_index": 352,
		"time_elapsed": 695822,
		"internal_node_id": "0.0-3.0-1.287"
	},
	{
		"rt": 1269,
		"stimulus": "../audio/66-7-fem.mp3",
		"response": " ",
		"word": "chata.",
		"trial_type": "audio-keyboard-response",
		"trial_index": 353,
		"time_elapsed": 697390,
		"internal_node_id": "0.0-3.0-1.288"
	},
	{
		"rt": null,
		"stimulus": "<span style= \"font-size:30px; font-family: monospace\">+</span>",
		"response": null,
		"trial_part": "fixation",
		"trial_type": "html-keyboard-response",
		"trial_index": 354,
		"time_elapsed": 698655,
		"internal_node_id": "0.0-3.0-0.289-0.289"
	},
	{
		"rt": 1909,
		"stimulus": "../audio/67-1-masc.mp3",
		"response": " ",
		"word": "Minha",
		"trial_type": "audio-keyboard-response",
		"trial_index": 355,
		"time_elapsed": 700856,
		"internal_node_id": "0.0-3.0-1.289"
	},
	{
		"rt": 1189,
		"stimulus": "../audio/67-2-masc.mp3",
		"response": " ",
		"word": "tia",
		"trial_type": "audio-keyboard-response",
		"trial_index": 356,
		"time_elapsed": 702356,
		"internal_node_id": "0.0-3.0-1.290"
	},
	{
		"rt": 1360,
		"stimulus": "../audio/67-3-masc.mp3",
		"response": " ",
		"word": "comprou",
		"trial_type": "audio-keyboard-response",
		"trial_index": 357,
		"time_elapsed": 704017,
		"internal_node_id": "0.0-3.0-1.291"
	},
	{
		"rt": 1120,
		"stimulus": "../audio/67-4-masc.mp3",
		"response": " ",
		"word": "um",
		"trial_type": "audio-keyboard-response",
		"trial_index": 358,
		"time_elapsed": 705428,
		"internal_node_id": "0.0-3.0-1.292"
	},
	{
		"rt": 1059,
		"stimulus": "../audio/67-5-masc.mp3",
		"response": " ",
		"word": "cordão",
		"trial_type": "audio-keyboard-response",
		"trial_index": 359,
		"time_elapsed": 706781,
		"internal_node_id": "0.0-3.0-1.293"
	},
	{
		"rt": 789,
		"stimulus": "../audio/67-6-masc.mp3",
		"response": " ",
		"word": "para",
		"trial_type": "audio-keyboard-response",
		"trial_index": 360,
		"time_elapsed": 707865,
		"internal_node_id": "0.0-3.0-1.294"
	},
	{
		"rt": 928,
		"stimulus": "../audio/67-7-masc.mp3",
		"response": " ",
		"word": "o",
		"trial_type": "audio-keyboard-response",
		"trial_index": 361,
		"time_elapsed": 709088,
		"internal_node_id": "0.0-3.0-1.295"
	},
	{
		"rt": 1051,
		"stimulus": "../audio/67-8-masc.mp3",
		"response": " ",
		"word": "varal.",
		"trial_type": "audio-keyboard-response",
		"trial_index": 362,
		"time_elapsed": 710427,
		"internal_node_id": "0.0-3.0-1.296"
	},
	{
		"rt": null,
		"stimulus": "<span style= \"font-size:30px; font-family: monospace\">+</span>",
		"response": null,
		"trial_part": "fixation",
		"trial_type": "html-keyboard-response",
		"trial_index": 363,
		"time_elapsed": 711696,
		"internal_node_id": "0.0-3.0-0.297-0.297"
	},
	{
		"rt": 789,
		"stimulus": "../audio/70-1-fem.mp3",
		"response": " ",
		"word": "O",
		"trial_type": "audio-keyboard-response",
		"trial_index": 364,
		"time_elapsed": 712779,
		"internal_node_id": "0.0-3.0-1.297"
	},
	{
		"rt": 1059,
		"stimulus": "../audio/70-2-fem.mp3",
		"response": " ",
		"word": "meu",
		"trial_type": "audio-keyboard-response",
		"trial_index": 365,
		"time_elapsed": 714129,
		"internal_node_id": "0.0-3.0-1.298"
	},
	{
		"rt": 1061,
		"stimulus": "../audio/70-3-fem.mp3",
		"response": " ",
		"word": "filho",
		"trial_type": "audio-keyboard-response",
		"trial_index": 366,
		"time_elapsed": 715478,
		"internal_node_id": "0.0-3.0-1.299"
	},
	{
		"rt": 912,
		"stimulus": "../audio/70-4-fem.mp3",
		"response": " ",
		"word": "tem",
		"trial_type": "audio-keyboard-response",
		"trial_index": 367,
		"time_elapsed": 716679,
		"internal_node_id": "0.0-3.0-1.300"
	},
	{
		"rt": 1320,
		"stimulus": "../audio/70-5-fem.mp3",
		"response": " ",
		"word": "medo",
		"trial_type": "audio-keyboard-response",
		"trial_index": 368,
		"time_elapsed": 718291,
		"internal_node_id": "0.0-3.0-1.301"
	},
	{
		"rt": 939,
		"stimulus": "../audio/70-6-fem.mp3",
		"response": " ",
		"word": "de",
		"trial_type": "audio-keyboard-response",
		"trial_index": 369,
		"time_elapsed": 719537,
		"internal_node_id": "0.0-3.0-1.302"
	},
	{
		"rt": 1349,
		"stimulus": "../audio/70-7-fem.mp3",
		"response": " ",
		"word": "enguia",
		"trial_type": "audio-keyboard-response",
		"trial_index": 370,
		"time_elapsed": 721189,
		"internal_node_id": "0.0-3.0-1.303"
	},
	{
		"rt": 1008,
		"stimulus": "../audio/70-8-fem.mp3",
		"response": " ",
		"word": "e",
		"trial_type": "audio-keyboard-response",
		"trial_index": 371,
		"time_elapsed": 722489,
		"internal_node_id": "0.0-3.0-1.304"
	},
	{
		"rt": 1229,
		"stimulus": "../audio/70-9-fem.mp3",
		"response": " ",
		"word": "beija-flor.",
		"trial_type": "audio-keyboard-response",
		"trial_index": 372,
		"time_elapsed": 724027,
		"internal_node_id": "0.0-3.0-1.305"
	},
	{
		"rt": 6053,
		"stimulus": "<span style=\"font-size:25px; font-family: monospace\">O filho tem medo de tigre?</span>",
		"response": "n",
		"question": "O filho tem medo de tigre?",
		"answer": "null",
		"trial": "exp-sent",
		"trial_type": "html-keyboard-response",
		"trial_index": 373,
		"time_elapsed": 730344,
		"internal_node_id": "0.0-3.0-2.305-0.305",
		"accuracy": false
	},
	{
		"rt": null,
		"stimulus": "<span style= \"font-size:30px; font-family: monospace\">+</span>",
		"response": null,
		"trial_part": "fixation",
		"trial_type": "html-keyboard-response",
		"trial_index": 374,
		"time_elapsed": 731870,
		"internal_node_id": "0.0-3.0-0.306-0.306"
	},
	{
		"rt": 440,
		"stimulus": "../audio/37-1-masc.mp3",
		"response": " ",
		"word": "Eu",
		"trial_type": "audio-keyboard-response",
		"trial_index": 375,
		"time_elapsed": 732607,
		"internal_node_id": "0.0-3.0-1.306"
	},
	{
		"rt": 1091,
		"stimulus": "../audio/37-2-masc.mp3",
		"response": " ",
		"word": "adoro",
		"trial_type": "audio-keyboard-response",
		"trial_index": 376,
		"time_elapsed": 733989,
		"internal_node_id": "0.0-3.0-1.307"
	},
	{
		"rt": 1011,
		"stimulus": "../audio/37-3-masc.mp3",
		"response": " ",
		"word": "suco",
		"trial_type": "audio-keyboard-response",
		"trial_index": 377,
		"time_elapsed": 735303,
		"internal_node_id": "0.0-3.0-1.308"
	},
	{
		"rt": 941,
		"stimulus": "../audio/37-4-masc.mp3",
		"response": " ",
		"word": "de",
		"trial_type": "audio-keyboard-response",
		"trial_index": 378,
		"time_elapsed": 736518,
		"internal_node_id": "0.0-3.0-1.309"
	},
	{
		"rt": 1181,
		"stimulus": "../audio/37-5-masc.mp3",
		"response": " ",
		"word": "manga",
		"trial_type": "audio-keyboard-response",
		"trial_index": 379,
		"time_elapsed": 738002,
		"internal_node_id": "0.0-3.0-1.310"
	},
	{
		"rt": 861,
		"stimulus": "../audio/37-6-masc.mp3",
		"response": " ",
		"word": "com",
		"trial_type": "audio-keyboard-response",
		"trial_index": 380,
		"time_elapsed": 739148,
		"internal_node_id": "0.0-3.0-1.311"
	},
	{
		"rt": 840,
		"stimulus": "../audio/37-7-masc.mp3",
		"response": " ",
		"word": "hortelã.",
		"trial_type": "audio-keyboard-response",
		"trial_index": 381,
		"time_elapsed": 740290,
		"internal_node_id": "0.0-3.0-1.312"
	},
	{
		"rt": null,
		"stimulus": "<span style= \"font-size:30px; font-family: monospace\">+</span>",
		"response": null,
		"trial_part": "fixation",
		"trial_type": "html-keyboard-response",
		"trial_index": 382,
		"time_elapsed": 741557,
		"internal_node_id": "0.0-3.0-0.313-0.313"
	},
	{
		"rt": 880,
		"stimulus": "../audio/38-1-masc.mp3",
		"response": " ",
		"word": "A",
		"trial_type": "audio-keyboard-response",
		"trial_index": 383,
		"time_elapsed": 742776,
		"internal_node_id": "0.0-3.0-1.313"
	},
	{
		"rt": 949,
		"stimulus": "../audio/38-2-masc.mp3",
		"response": " ",
		"word": "empresa",
		"trial_type": "audio-keyboard-response",
		"trial_index": 384,
		"time_elapsed": 744056,
		"internal_node_id": "0.0-3.0-1.314"
	},
	{
		"rt": 1339,
		"stimulus": "../audio/38-3-masc.mp3",
		"response": " ",
		"word": "criou",
		"trial_type": "audio-keyboard-response",
		"trial_index": 385,
		"time_elapsed": 745737,
		"internal_node_id": "0.0-3.0-1.315"
	},
	{
		"rt": 1059,
		"stimulus": "../audio/38-4-masc.mp3",
		"response": " ",
		"word": "a",
		"trial_type": "audio-keyboard-response",
		"trial_index": 386,
		"time_elapsed": 747133,
		"internal_node_id": "0.0-3.0-1.316"
	},
	{
		"rt": 1211,
		"stimulus": "../audio/38-5-masc.mp3",
		"response": " ",
		"word": "patente",
		"trial_type": "audio-keyboard-response",
		"trial_index": 387,
		"time_elapsed": 748668,
		"internal_node_id": "0.0-3.0-1.317"
	},
	{
		"rt": 920,
		"stimulus": "../audio/38-6-masc.mp3",
		"response": " ",
		"word": "da",
		"trial_type": "audio-keyboard-response",
		"trial_index": 388,
		"time_elapsed": 749919,
		"internal_node_id": "0.0-3.0-1.318"
	},
	{
		"rt": 1400,
		"stimulus": "../audio/38-7-masc.mp3",
		"response": " ",
		"word": "frigideira.",
		"trial_type": "audio-keyboard-response",
		"trial_index": 389,
		"time_elapsed": 751650,
		"internal_node_id": "0.0-3.0-1.319"
	},
	{
		"rt": null,
		"stimulus": "<span style= \"font-size:30px; font-family: monospace\">+</span>",
		"response": null,
		"trial_part": "fixation",
		"trial_type": "html-keyboard-response",
		"trial_index": 390,
		"time_elapsed": 752922,
		"internal_node_id": "0.0-3.0-0.320-0.320"
	},
	{
		"rt": 832,
		"stimulus": "../audio/39-1-masc.mp3",
		"response": " ",
		"word": "O",
		"trial_type": "audio-keyboard-response",
		"trial_index": 391,
		"time_elapsed": 754045,
		"internal_node_id": "0.0-3.0-1.320"
	},
	{
		"rt": 1211,
		"stimulus": "../audio/39-2-masc.mp3",
		"response": " ",
		"word": "conselho",
		"trial_type": "audio-keyboard-response",
		"trial_index": 392,
		"time_elapsed": 755546,
		"internal_node_id": "0.0-3.0-1.321"
	},
	{
		"rt": 1061,
		"stimulus": "../audio/39-3-masc.mp3",
		"response": " ",
		"word": "foi",
		"trial_type": "audio-keyboard-response",
		"trial_index": 393,
		"time_elapsed": 756911,
		"internal_node_id": "0.0-3.0-1.322"
	},
	{
		"rt": 1088,
		"stimulus": "../audio/39-4-masc.mp3",
		"response": " ",
		"word": "muito",
		"trial_type": "audio-keyboard-response",
		"trial_index": 394,
		"time_elapsed": 758296,
		"internal_node_id": "0.0-3.0-1.323"
	},
	{
		"rt": 1131,
		"stimulus": "../audio/39-5-masc.mp3",
		"response": " ",
		"word": "útil",
		"trial_type": "audio-keyboard-response",
		"trial_index": 395,
		"time_elapsed": 759718,
		"internal_node_id": "0.0-3.0-1.324"
	},
	{
		"rt": 952,
		"stimulus": "../audio/39-6-masc.mp3",
		"response": " ",
		"word": "para",
		"trial_type": "audio-keyboard-response",
		"trial_index": 396,
		"time_elapsed": 760963,
		"internal_node_id": "0.0-3.0-1.325"
	},
	{
		"rt": 731,
		"stimulus": "../audio/39-7-masc.mp3",
		"response": " ",
		"word": "minha",
		"trial_type": "audio-keyboard-response",
		"trial_index": 397,
		"time_elapsed": 762003,
		"internal_node_id": "0.0-3.0-1.326"
	},
	{
		"rt": 1051,
		"stimulus": "../audio/39-8-masc.mp3",
		"response": " ",
		"word": "tia.",
		"trial_type": "audio-keyboard-response",
		"trial_index": 398,
		"time_elapsed": 763364,
		"internal_node_id": "0.0-3.0-1.327"
	},
	{
		"rt": null,
		"stimulus": "<span style= \"font-size:30px; font-family: monospace\">+</span>",
		"response": null,
		"trial_part": "fixation",
		"trial_type": "html-keyboard-response",
		"trial_index": 399,
		"time_elapsed": 764638,
		"internal_node_id": "0.0-3.0-0.328-0.328"
	},
	{
		"rt": 981,
		"stimulus": "../audio/36-1-fem.mp3",
		"response": " ",
		"word": "Meu",
		"trial_type": "audio-keyboard-response",
		"trial_index": 400,
		"time_elapsed": 765922,
		"internal_node_id": "0.0-3.0-1.328"
	},
	{
		"rt": 1221,
		"stimulus": "../audio/36-2-fem.mp3",
		"response": " ",
		"word": "tio",
		"trial_type": "audio-keyboard-response",
		"trial_index": 401,
		"time_elapsed": 767438,
		"internal_node_id": "0.0-3.0-1.329"
	},
	{
		"rt": 1320,
		"stimulus": "../audio/36-3-fem.mp3",
		"response": " ",
		"word": "comprou",
		"trial_type": "audio-keyboard-response",
		"trial_index": 402,
		"time_elapsed": 769060,
		"internal_node_id": "0.0-3.0-1.330"
	},
	{
		"rt": 1101,
		"stimulus": "../audio/36-4-fem.mp3",
		"response": " ",
		"word": "um",
		"trial_type": "audio-keyboard-response",
		"trial_index": 403,
		"time_elapsed": 770434,
		"internal_node_id": "0.0-3.0-1.331"
	},
	{
		"rt": 1232,
		"stimulus": "../audio/36-5-fem.mp3",
		"response": " ",
		"word": "filtro",
		"trial_type": "audio-keyboard-response",
		"trial_index": 404,
		"time_elapsed": 771966,
		"internal_node_id": "0.0-3.0-1.332"
	},
	{
		"rt": 960,
		"stimulus": "../audio/36-6-fem.mp3",
		"response": " ",
		"word": "de",
		"trial_type": "audio-keyboard-response",
		"trial_index": 405,
		"time_elapsed": 773219,
		"internal_node_id": "0.0-3.0-1.333"
	},
	{
		"rt": 1360,
		"stimulus": "../audio/36-7-fem.mp3",
		"response": " ",
		"word": "água",
		"trial_type": "audio-keyboard-response",
		"trial_index": 406,
		"time_elapsed": 774864,
		"internal_node_id": "0.0-3.0-1.334"
	},
	{
		"rt": 1149,
		"stimulus": "../audio/36-8-fem.mp3",
		"response": " ",
		"word": "hoje",
		"trial_type": "audio-keyboard-response",
		"trial_index": 407,
		"time_elapsed": 776308,
		"internal_node_id": "0.0-3.0-1.335"
	},
	{
		"rt": 1189,
		"stimulus": "../audio/36-9-fem.mp3",
		"response": " ",
		"word": "cedo.",
		"trial_type": "audio-keyboard-response",
		"trial_index": 408,
		"time_elapsed": 777792,
		"internal_node_id": "0.0-3.0-1.336"
	},
	{
		"rt": null,
		"stimulus": "<span style= \"font-size:30px; font-family: monospace\">+</span>",
		"response": null,
		"trial_part": "fixation",
		"trial_type": "html-keyboard-response",
		"trial_index": 409,
		"time_elapsed": 779061,
		"internal_node_id": "0.0-3.0-0.337-0.337"
	},
	{
		"rt": 800,
		"stimulus": "../audio/40-1-masc.mp3",
		"response": " ",
		"word": "O",
		"trial_type": "audio-keyboard-response",
		"trial_index": 410,
		"time_elapsed": 780196,
		"internal_node_id": "0.0-3.0-1.337"
	},
	{
		"rt": 1051,
		"stimulus": "../audio/40-2-masc.mp3",
		"response": " ",
		"word": "jogo",
		"trial_type": "audio-keyboard-response",
		"trial_index": 411,
		"time_elapsed": 781585,
		"internal_node_id": "0.0-3.0-1.338"
	},
	{
		"rt": 1379,
		"stimulus": "../audio/40-3-masc.mp3",
		"response": " ",
		"word": "falava",
		"trial_type": "audio-keyboard-response",
		"trial_index": 412,
		"time_elapsed": 783302,
		"internal_node_id": "0.0-3.0-1.339"
	},
	{
		"rt": 1139,
		"stimulus": "../audio/40-4-masc.mp3",
		"response": " ",
		"word": "de",
		"trial_type": "audio-keyboard-response",
		"trial_index": 413,
		"time_elapsed": 784779,
		"internal_node_id": "0.0-3.0-1.340"
	},
	{
		"rt": 1560,
		"stimulus": "../audio/40-5-masc.mp3",
		"response": " ",
		"word": "fantasia",
		"trial_type": "audio-keyboard-response",
		"trial_index": 414,
		"time_elapsed": 786735,
		"internal_node_id": "0.0-3.0-1.341"
	},
	{
		"rt": 1680,
		"stimulus": "../audio/40-6-masc.mp3",
		"response": " ",
		"word": "e",
		"trial_type": "audio-keyboard-response",
		"trial_index": 415,
		"time_elapsed": 788772,
		"internal_node_id": "0.0-3.0-1.342"
	},
	{
		"rt": 939,
		"stimulus": "../audio/40-7-masc.mp3",
		"response": " ",
		"word": "de",
		"trial_type": "audio-keyboard-response",
		"trial_index": 416,
		"time_elapsed": 790130,
		"internal_node_id": "0.0-3.0-1.343"
	},
	{
		"rt": 1341,
		"stimulus": "../audio/40-8-masc.mp3",
		"response": " ",
		"word": "aventura.",
		"trial_type": "audio-keyboard-response",
		"trial_index": 417,
		"time_elapsed": 791876,
		"internal_node_id": "0.0-3.0-1.344"
	},
	{
		"rt": 4217,
		"stimulus": "<span style=\"font-size:25px; font-family: monospace\">O jogo tinha fantasia e aventura?</span>",
		"response": "s",
		"question": "O jogo tinha fantasia e aventura?",
		"answer": "null",
		"trial": "exp-sent",
		"trial_type": "html-keyboard-response",
		"trial_index": 418,
		"time_elapsed": 796357,
		"internal_node_id": "0.0-3.0-2.344-0.344",
		"accuracy": false
	},
	{
		"rt": null,
		"stimulus": "<span style= \"font-size:30px; font-family: monospace\">+</span>",
		"response": null,
		"trial_part": "fixation",
		"trial_type": "html-keyboard-response",
		"trial_index": 419,
		"time_elapsed": 797874,
		"internal_node_id": "0.0-3.0-0.345-0.345"
	},
	{
		"rt": 1451,
		"stimulus": "../audio/21-1-masc.mp3",
		"response": " ",
		"word": "Precisamos",
		"trial_type": "audio-keyboard-response",
		"trial_index": 420,
		"time_elapsed": 799701,
		"internal_node_id": "0.0-3.0-1.345"
	},
	{
		"rt": 1269,
		"stimulus": "../audio/21-2-masc.mp3",
		"response": " ",
		"word": "de",
		"trial_type": "audio-keyboard-response",
