"view_history","rt","trial_type","trial_index","time_elapsed","internal_node_id","stimulus","response","trial_part","trial","word","question","answer","accuracy"
"[{""page_index"":0,""viewing_time"":76887},{""page_index"":1,""viewing_time"":1039}]","77926","instructions","0","77928","0.0-0.0","","","","","","","",""
"","null","html-keyboard-response","1","79049","0.0-1.0-0.0-0.0","<span style= ""font-size:30px; font-family: monospace"">+</span>","null","fixation","","","","",""
"","6370","html-keyboard-response","2","85676","0.0-1.0-1.0","<span style=""font-size:30px; font-family: monospace"">O</span>"," ","","prac-sent","O","","",""
"","2411","html-keyboard-response","3","88344","0.0-1.0-1.1","<span style=""font-size:30px; font-family: monospace"">dia</span>"," ","","prac-sent","dia","","",""
"","2318","html-keyboard-response","4","90927","0.0-1.0-1.2","<span style=""font-size:30px; font-family: monospace"">estará</span>"," ","","prac-sent","estará","","",""
"","4513","html-keyboard-response","5","95696","0.0-1.0-1.3","<span style=""font-size:30px; font-family: monospace"">cheio</span>"," ","","prac-sent","cheio","","",""
"","1074","html-keyboard-response","6","97028","0.0-1.0-1.4","<span style=""font-size:30px; font-family: monospace"">de</span>"," ","","prac-sent","de","","",""
"","943","html-keyboard-response","7","98235","0.0-1.0-1.5","<span style=""font-size:30px; font-family: monospace"">nuvens</span>"," ","","prac-sent","nuvens","","",""
"","1060","html-keyboard-response","8","99550","0.0-1.0-1.6","<span style=""font-size:30px; font-family: monospace"">hoje.</span>"," ","","prac-sent","hoje.","","",""
"","null","html-keyboard-response","9","100810","0.0-1.0-0.7-0.7","<span style= ""font-size:30px; font-family: monospace"">+</span>","null","fixation","","","","",""
"","1658","html-keyboard-response","10","102722","0.0-1.0-1.7","<span style=""font-size:30px; font-family: monospace"">A</span>"," ","","prac-sent","A","","",""
"","1225","html-keyboard-response","11","104201","0.0-1.0-1.8","<span style=""font-size:30px; font-family: monospace"">caneca</span>"," ","","prac-sent","caneca","","",""
"","807","html-keyboard-response","12","105262","0.0-1.0-1.9","<span style=""font-size:30px; font-family: monospace"">colorida</span>"," ","","prac-sent","colorida","","",""
"","1115","html-keyboard-response","13","106635","0.0-1.0-1.10","<span style=""font-size:30px; font-family: monospace"">caiu</span>"," ","","prac-sent","caiu","","",""
"","697","html-keyboard-response","14","107592","0.0-1.0-1.11","<span style=""font-size:30px; font-family: monospace"">da</span>"," ","","prac-sent","da","","",""
"","859","html-keyboard-response","15","108713","0.0-1.0-1.12","<span style=""font-size:30px; font-family: monospace"">mesa</span>"," ","","prac-sent","mesa","","",""
"","486","html-keyboard-response","16","109452","0.0-1.0-1.13","<span style=""font-size:30px; font-family: monospace"">de</span>"," ","","prac-sent","de","","",""
"","1157","html-keyboard-response","17","110874","0.0-1.0-1.14","<span style=""font-size:30px; font-family: monospace"">jantar.</span>"," ","","prac-comp","jantar.","","",""
"","69719","html-keyboard-response","18","180850","0.0-1.0-2.14-0.14","<span style=""font-size:30px; font-family: monospace"">A caneca permaneceu na mesa?</span>","n","","prac-comp","","A caneca permaneceu na mesa?","não","false"
"[{""page_index"":0,""viewing_time"":53393}]","53394","instructions","19","234754","0.0-2.0","","","","","","","",""
"","null","html-keyboard-response","20","235881","0.0-3.0-0.0-0.0","<span style= ""font-size:30px; font-family: monospace"">+</span>","null","fixation","","","","",""
"","983","html-keyboard-response","21","237124","0.0-3.0-1.0","<span style=""font-size:30px; font-family: monospace"">A</span>"," ","","exp-sent","A","","",""
"","1396","html-keyboard-response","22","238779","0.0-3.0-1.1","<span style=""font-size:30px; font-family: monospace"">força</span>"," ","","exp-sent","força","","",""
"","1289","html-keyboard-response","23","240333","0.0-3.0-1.2","<span style=""font-size:30px; font-family: monospace"">d'água</span>"," ","","exp-sent","d'água","","",""
"","1270","html-keyboard-response","24","241867","0.0-3.0-1.3","<span style=""font-size:30px; font-family: monospace"">estava</span>"," ","","exp-sent","estava","","",""
"","2568","html-keyboard-response","25","244698","0.0-3.0-1.4","<span style=""font-size:30px; font-family: monospace"">normal</span>"," ","","exp-sent","normal","","",""
"","6246","html-keyboard-response","26","251202","0.0-3.0-1.5","<span style=""font-size:30px; font-family: monospace"">naquele</span>"," ","","exp-sent","naquele","","",""
"","450","html-keyboard-response","27","251903","0.0-3.0-1.6","<span style=""font-size:30px; font-family: monospace"">dia.</span>"," ","","exp-sent","dia.","","",""
"","null","html-keyboard-response","28","253167","0.0-3.0-0.7-0.7","<span style= ""font-size:30px; font-family: monospace"">+</span>","null","fixation","","","","",""
"","7153","html-keyboard-response","29","260578","0.0-3.0-1.7","<span style=""font-size:30px; font-family: monospace"">A</span>"," ","","exp-sent","A","","",""
"","1630","html-keyboard-response","30","262461","0.0-3.0-1.8","<span style=""font-size:30px; font-family: monospace"">médica</span>"," ","","exp-sent","médica","","",""
"","844","html-keyboard-response","31","263557","0.0-3.0-1.9","<span style=""font-size:30px; font-family: monospace"">ofereceu</span>"," ","","exp-sent","ofereceu","","",""
"","501","html-keyboard-response","32","264314","0.0-3.0-1.10","<span style=""font-size:30px; font-family: monospace"">a</span>"," ","","exp-sent","a","","",""
"","807","html-keyboard-response","33","265380","0.0-3.0-1.11","<span style=""font-size:30px; font-family: monospace"">pomada</span>"," ","","exp-sent","pomada","","",""
"","550","html-keyboard-response","34","266193","0.0-3.0-1.12","<span style=""font-size:30px; font-family: monospace"">para</span>"," ","","exp-sent","para","","",""
"","747","html-keyboard-response","35","267191","0.0-3.0-1.13","<span style=""font-size:30px; font-family: monospace"">o</span>"," ","","exp-sent","o","","",""
"","683","html-keyboard-response","36","268134","0.0-3.0-1.14","<span style=""font-size:30px; font-family: monospace"">avô.</span>"," ","","exp-sent","avô.","","",""
"","null","html-keyboard-response","37","269390","0.0-3.0-0.15-0.15","<span style= ""font-size:30px; font-family: monospace"">+</span>","null","fixation","","","","",""
"","1299","html-keyboard-response","38","270945","0.0-3.0-1.15","<span style=""font-size:30px; font-family: monospace"">Ele</span>"," ","","exp-sent","Ele","","",""
"","1979","html-keyboard-response","39","273176","0.0-3.0-1.16","<span style=""font-size:30px; font-family: monospace"">conversou</span>"," ","","exp-sent","conversou","","",""
"","1653","html-keyboard-response","40","275085","0.0-3.0-1.17","<span style=""font-size:30px; font-family: monospace"">com</span>"," ","","exp-sent","com","","",""
"","1550","html-keyboard-response","41","276897","0.0-3.0-1.18","<span style=""font-size:30px; font-family: monospace"">o</span>"," ","","exp-sent","o","","",""
"","1118","html-keyboard-response","42","278276","0.0-3.0-1.19","<span style=""font-size:30px; font-family: monospace"">patrão</span>"," ","","exp-sent","patrão","","",""
"","1263","html-keyboard-response","43","279802","0.0-3.0-1.20","<span style=""font-size:30px; font-family: monospace"">durante</span>"," ","","exp-sent","durante","","",""
"","1115","html-keyboard-response","44","281173","0.0-3.0-1.21","<span style=""font-size:30px; font-family: monospace"">a</span>"," ","","exp-sent","a","","",""
"","1040","html-keyboard-response","45","282470","0.0-3.0-1.22","<span style=""font-size:30px; font-family: monospace"">tarde.</span>"," ","","exp-sent","tarde.","","",""
"","null","html-keyboard-response","46","283735","0.0-3.0-0.23-0.23","<span style= ""font-size:30px; font-family: monospace"">+</span>","null","fixation","","","","",""
"","864","html-keyboard-response","47","284852","0.0-3.0-1.23","<span style=""font-size:30px; font-family: monospace"">Algumas</span>"," ","","exp-sent","Algumas","","",""
"","472","html-keyboard-response","48","285585","0.0-3.0-1.24","<span style=""font-size:30px; font-family: monospace"">pessoas</span>"," ","","exp-sent","pessoas","","",""
"","742","html-keyboard-response","49","286582","0.0-3.0-1.25","<span style=""font-size:30px; font-family: monospace"">acreditam</span>"," ","","exp-sent","acreditam","","",""
"","335","html-keyboard-response","50","287180","0.0-3.0-1.26","<span style=""font-size:30px; font-family: monospace"">em</span>"," ","","exp-sent","em","","",""
"","720","html-keyboard-response","51","288160","0.0-3.0-1.27","<span style=""font-size:30px; font-family: monospace"">espíritos</span>"," ","","exp-sent","espíritos","","",""
"","394","html-keyboard-response","52","288807","0.0-3.0-1.28","<span style=""font-size:30px; font-family: monospace"">e</span>"," ","","exp-sent","e","","",""
"","620","html-keyboard-response","53","289690","0.0-3.0-1.29","<span style=""font-size:30px; font-family: monospace"">em</span>"," ","","exp-sent","em","","",""
"","481","html-keyboard-response","54","290428","0.0-3.0-1.30","<span style=""font-size:30px; font-family: monospace"">outras</span>"," ","","exp-sent","outras","","",""
"","509","html-keyboard-response","55","291191","0.0-3.0-1.31","<span style=""font-size:30px; font-family: monospace"">vidas.</span>"," ","","exp-sent","vidas.","","",""
"","null","html-keyboard-response","56","292462","0.0-3.0-0.32-0.32","<span style= ""font-size:30px; font-family: monospace"">+</span>","null","fixation","","","","",""
"","553","html-keyboard-response","57","293272","0.0-3.0-1.32","<span style=""font-size:30px; font-family: monospace"">Ela</span>"," ","","exp-sent","Ela","","",""
"","604","html-keyboard-response","58","294140","0.0-3.0-1.33","<span style=""font-size:30px; font-family: monospace"">gosta</span>"," ","","exp-sent","gosta","","",""
"","415","html-keyboard-response","59","294813","0.0-3.0-1.34","<span style=""font-size:30px; font-family: monospace"">de</span>"," ","","exp-sent","de","","",""
"","568","html-keyboard-response","60","295648","0.0-3.0-1.35","<span style=""font-size:30px; font-family: monospace"">estudar</span>"," ","","exp-sent","estudar","","",""
"","530","html-keyboard-response","61","296430","0.0-3.0-1.36","<span style=""font-size:30px; font-family: monospace"">matemática</span>"," ","","exp-sent","matemática","","",""
"","387","html-keyboard-response","62","297081","0.0-3.0-1.37","<span style=""font-size:30px; font-family: monospace"">com</span>"," ","","exp-sent","com","","",""
"","440","html-keyboard-response","63","297772","0.0-3.0-1.38","<span style=""font-size:30px; font-family: monospace"">colegas.</span>"," ","","comp","colegas.","","",""
"","42973","html-keyboard-response","64","341009","0.0-3.0-2.38-0.38","<span style=""font-size:30px; font-family: monospace"">Ela gosta de estudar física?</span>","n","","comp","","Ela gosta de estudar física?","não","false"
"","null","html-keyboard-response","65","342520","0.0-3.0-0.39-0.39","<span style= ""font-size:30px; font-family: monospace"">+</span>","null","fixation","","","","",""
"","2102","html-keyboard-response","66","344879","0.0-3.0-1.39","<span style=""font-size:30px; font-family: monospace"">Este</span>"," ","","exp-sent","Este","","",""
"","920","html-keyboard-response","67","346063","0.0-3.0-1.40","<span style=""font-size:30px; font-family: monospace"">conto</span>"," ","","exp-sent","conto","","",""
"","802","html-keyboard-response","68","347126","0.0-3.0-1.41","<span style=""font-size:30px; font-family: monospace"">tem</span>"," ","","exp-sent","tem","","",""
"","809","html-keyboard-response","69","348187","0.0-3.0-1.42","<span style=""font-size:30px; font-family: monospace"">um</span>"," ","","exp-sent","um","","",""
"","610","html-keyboard-response","70","349064","0.0-3.0-1.43","<span style=""font-size:30px; font-family: monospace"">final</span>"," ","","exp-sent","final","","",""
"","825","html-keyboard-response","71","350153","0.0-3.0-1.44","<span style=""font-size:30px; font-family: monospace"">perfeito.</span>"," ","","exp-sent","perfeito.","","",""
"","null","html-keyboard-response","72","351414","0.0-3.0-0.45-0.45","<span style= ""font-size:30px; font-family: monospace"">+</span>","null","fixation","","","","",""
"","711","html-keyboard-response","73","352382","0.0-3.0-1.45","<span style=""font-size:30px; font-family: monospace"">Ele</span>"," ","","exp-sent","Ele","","",""
"","766","html-keyboard-response","74","353406","0.0-3.0-1.46","<span style=""font-size:30px; font-family: monospace"">precisa</span>"," ","","exp-sent","precisa","","",""
"","833","html-keyboard-response","75","354495","0.0-3.0-1.47","<span style=""font-size:30px; font-family: monospace"">de</span>"," ","","exp-sent","de","","",""
"","935","html-keyboard-response","76","355696","0.0-3.0-1.48","<span style=""font-size:30px; font-family: monospace"">um</span>"," ","","exp-sent","um","","",""
"","1096","html-keyboard-response","77","357054","0.0-3.0-1.49","<span style=""font-size:30px; font-family: monospace"">protetor</span>"," ","","exp-sent","protetor","","",""
"","528","html-keyboard-response","78","357833","0.0-3.0-1.50","<span style=""font-size:30px; font-family: monospace"">de</span>"," ","","exp-sent","de","","",""
"","573","html-keyboard-response","79","358660","0.0-3.0-1.51","<span style=""font-size:30px; font-family: monospace"">ouvido.</span>"," ","","exp-sent","ouvido.","","",""
"","null","html-keyboard-response","80","359931","0.0-3.0-0.52-0.52","<span style= ""font-size:30px; font-family: monospace"">+</span>","null","fixation","","","","",""
"","805","html-keyboard-response","81","360992","0.0-3.0-1.52","<span style=""font-size:30px; font-family: monospace"">Os</span>"," ","","exp-sent","Os","","",""
"","588","html-keyboard-response","82","361832","0.0-3.0-1.53","<span style=""font-size:30px; font-family: monospace"">hábitos</span>"," ","","exp-sent","hábitos","","",""
"","309","html-keyboard-response","83","362407","0.0-3.0-1.54","<span style=""font-size:30px; font-family: monospace"">de</span>"," ","","exp-sent","de","","",""
"","664","html-keyboard-response","84","363337","0.0-3.0-1.55","<span style=""font-size:30px; font-family: monospace"">lugares</span>"," ","","exp-sent","lugares","","",""
"","578","html-keyboard-response","85","364172","0.0-3.0-1.56","<span style=""font-size:30px; font-family: monospace"">diferentes</span>"," ","","exp-sent","diferentes","","",""
"","576","html-keyboard-response","86","365003","0.0-3.0-1.57","<span style=""font-size:30px; font-family: monospace"">são</span>"," ","","exp-sent","são","","",""
"","490","html-keyboard-response","87","365751","0.0-3.0-1.58","<span style=""font-size:30px; font-family: monospace"">muito</span>"," ","","exp-sent","muito","","",""
"","498","html-keyboard-response","88","366515","0.0-3.0-1.59","<span style=""font-size:30px; font-family: monospace"">lindos.</span>"," ","","exp-sent","lindos.","","",""
"","null","html-keyboard-response","89","367775","0.0-3.0-0.60-0.60","<span style= ""font-size:30px; font-family: monospace"">+</span>","null","fixation","","","","",""
"","251","html-keyboard-response","90","368282","0.0-3.0-1.60","<span style=""font-size:30px; font-family: monospace"">O</span>"," ","","exp-sent","O","","",""
"","495","html-keyboard-response","91","369034","0.0-3.0-1.61","<span style=""font-size:30px; font-family: monospace"">médico</span>"," ","","exp-sent","médico","","",""
"","454","html-keyboard-response","92","369744","0.0-3.0-1.62","<span style=""font-size:30px; font-family: monospace"">corrigiu</span>"," ","","exp-sent","corrigiu","","",""
"","553","html-keyboard-response","93","370562","0.0-3.0-1.63","<span style=""font-size:30px; font-family: monospace"">a</span>"," ","","exp-sent","a","","",""
"","481","html-keyboard-response","94","371308","0.0-3.0-1.64","<span style=""font-size:30px; font-family: monospace"">postura</span>"," ","","exp-sent","postura","","",""
"","367","html-keyboard-response","95","371930","0.0-3.0-1.65","<span style=""font-size:30px; font-family: monospace"">das</span>"," ","","exp-sent","das","","",""
"","386","html-keyboard-response","96","372581","0.0-3.0-1.66","<span style=""font-size:30px; font-family: monospace"">costas</span>"," ","","exp-sent","costas","","",""
"","431","html-keyboard-response","97","373266","0.0-3.0-1.67","<span style=""font-size:30px; font-family: monospace"">da</span>"," ","","exp-sent","da","","",""
"","431","html-keyboard-response","98","373953","0.0-3.0-1.68","<span style=""font-size:30px; font-family: monospace"">pessoa.</span>"," ","","exp-sent","pessoa.","","",""
"","null","html-keyboard-response","99","375213","0.0-3.0-0.69-0.69","<span style= ""font-size:30px; font-family: monospace"">+</span>","null","fixation","","","","",""
"","383","html-keyboard-response","100","375853","0.0-3.0-1.69","<span style=""font-size:30px; font-family: monospace"">Aquele</span>"," ","","exp-sent","Aquele","","",""
"","326","html-keyboard-response","101","376437","0.0-3.0-1.70","<span style=""font-size:30px; font-family: monospace"">era</span>"," ","","exp-sent","era","","",""
"","297","html-keyboard-response","102","377000","0.0-3.0-1.71","<span style=""font-size:30px; font-family: monospace"">um</span>"," ","","exp-sent","um","","",""
"","340","html-keyboard-response","103","377592","0.0-3.0-1.72","<span style=""font-size:30px; font-family: monospace"">caso</span>"," ","","exp-sent","caso","","",""
"","343","html-keyboard-response","104","378199","0.0-3.0-1.73","<span style=""font-size:30px; font-family: monospace"">real</span>"," ","","exp-sent","real","","",""
"","425","html-keyboard-response","105","378878","0.0-3.0-1.74","<span style=""font-size:30px; font-family: monospace"">de</span>"," ","","exp-sent","de","","",""
"","478","html-keyboard-response","106","379617","0.0-3.0-1.75","<span style=""font-size:30px; font-family: monospace"">sequestro</span>"," ","","exp-sent","sequestro","","",""
"","455","html-keyboard-response","107","380327","0.0-3.0-1.76","<span style=""font-size:30px; font-family: monospace"">premeditado.</span>"," ","","comp","premeditado.","","",""
"","15282","html-keyboard-response","108","395870","0.0-3.0-2.76-0.76","<span style=""font-size:30px; font-family: monospace"">Aquele era um caso real de roubo?</span>","s","","comp","","Aquele era um caso real de roubo?","não","false"
"","null","html-keyboard-response","109","397376","0.0-3.0-0.77-0.77","<span style= ""font-size:30px; font-family: monospace"">+</span>","null","fixation","","","","",""
"","2486","html-keyboard-response","110","400122","0.0-3.0-1.77","<span style=""font-size:30px; font-family: monospace"">A</span>"," ","","exp-sent","A","","",""
"","951","html-keyboard-response","111","401331","0.0-3.0-1.78","<span style=""font-size:30px; font-family: monospace"">senhora</span>"," ","","exp-sent","senhora","","",""
"","1089","html-keyboard-response","112","402680","0.0-3.0-1.79","<span style=""font-size:30px; font-family: monospace"">cumprimentou</span>"," ","","exp-sent","cumprimentou","","",""
"","756","html-keyboard-response","113","403697","0.0-3.0-1.80","<span style=""font-size:30px; font-family: monospace"">o</span>"," ","","exp-sent","o","","",""
"","948","html-keyboard-response","114","404899","0.0-3.0-1.81","<span style=""font-size:30px; font-family: monospace"">operador</span>"," ","","exp-sent","operador","","",""
"","653","html-keyboard-response","115","405816","0.0-3.0-1.82","<span style=""font-size:30px; font-family: monospace"">de</span>"," ","","exp-sent","de","","",""
"","557","html-keyboard-response","116","406640","0.0-3.0-1.83","<span style=""font-size:30px; font-family: monospace"">caixa.</span>"," ","","exp-sent","caixa.","","",""
"","null","html-keyboard-response","117","407901","0.0-3.0-0.84-0.84","<span style= ""font-size:30px; font-family: monospace"">+</span>","null","fixation","","","","",""
"","431","html-keyboard-response","118","408589","0.0-3.0-1.84","<span style=""font-size:30px; font-family: monospace"">A</span>"," ","","exp-sent","A","","",""
"","653","html-keyboard-response","119","409498","0.0-3.0-1.85","<span style=""font-size:30px; font-family: monospace"">gente</span>"," ","","exp-sent","gente","","",""
"","375","html-keyboard-response","120","410131","0.0-3.0-1.86","<span style=""font-size:30px; font-family: monospace"">viu</span>"," ","","exp-sent","viu","","",""
"","650","html-keyboard-response","121","411046","0.0-3.0-1.87","<span style=""font-size:30px; font-family: monospace"">o</span>"," ","","exp-sent","o","","",""
"","709","html-keyboard-response","122","412019","0.0-3.0-1.88","<span style=""font-size:30px; font-family: monospace"">eclipse</span>"," ","","exp-sent","eclipse","","",""
"","467","html-keyboard-response","123","412747","0.0-3.0-1.89","<span style=""font-size:30px; font-family: monospace"">lunar</span>"," ","","exp-sent","lunar","","",""
"","710","html-keyboard-response","124","413710","0.0-3.0-1.90","<span style=""font-size:30px; font-family: monospace"">durante</span>"," ","","exp-sent","durante","","",""
"","325","html-keyboard-response","125","414297","0.0-3.0-1.91","<span style=""font-size:30px; font-family: monospace"">o</span>"," ","","exp-sent","o","","",""
"","594","html-keyboard-response","126","415151","0.0-3.0-1.92","<span style=""font-size:30px; font-family: monospace"">dia.</span>"," ","","exp-sent","dia.","","",""
"","null","html-keyboard-response","127","416411","0.0-3.0-0.93-0.93","<span style= ""font-size:30px; font-family: monospace"">+</span>","null","fixation","","","","",""
"","308","html-keyboard-response","128","416974","0.0-3.0-1.93","<span style=""font-size:30px; font-family: monospace"">A</span>"," ","","exp-sent","A","","",""
"","469","html-keyboard-response","129","417710","0.0-3.0-1.94","<span style=""font-size:30px; font-family: monospace"">mordida</span>"," ","","exp-sent","mordida","","",""
"","426","html-keyboard-response","130","418396","0.0-3.0-1.95","<span style=""font-size:30px; font-family: monospace"">do</span>"," ","","exp-sent","do","","",""
"","844","html-keyboard-response","131","419496","0.0-3.0-1.96","<span style=""font-size:30px; font-family: monospace"">cachorro</span>"," ","","exp-sent","cachorro","","",""
"","427","html-keyboard-response","132","420179","0.0-3.0-1.97","<span style=""font-size:30px; font-family: monospace"">voraz</span>"," ","","exp-sent","voraz","","",""
"","490","html-keyboard-response","133","420932","0.0-3.0-1.98","<span style=""font-size:30px; font-family: monospace"">causou</span>"," ","","exp-sent","causou","","",""
"","455","html-keyboard-response","134","421650","0.0-3.0-1.99","<span style=""font-size:30px; font-family: monospace"">uma</span>"," ","","exp-sent","uma","","",""
"","451","html-keyboard-response","135","422352","0.0-3.0-1.100","<span style=""font-size:30px; font-family: monospace"">cicatriz.</span>"," ","","exp-sent","cicatriz.","","",""
"","null","html-keyboard-response","136","423614","0.0-3.0-0.101-0.101","<span style= ""font-size:30px; font-family: monospace"">+</span>","null","fixation","","","","",""
"","450","html-keyboard-response","137","424320","0.0-3.0-1.101","<span style=""font-size:30px; font-family: monospace"">Elas</span>"," ","","exp-sent","Elas","","",""
"","713","html-keyboard-response","138","425286","0.0-3.0-1.102","<span style=""font-size:30px; font-family: monospace"">não</span>"," ","","exp-sent","não","","",""
"","615","html-keyboard-response","139","426157","0.0-3.0-1.103","<span style=""font-size:30px; font-family: monospace"">viram</span>"," ","","exp-sent","viram","","",""
"","706","html-keyboard-response","140","427129","0.0-3.0-1.104","<span style=""font-size:30px; font-family: monospace"">nenhuma</span>"," ","","exp-sent","nenhuma","","",""
"","583","html-keyboard-response","141","427967","0.0-3.0-1.105","<span style=""font-size:30px; font-family: monospace"">diferença</span>"," ","","exp-sent","diferença","","",""
"","427","html-keyboard-response","142","428660","0.0-3.0-1.106","<span style=""font-size:30px; font-family: monospace"">entre</span>"," ","","exp-sent","entre","","",""
"","357","html-keyboard-response","143","429269","0.0-3.0-1.107","<span style=""font-size:30px; font-family: monospace"">os</span>"," ","","exp-sent","os","","",""
"","405","html-keyboard-response","144","429925","0.0-3.0-1.108","<span style=""font-size:30px; font-family: monospace"">textos.</span>"," ","","exp-sent","textos.","","",""
"","null","html-keyboard-response","145","431178","0.0-3.0-0.109-0.109","<span style= ""font-size:30px; font-family: monospace"">+</span>","null","fixation","","","","",""
"","548","html-keyboard-response","146","431984","0.0-3.0-1.109","<span style=""font-size:30px; font-family: monospace"">Amanhã</span>"," ","","exp-sent","Amanhã","","",""
"","367","html-keyboard-response","147","432606","0.0-3.0-1.110","<span style=""font-size:30px; font-family: monospace"">vai</span>"," ","","exp-sent","vai","","",""
"","342","html-keyboard-response","148","433203","0.0-3.0-1.111","<span style=""font-size:30px; font-family: monospace"">ter</span>"," ","","exp-sent","ter","","",""
"","291","html-keyboard-response","149","433757","0.0-3.0-1.112","<span style=""font-size:30px; font-family: monospace"">um</span>"," ","","exp-sent","um","","",""
"","296","html-keyboard-response","150","434304","0.0-3.0-1.113","<span style=""font-size:30px; font-family: monospace"">bazar</span>"," ","","exp-sent","bazar","","",""
"","322","html-keyboard-response","151","434890","0.0-3.0-1.114","<span style=""font-size:30px; font-family: monospace"">no</span>"," ","","exp-sent","no","","",""
"","363","html-keyboard-response","152","435511","0.0-3.0-1.115","<span style=""font-size:30px; font-family: monospace"">bairro.</span>"," ","","comp","bairro.","","",""
"","5117","html-keyboard-response","153","440890","0.0-3.0-2.115-0.115","<span style=""font-size:30px; font-family: monospace"">Amanhã vai acontecer um bazar no bairro?</span>","s","","comp","","Amanhã vai acontecer um bazar no bairro?","sim","false"
"","null","html-keyboard-response","154","442403","0.0-3.0-0.116-0.116","<span style= ""font-size:30px; font-family: monospace"">+</span>","null","fixation","","","","",""
"","1259","html-keyboard-response","155","443922","0.0-3.0-1.116","<span style=""font-size:30px; font-family: monospace"">Barulho</span>"," ","","exp-sent","Barulho","","",""
"","549","html-keyboard-response","156","444736","0.0-3.0-1.117","<span style=""font-size:30px; font-family: monospace"">de</span>"," ","","exp-sent","de","","",""
"","793","html-keyboard-response","157","445789","0.0-3.0-1.118","<span style=""font-size:30px; font-family: monospace"">carros</span>"," ","","exp-sent","carros","","",""
"","407","html-keyboard-response","158","446457","0.0-3.0-1.119","<span style=""font-size:30px; font-family: monospace"">é</span>"," ","","exp-sent","é","","",""
"","851","html-keyboard-response","159","447570","0.0-3.0-1.120","<span style=""font-size:30px; font-family: monospace"">irritante</span>"," ","","exp-sent","irritante","","",""
"","504","html-keyboard-response","160","448327","0.0-3.0-1.121","<span style=""font-size:30px; font-family: monospace"">para</span>"," ","","exp-sent","para","","",""
"","384","html-keyboard-response","161","448970","0.0-3.0-1.122","<span style=""font-size:30px; font-family: monospace"">a</span>"," ","","exp-sent","a","","",""
"","480","html-keyboard-response","162","449699","0.0-3.0-1.123","<span style=""font-size:30px; font-family: monospace"">moça.</span>"," ","","exp-sent","moça.","","",""
"","null","html-keyboard-response","163","450981","0.0-3.0-0.124-0.124","<span style= ""font-size:30px; font-family: monospace"">+</span>","null","fixation","","","","",""
"","478","html-keyboard-response","164","451715","0.0-3.0-1.124","<span style=""font-size:30px; font-family: monospace"">A</span>"," ","","exp-sent","A","","",""
"","642","html-keyboard-response","165","452614","0.0-3.0-1.125","<span style=""font-size:30px; font-family: monospace"">loja</span>"," ","","exp-sent","loja","","",""
"","537","html-keyboard-response","166","453416","0.0-3.0-1.126","<span style=""font-size:30px; font-family: monospace"">também</span>"," ","","exp-sent","também","","",""
"","673","html-keyboard-response","167","454342","0.0-3.0-1.127","<span style=""font-size:30px; font-family: monospace"">vende</span>"," ","","exp-sent","vende","","",""
"","581","html-keyboard-response","168","455177","0.0-3.0-1.128","<span style=""font-size:30px; font-family: monospace"">taça</span>"," ","","exp-sent","taça","","",""
"","340","html-keyboard-response","169","455768","0.0-3.0-1.129","<span style=""font-size:30px; font-family: monospace"">de</span>"," ","","exp-sent","de","","",""
"","932","html-keyboard-response","170","456965","0.0-3.0-1.130","<span style=""font-size:30px; font-family: monospace"">vinho</span>"," ","","exp-sent","vinho","","",""
"","375","html-keyboard-response","171","457607","0.0-3.0-1.131","<span style=""font-size:30px; font-family: monospace"">e</span>"," ","","exp-sent","e","","",""
"","702","html-keyboard-response","172","458561","0.0-3.0-1.132","<span style=""font-size:30px; font-family: monospace"">espumante.</span>"," ","","exp-sent","espumante.","","",""
"","null","html-keyboard-response","173","459828","0.0-3.0-0.133-0.133","<span style= ""font-size:30px; font-family: monospace"">+</span>","null","fixation","","","","",""
"","465","html-keyboard-response","174","460549","0.0-3.0-1.133","<span style=""font-size:30px; font-family: monospace"">A</span>"," ","","exp-sent","A","","",""
"","495","html-keyboard-response","175","461294","0.0-3.0-1.134","<span style=""font-size:30px; font-family: monospace"">bruxa</span>"," ","","exp-sent","bruxa","","",""
"","689","html-keyboard-response","176","462242","0.0-3.0-1.135","<span style=""font-size:30px; font-family: monospace"">tinha</span>"," ","","exp-sent","tinha","","",""
"","412","html-keyboard-response","177","462906","0.0-3.0-1.136","<span style=""font-size:30px; font-family: monospace"">uma</span>"," ","","exp-sent","uma","","",""
"","538","html-keyboard-response","178","463700","0.0-3.0-1.137","<span style=""font-size:30px; font-family: monospace"">vassoura</span>"," ","","exp-sent","vassoura","","",""
"","562","html-keyboard-response","179","464524","0.0-3.0-1.138","<span style=""font-size:30px; font-family: monospace"">e</span>"," ","","exp-sent","e","","",""
"","1087","html-keyboard-response","180","465863","0.0-3.0-1.139","<span style=""font-size:30px; font-family: monospace"">um</span>"," ","","exp-sent","um","","",""
"","5817","html-keyboard-response","181","471932","0.0-3.0-1.140","<span style=""font-size:30px; font-family: monospace"">gato.</span>"," ","","exp-sent","gato.","","",""
"","null","html-keyboard-response","182","473204","0.0-3.0-0.141-0.141","<span style= ""font-size:30px; font-family: monospace"">+</span>","null","fixation","","","","",""
"","543","html-keyboard-response","183","474003","0.0-3.0-1.141","<span style=""font-size:30px; font-family: monospace"">Eu</span>"," ","","exp-sent","Eu","","",""
"","856","html-keyboard-response","184","475112","0.0-3.0-1.142","<span style=""font-size:30px; font-family: monospace"">me</span>"," ","","exp-sent","me","","",""
"","609","html-keyboard-response","185","475986","0.0-3.0-1.143","<span style=""font-size:30px; font-family: monospace"">divirto</span>"," ","","exp-sent","divirto","","",""
"","560","html-keyboard-response","186","476801","0.0-3.0-1.144","<span style=""font-size:30px; font-family: monospace"">em</span>"," ","","exp-sent","em","","",""
"","408","html-keyboard-response","187","477465","0.0-3.0-1.145","<span style=""font-size:30px; font-family: monospace"">festas</span>"," ","","exp-sent","festas","","",""
"","1248","html-keyboard-response","188","478980","0.0-3.0-1.146","<span style=""font-size:30px; font-family: monospace"">de</span>"," ","","exp-sent","de","","",""
"","300","html-keyboard-response","189","479533","0.0-3.0-1.147","<span style=""font-size:30px; font-family: monospace"">criança.</span>"," ","","exp-sent","criança.","","",""
"","null","html-keyboard-response","190","480810","0.0-3.0-0.148-0.148","<span style= ""font-size:30px; font-family: monospace"">+</span>","null","fixation","","","","",""
"","310","html-keyboard-response","191","481375","0.0-3.0-1.148","<span style=""font-size:30px; font-family: monospace"">A</span>"," ","","exp-sent","A","","",""
"","436","html-keyboard-response","192","482076","0.0-3.0-1.149","<span style=""font-size:30px; font-family: monospace"">janela</span>"," ","","exp-sent","janela","","",""
"","310","html-keyboard-response","193","482645","0.0-3.0-1.150","<span style=""font-size:30px; font-family: monospace"">alta</span>"," ","","exp-sent","alta","","",""
"","285","html-keyboard-response","194","483195","0.0-3.0-1.151","<span style=""font-size:30px; font-family: monospace"">estava</span>"," ","","exp-sent","estava","","",""
"","310","html-keyboard-response","195","483762","0.0-3.0-1.152","<span style=""font-size:30px; font-family: monospace"">quebrada</span>"," ","","exp-sent","quebrada","","",""
"","338","html-keyboard-response","196","484364","0.0-3.0-1.153","<span style=""font-size:30px; font-family: monospace"">desde</span>"," ","","exp-sent","desde","","",""
"","1251","html-keyboard-response","197","485868","0.0-3.0-1.154","<span style=""font-size:30px; font-family: monospace"">ontem.</span>"," ","","comp","ontem.","","",""
"","6231","html-keyboard-response","198","492373","0.0-3.0-2.154-0.154","<span style=""font-size:30px; font-family: monospace"">A janela alta estava quebrada?</span>","s","","comp","","A janela alta estava quebrada?","sim","false"
"","null","html-keyboard-response","199","493876","0.0-3.0-0.155-0.155","<span style= ""font-size:30px; font-family: monospace"">+</span>","null","fixation","","","","",""
"","1758","html-keyboard-response","200","495893","0.0-3.0-1.155","<span style=""font-size:30px; font-family: monospace"">A</span>"," ","","exp-sent","A","","",""
"","883","html-keyboard-response","201","497029","0.0-3.0-1.156","<span style=""font-size:30px; font-family: monospace"">motorista</span>"," ","","exp-sent","motorista","","",""
"","299","html-keyboard-response","202","497593","0.0-3.0-1.157","<span style=""font-size:30px; font-family: monospace"">fez</span>"," ","","exp-sent","fez","","",""
"","439","html-keyboard-response","203","498291","0.0-3.0-1.158","<span style=""font-size:30px; font-family: monospace"">o</span>"," ","","exp-sent","o","","",""
"","474","html-keyboard-response","204","499031","0.0-3.0-1.159","<span style=""font-size:30px; font-family: monospace"">retorno</span>"," ","","exp-sent","retorno","","",""
"","363","html-keyboard-response","205","499654","0.0-3.0-1.160","<span style=""font-size:30px; font-family: monospace"">com</span>"," ","","exp-sent","com","","",""
"","521","html-keyboard-response","206","500442","0.0-3.0-1.161","<span style=""font-size:30px; font-family: monospace"">cuidado.</span>"," ","","exp-sent","cuidado.","","",""
"","null","html-keyboard-response","207","501712","0.0-3.0-0.162-0.162","<span style= ""font-size:30px; font-family: monospace"">+</span>","null","fixation","","","","",""
"","362","html-keyboard-response","208","502330","0.0-3.0-1.162","<span style=""font-size:30px; font-family: monospace"">Contos</span>"," ","","exp-sent","Contos","","",""
"","423","html-keyboard-response","209","503014","0.0-3.0-1.163","<span style=""font-size:30px; font-family: monospace"">de</span>"," ","","exp-sent","de","","",""
"","496","html-keyboard-response","210","503762","0.0-3.0-1.164","<span style=""font-size:30px; font-family: monospace"">ação</span>"," ","","exp-sent","ação","","",""
"","676","html-keyboard-response","211","504692","0.0-3.0-1.165","<span style=""font-size:30px; font-family: monospace"">têm</span>"," ","","exp-sent","têm","","",""
"","1183","html-keyboard-response","212","506140","0.0-3.0-1.166","<span style=""font-size:30px; font-family: monospace"">chantagem</span>"," ","","exp-sent","chantagem","","",""
"","495","html-keyboard-response","213","506898","0.0-3.0-1.167","<span style=""font-size:30px; font-family: monospace"">e</span>"," ","","exp-sent","e","","",""
"","559","html-keyboard-response","214","507710","0.0-3.0-1.168","<span style=""font-size:30px; font-family: monospace"">muita</span>"," ","","exp-sent","muita","","",""
"","797","html-keyboard-response","215","508764","0.0-3.0-1.169","<span style=""font-size:30px; font-family: monospace"">luta.</span>"," ","","exp-sent","luta.","","",""
"","null","html-keyboard-response","216","510022","0.0-3.0-0.170-0.170","<span style= ""font-size:30px; font-family: monospace"">+</span>","null","fixation","","","","",""
"","372","html-keyboard-response","217","510650","0.0-3.0-1.170","<span style=""font-size:30px; font-family: monospace"">A</span>"," ","","exp-sent","A","","",""
"","720","html-keyboard-response","218","511631","0.0-3.0-1.171","<span style=""font-size:30px; font-family: monospace"">bisavó</span>"," ","","exp-sent","bisavó","","",""
"","720","html-keyboard-response","219","512611","0.0-3.0-1.172","<span style=""font-size:30px; font-family: monospace"">recebeu</span>"," ","","exp-sent","recebeu","","",""
"","351","html-keyboard-response","220","513221","0.0-3.0-1.173","<span style=""font-size:30px; font-family: monospace"">um</span>"," ","","exp-sent","um","","",""
"","660","html-keyboard-response","221","514138","0.0-3.0-1.174","<span style=""font-size:30px; font-family: monospace"">benefício</span>"," ","","exp-sent","benefício","","",""
"","2608","html-keyboard-response","222","517007","0.0-3.0-1.175","<span style=""font-size:30px; font-family: monospace"">temporário</span>"," ","","exp-sent","temporário","","",""
"","382","html-keyboard-response","223","517648","0.0-3.0-1.176","<span style=""font-size:30px; font-family: monospace"">do</span>"," ","","exp-sent","do","","",""
"","528","html-keyboard-response","224","518436","0.0-3.0-1.177","<span style=""font-size:30px; font-family: monospace"">governo.</span>"," ","","exp-sent","governo.","","",""
"","null","html-keyboard-response","225","519699","0.0-3.0-0.178-0.178","<span style= ""font-size:30px; font-family: monospace"">+</span>","null","fixation","","","","",""
"","325","html-keyboard-response","226","520281","0.0-3.0-1.178","<span style=""font-size:30px; font-family: monospace"">As</span>"," ","","exp-sent","As","","",""
"","596","html-keyboard-response","227","521134","0.0-3.0-1.179","<span style=""font-size:30px; font-family: monospace"">crianças</span>"," ","","exp-sent","crianças","","",""
"","578","html-keyboard-response","228","521967","0.0-3.0-1.180","<span style=""font-size:30px; font-family: monospace"">brincaram</span>"," ","","exp-sent","brincaram","","",""
"","417","html-keyboard-response","229","522637","0.0-3.0-1.181","<span style=""font-size:30px; font-family: monospace"">no</span>"," ","","exp-sent","no","","",""
"","545","html-keyboard-response","230","523438","0.0-3.0-1.182","<span style=""font-size:30px; font-family: monospace"">balanço</span>"," ","","exp-sent","balanço","","",""
"","485","html-keyboard-response","231","524178","0.0-3.0-1.183","<span style=""font-size:30px; font-family: monospace"">a</span>"," ","","exp-sent","a","","",""
"","541","html-keyboard-response","232","524973","0.0-3.0-1.184","<span style=""font-size:30px; font-family: monospace"">tarde</span>"," ","","exp-sent","tarde","","",""
"","433","html-keyboard-response","233","525663","0.0-3.0-1.185","<span style=""font-size:30px; font-family: monospace"">toda.</span>"," ","","exp-sent","toda.","","",""
"","null","html-keyboard-response","234","526935","0.0-3.0-0.186-0.186","<span style= ""font-size:30px; font-family: monospace"">+</span>","null","fixation","","","","",""
"","390","html-keyboard-response","235","527577","0.0-3.0-1.186","<span style=""font-size:30px; font-family: monospace"">Ela</span>"," ","","exp-sent","Ela","","",""
"","495","html-keyboard-response","236","528322","0.0-3.0-1.187","<span style=""font-size:30px; font-family: monospace"">gosta</span>"," ","","exp-sent","gosta","","",""
"","441","html-keyboard-response","237","529016","0.0-3.0-1.188","<span style=""font-size:30px; font-family: monospace"">de</span>"," ","","exp-sent","de","","",""
"","358","html-keyboard-response","238","529639","0.0-3.0-1.189","<span style=""font-size:30px; font-family: monospace"">comida</span>"," ","","exp-sent","comida","","",""
"","443","html-keyboard-response","239","530349","0.0-3.0-1.190","<span style=""font-size:30px; font-family: monospace"">natural</span>"," ","","exp-sent","natural","","",""
"","435","html-keyboard-response","240","531043","0.0-3.0-1.191","<span style=""font-size:30px; font-family: monospace"">no</span>"," ","","exp-sent","no","","",""
"","629","html-keyboard-response","241","531926","0.0-3.0-1.192","<span style=""font-size:30px; font-family: monospace"">almoço.</span>"," ","","comp","almoço.","","",""
"","14580","html-keyboard-response","242","546768","0.0-3.0-2.192-0.192","<span style=""font-size:30px; font-family: monospace"">Ela gosta de comida natural no almoço?</span>","s","","comp","","Ela gosta de comida natural no almoço?","sim","false"
"","null","html-keyboard-response","243","548288","0.0-3.0-0.193-0.193","<span style= ""font-size:30px; font-family: monospace"">+</span>","null","fixation","","","","",""
"","855","html-keyboard-response","244","549398","0.0-3.0-1.193","<span style=""font-size:30px; font-family: monospace"">No</span>"," ","","exp-sent","No","","",""
"","635","html-keyboard-response","245","550293","0.0-3.0-1.194","<span style=""font-size:30px; font-family: monospace"">passado</span>"," ","","exp-sent","passado","","",""
"","462","html-keyboard-response","246","551008","0.0-3.0-1.195","<span style=""font-size:30px; font-family: monospace"">houve</span>"," ","","exp-sent","houve","","",""
"","354","html-keyboard-response","247","551614","0.0-3.0-1.196","<span style=""font-size:30px; font-family: monospace"">uma</span>"," ","","exp-sent","uma","","",""
"","698","html-keyboard-response","248","552574","0.0-3.0-1.197","<span style=""font-size:30px; font-family: monospace"">rebelião</span>"," ","","exp-sent","rebelião","","",""
"","336","html-keyboard-response","249","553175","0.0-3.0-1.198","<span style=""font-size:30px; font-family: monospace"">nesta</span>"," ","","exp-sent","nesta","","",""
"","435","html-keyboard-response","250","553865","0.0-3.0-1.199","<span style=""font-size:30px; font-family: monospace"">cidade.</span>"," ","","exp-sent","cidade.","","",""
"","null","html-keyboard-response","251","555119","0.0-3.0-0.200-0.200","<span style= ""font-size:30px; font-family: monospace"">+</span>","null","fixation","","","","",""
"","454","html-keyboard-response","252","555833","0.0-3.0-1.200","<span style=""font-size:30px; font-family: monospace"">Ele</span>"," ","","exp-sent","Ele","","",""
"","636","html-keyboard-response","253","556726","0.0-3.0-1.201","<span style=""font-size:30px; font-family: monospace"">fundou</span>"," ","","exp-sent","fundou","","",""
"","489","html-keyboard-response","254","557469","0.0-3.0-1.202","<span style=""font-size:30px; font-family: monospace"">uma</span>"," ","","exp-sent","uma","","",""
"","522","html-keyboard-response","255","558255","0.0-3.0-1.203","<span style=""font-size:30px; font-family: monospace"">empresa</span>"," ","","exp-sent","empresa","","",""
"","638","html-keyboard-response","256","559154","0.0-3.0-1.204","<span style=""font-size:30px; font-family: monospace"">privada</span>"," ","","exp-sent","privada","","",""
"","554","html-keyboard-response","257","559965","0.0-3.0-1.205","<span style=""font-size:30px; font-family: monospace"">sem</span>"," ","","exp-sent","sem","","",""
"","472","html-keyboard-response","258","560698","0.0-3.0-1.206","<span style=""font-size:30px; font-family: monospace"">ajuda.</span>"," ","","exp-sent","ajuda.","","",""
"","null","html-keyboard-response","259","561970","0.0-3.0-0.207-0.207","<span style= ""font-size:30px; font-family: monospace"">+</span>","null","fixation","","","","",""
"","649","html-keyboard-response","260","562874","0.0-3.0-1.207","<span style=""font-size:30px; font-family: monospace"">As</span>"," ","","exp-sent","As","","",""
"","493","html-keyboard-response","261","563631","0.0-3.0-1.208","<span style=""font-size:30px; font-family: monospace"">meninas</span>"," ","","exp-sent","meninas","","",""
"","1000","html-keyboard-response","262","564884","0.0-3.0-1.209","<span style=""font-size:30px; font-family: monospace"">encontraram</span>"," ","","exp-sent","encontraram","","",""
"","370","html-keyboard-response","263","565507","0.0-3.0-1.210","<span style=""font-size:30px; font-family: monospace"">um</span>"," ","","exp-sent","um","","",""
"","378","html-keyboard-response","264","566137","0.0-3.0-1.211","<span style=""font-size:30px; font-family: monospace"">rato</span>"," ","","exp-sent","rato","","",""
"","386","html-keyboard-response","265","566786","0.0-3.0-1.212","<span style=""font-size:30px; font-family: monospace"">dentro</span>"," ","","exp-sent","dentro","","",""
"","399","html-keyboard-response","266","567441","0.0-3.0-1.213","<span style=""font-size:30px; font-family: monospace"">de</span>"," ","","exp-sent","de","","",""
"","332","html-keyboard-response","267","568028","0.0-3.0-1.214","<span style=""font-size:30px; font-family: monospace"">casa.</span>"," ","","exp-sent","casa.","","",""
"","null","html-keyboard-response","268","569289","0.0-3.0-0.215-0.215","<span style= ""font-size:30px; font-family: monospace"">+</span>","null","fixation","","","","",""
"","55","html-keyboard-response","269","569604","0.0-3.0-1.215","<span style=""font-size:30px; font-family: monospace"">O</span>"," ","","exp-sent","O","","",""
"","396","html-keyboard-response","270","570262","0.0-3.0-1.216","<span style=""font-size:30px; font-family: monospace"">texto</span>"," ","","exp-sent","texto","","",""
"","502","html-keyboard-response","271","571027","0.0-3.0-1.217","<span style=""font-size:30px; font-family: monospace"">tinha</span>"," ","","exp-sent","tinha","","",""
"","358","html-keyboard-response","272","571650","0.0-3.0-1.218","<span style=""font-size:30px; font-family: monospace"">ideias</span>"," ","","exp-sent","ideias","","",""
"","567","html-keyboard-response","273","572485","0.0-3.0-1.219","<span style=""font-size:30px; font-family: monospace"">vagas</span>"," ","","exp-sent","vagas","","",""
"","383","html-keyboard-response","274","573129","0.0-3.0-1.220","<span style=""font-size:30px; font-family: monospace"">e</span>"," ","","exp-sent","e","","",""
"","471","html-keyboard-response","275","573858","0.0-3.0-1.221","<span style=""font-size:30px; font-family: monospace"">confusas.</span>"," ","","exp-sent","confusas.","","",""
"","null","html-keyboard-response","276","575129","0.0-3.0-0.222-0.222","<span style= ""font-size:30px; font-family: monospace"">+</span>","null","fixation","","","","",""
"","347","html-keyboard-response","277","575731","0.0-3.0-1.222","<span style=""font-size:30px; font-family: monospace"">As</span>"," ","","exp-sent","As","","",""
"","574","html-keyboard-response","278","576564","0.0-3.0-1.223","<span style=""font-size:30px; font-family: monospace"">crianças</span>"," ","","exp-sent","crianças","","",""
"","494","html-keyboard-response","279","577318","0.0-3.0-1.224","<span style=""font-size:30px; font-family: monospace"">viram</span>"," ","","exp-sent","viram","","",""
"","549","html-keyboard-response","280","578126","0.0-3.0-1.225","<span style=""font-size:30px; font-family: monospace"">a</span>"," ","","exp-sent","a","","",""
"","460","html-keyboard-response","281","578849","0.0-3.0-1.226","<span style=""font-size:30px; font-family: monospace"">acrobata</span>"," ","","exp-sent","acrobata","","",""
"","640","html-keyboard-response","282","579756","0.0-3.0-1.227","<span style=""font-size:30px; font-family: monospace"">talentosa</span>"," ","","exp-sent","talentosa","","",""
"","473","html-keyboard-response","283","580491","0.0-3.0-1.228","<span style=""font-size:30px; font-family: monospace"">no</span>"," ","","exp-sent","no","","",""
"","381","html-keyboard-response","284","581127","0.0-3.0-1.229","<span style=""font-size:30px; font-family: monospace"">circo.</span>"," ","","comp","circo.","","",""
"","7232","html-keyboard-response","285","588609","0.0-3.0-2.229-0.229","<span style=""font-size:30px; font-family: monospace"">As crianças viram o palhaço no circo?</span>","s","","comp","","As crianças viram o palhaço no circo?","não","false"
"","null","html-keyboard-response","286","590123","0.0-3.0-0.230-0.230","<span style= ""font-size:30px; font-family: monospace"">+</span>","null","fixation","","","","",""
"","1863","html-keyboard-response","287","592242","0.0-3.0-1.230","<span style=""font-size:30px; font-family: monospace"">Minha</span>"," ","","exp-sent","Minha","","",""
"","735","html-keyboard-response","288","593234","0.0-3.0-1.231","<span style=""font-size:30px; font-family: monospace"">prima</span>"," ","","exp-sent","prima","","",""
"","527","html-keyboard-response","289","594025","0.0-3.0-1.232","<span style=""font-size:30px; font-family: monospace"">trocou</span>"," ","","exp-sent","trocou","","",""
"","354","html-keyboard-response","290","594634","0.0-3.0-1.233","<span style=""font-size:30px; font-family: monospace"">a</span>"," ","","exp-sent","a","","",""
"","413","html-keyboard-response","291","595306","0.0-3.0-1.234","<span style=""font-size:30px; font-family: monospace"">tela</span>"," ","","exp-sent","tela","","",""
"","348","html-keyboard-response","292","595908","0.0-3.0-1.235","<span style=""font-size:30px; font-family: monospace"">do</span>"," ","","exp-sent","do","","",""
"","356","html-keyboard-response","293","596525","0.0-3.0-1.236","<span style=""font-size:30px; font-family: monospace"">celular</span>"," ","","exp-sent","celular","","",""
"","418","html-keyboard-response","294","597207","0.0-3.0-1.237","<span style=""font-size:30px; font-family: monospace"">duas</span>"," ","","exp-sent","duas","","",""
"","398","html-keyboard-response","295","597859","0.0-3.0-1.238","<span style=""font-size:30px; font-family: monospace"">vezes.</span>"," ","","exp-sent","vezes.","","",""
"","null","html-keyboard-response","296","599123","0.0-3.0-0.239-0.239","<span style= ""font-size:30px; font-family: monospace"">+</span>","null","fixation","","","","",""
"","503","html-keyboard-response","297","599880","0.0-3.0-1.239","<span style=""font-size:30px; font-family: monospace"">Agora</span>"," ","","exp-sent","Agora","","",""
"","421","html-keyboard-response","298","600559","0.0-3.0-1.240","<span style=""font-size:30px; font-family: monospace"">a</span>"," ","","exp-sent","a","","",""
"","539","html-keyboard-response","299","601359","0.0-3.0-1.241","<span style=""font-size:30px; font-family: monospace"">minha</span>"," ","","exp-sent","minha","","",""
"","426","html-keyboard-response","300","602039","0.0-3.0-1.242","<span style=""font-size:30px; font-family: monospace"">única</span>"," ","","exp-sent","única","","",""
"","753","html-keyboard-response","301","603049","0.0-3.0-1.243","<span style=""font-size:30px; font-family: monospace"">preocupação</span>"," ","","exp-sent","preocupação","","",""
"","404","html-keyboard-response","302","603715","0.0-3.0-1.244","<span style=""font-size:30px; font-family: monospace"">é</span>"," ","","exp-sent","é","","",""
"","463","html-keyboard-response","303","604441","0.0-3.0-1.245","<span style=""font-size:30px; font-family: monospace"">um</span>"," ","","exp-sent","um","","",""
"","472","html-keyboard-response","304","605165","0.0-3.0-1.246","<span style=""font-size:30px; font-family: monospace"">descanso</span>"," ","","exp-sent","descanso","","",""
"","392","html-keyboard-response","305","605812","0.0-3.0-1.247","<span style=""font-size:30px; font-family: monospace"">tranquilo.</span>"," ","","exp-sent","tranquilo.","","",""
"","null","html-keyboard-response","306","607076","0.0-3.0-0.248-0.248","<span style= ""font-size:30px; font-family: monospace"">+</span>","null","fixation","","","","",""
"","412","html-keyboard-response","307","607745","0.0-3.0-1.248","<span style=""font-size:30px; font-family: monospace"">A</span>"," ","","exp-sent","A","","",""
"","468","html-keyboard-response","308","608475","0.0-3.0-1.249","<span style=""font-size:30px; font-family: monospace"">criança</span>"," ","","exp-sent","criança","","",""
"","349","html-keyboard-response","309","609090","0.0-3.0-1.250","<span style=""font-size:30px; font-family: monospace"">ganhou</span>"," ","","exp-sent","ganhou","","",""
"","417","html-keyboard-response","310","609768","0.0-3.0-1.251","<span style=""font-size:30px; font-family: monospace"">um</span>"," ","","exp-sent","um","","",""
"","449","html-keyboard-response","311","610474","0.0-3.0-1.252","<span style=""font-size:30px; font-family: monospace"">presente</span>"," ","","exp-sent","presente","","",""
"","517","html-keyboard-response","312","611241","0.0-3.0-1.253","<span style=""font-size:30px; font-family: monospace"">maravilhoso.</span>"," ","","exp-sent","maravilhoso.","","",""
"","null","html-keyboard-response","313","612512","0.0-3.0-0.254-0.254","<span style= ""font-size:30px; font-family: monospace"">+</span>","null","fixation","","","","",""
"","664","html-keyboard-response","314","613430","0.0-3.0-1.254","<span style=""font-size:30px; font-family: monospace"">Os</span>"," ","","exp-sent","Os","","",""
"","1252","html-keyboard-response","315","614947","0.0-3.0-1.255","<span style=""font-size:30px; font-family: monospace"">bichos</span>"," ","","exp-sent","bichos","","",""
"","411","html-keyboard-response","316","615624","0.0-3.0-1.256","<span style=""font-size:30px; font-family: monospace"">têm</span>"," ","","exp-sent","têm","","",""
"","532","html-keyboard-response","317","616417","0.0-3.0-1.257","<span style=""font-size:30px; font-family: monospace"">um</span>"," ","","exp-sent","um","","",""
"","607","html-keyboard-response","318","617289","0.0-3.0-1.258","<span style=""font-size:30px; font-family: monospace"">instinto</span>"," ","","exp-sent","instinto","","",""
"","359","html-keyboard-response","319","617904","0.0-3.0-1.259","<span style=""font-size:30px; font-family: monospace"">de</span>"," ","","exp-sent","de","","",""
"","318","html-keyboard-response","320","618490","0.0-3.0-1.260","<span style=""font-size:30px; font-family: monospace"">sobrevivência</span>"," ","","exp-sent","sobrevivência","","",""
"","309","html-keyboard-response","321","619056","0.0-3.0-1.261","<span style=""font-size:30px; font-family: monospace"">forte.</span>"," ","","exp-sent","forte.","","",""
"","null","html-keyboard-response","322","620320","0.0-3.0-0.262-0.262","<span style= ""font-size:30px; font-family: monospace"">+</span>","null","fixation","","","","",""
"","212","html-keyboard-response","323","620787","0.0-3.0-1.262","<span style=""font-size:30px; font-family: monospace"">Aquele</span>"," ","","exp-sent","Aquele","","",""
"","427","html-keyboard-response","324","621466","0.0-3.0-1.263","<span style=""font-size:30px; font-family: monospace"">menino</span>"," ","","exp-sent","menino","","",""
"","387","html-keyboard-response","325","622114","0.0-3.0-1.264","<span style=""font-size:30px; font-family: monospace"">alto</span>"," ","","exp-sent","alto","","",""
"","378","html-keyboard-response","326","622757","0.0-3.0-1.265","<span style=""font-size:30px; font-family: monospace"">é</span>"," ","","exp-sent","é","","",""
"","384","html-keyboard-response","327","623401","0.0-3.0-1.266","<span style=""font-size:30px; font-family: monospace"">exibido</span>"," ","","exp-sent","exibido","","",""
"","380","html-keyboard-response","328","624038","0.0-3.0-1.267","<span style=""font-size:30px; font-family: monospace"">e</span>"," ","","exp-sent","e","","",""
"","905","html-keyboard-response","329","625205","0.0-3.0-1.268","<span style=""font-size:30px; font-family: monospace"">sovina.</span>"," ","","comp","sovina.","","",""
"","4519","html-keyboard-response","330","629975","0.0-3.0-2.268-0.268","<span style=""font-size:30px; font-family: monospace"">Aquele menino é humilde?</span>","n","","comp","","Aquele menino é humilde?","não","false"
"","null","html-keyboard-response","331","631491","0.0-3.0-0.269-0.269","<span style= ""font-size:30px; font-family: monospace"">+</span>","null","fixation","","","","",""
"","376","html-keyboard-response","332","632122","0.0-3.0-1.269","<span style=""font-size:30px; font-family: monospace"">As</span>"," ","","exp-sent","As","","",""
"","564","html-keyboard-response","333","632953","0.0-3.0-1.270","<span style=""font-size:30px; font-family: monospace"">crianças</span>"," ","","exp-sent","crianças","","",""
"","463","html-keyboard-response","334","633680","0.0-3.0-1.271","<span style=""font-size:30px; font-family: monospace"">viram</span>"," ","","exp-sent","viram","","",""
"","458","html-keyboard-response","335","634394","0.0-3.0-1.272","<span style=""font-size:30px; font-family: monospace"">um</span>"," ","","exp-sent","um","","",""
"","1075","html-keyboard-response","336","635735","0.0-3.0-1.273","<span style=""font-size:30px; font-family: monospace"">vaga-lume</span>"," ","","exp-sent","vaga-lume","","",""
"","392","html-keyboard-response","337","636387","0.0-3.0-1.274","<span style=""font-size:30px; font-family: monospace"">nos</span>"," ","","exp-sent","nos","","",""
"","740","html-keyboard-response","338","637379","0.0-3.0-1.275","<span style=""font-size:30px; font-family: monospace"">arbustos.</span>"," ","","exp-sent","arbustos.","","",""
"","null","html-keyboard-response","339","638637","0.0-3.0-0.276-0.276","<span style= ""font-size:30px; font-family: monospace"">+</span>","null","fixation","","","","",""
"","770","html-keyboard-response","340","639663","0.0-3.0-1.276","<span style=""font-size:30px; font-family: monospace"">Ontem</span>"," ","","exp-sent","Ontem","","",""
"","468","html-keyboard-response","341","640399","0.0-3.0-1.277","<span style=""font-size:30px; font-family: monospace"">o</span>"," ","","exp-sent","o","","",""
"","1087","html-keyboard-response","342","641739","0.0-3.0-1.278","<span style=""font-size:30px; font-family: monospace"">funcionário</span>"," ","","exp-sent","funcionário","","",""
"","520","html-keyboard-response","343","642521","0.0-3.0-1.279","<span style=""font-size:30px; font-family: monospace"">pediu</span>"," ","","exp-sent","pediu","","",""
"","736","html-keyboard-response","344","643520","0.0-3.0-1.280","<span style=""font-size:30px; font-family: monospace"">autorização</span>"," ","","exp-sent","autorização","","",""
"","417","html-keyboard-response","345","644192","0.0-3.0-1.281","<span style=""font-size:30px; font-family: monospace"">para</span>"," ","","exp-sent","para","","",""
"","402","html-keyboard-response","346","644847","0.0-3.0-1.282","<span style=""font-size:30px; font-family: monospace"">a</span>"," ","","exp-sent","a","","",""
"","776","html-keyboard-response","347","645874","0.0-3.0-1.283","<span style=""font-size:30px; font-family: monospace"">colega.</span>"," ","","exp-sent","colega.","","",""
"","null","html-keyboard-response","348","647134","0.0-3.0-0.284-0.284","<span style= ""font-size:30px; font-family: monospace"">+</span>","null","fixation","","","","",""
"","416","html-keyboard-response","349","647807","0.0-3.0-1.284","<span style=""font-size:30px; font-family: monospace"">Eu</span>"," ","","exp-sent","Eu","","",""
"","478","html-keyboard-response","350","648543","0.0-3.0-1.285","<span style=""font-size:30px; font-family: monospace"">sempre</span>"," ","","exp-sent","sempre","","",""
"","433","html-keyboard-response","351","649230","0.0-3.0-1.286","<span style=""font-size:30px; font-family: monospace"">fujo</span>"," ","","exp-sent","fujo","","",""
"","840","html-keyboard-response","352","650322","0.0-3.0-1.287","<span style=""font-size:30px; font-family: monospace"">de</span>"," ","","exp-sent","de","","",""
"","318","html-keyboard-response","353","650897","0.0-3.0-1.288","<span style=""font-size:30px; font-family: monospace"">conflito</span>"," ","","exp-sent","conflito","","",""
"","432","html-keyboard-response","354","651584","0.0-3.0-1.289","<span style=""font-size:30px; font-family: monospace"">com</span>"," ","","exp-sent","com","","",""
"","450","html-keyboard-response","355","652301","0.0-3.0-1.290","<span style=""font-size:30px; font-family: monospace"">as</span>"," ","","exp-sent","as","","",""
"","877","html-keyboard-response","356","653443","0.0-3.0-1.291","<span style=""font-size:30px; font-family: monospace"">pessoas.</span>"," ","","exp-sent","pessoas.","","",""
"","null","html-keyboard-response","357","654702","0.0-3.0-0.292-0.292","<span style= ""font-size:30px; font-family: monospace"">+</span>","null","fixation","","","","",""
"","697","html-keyboard-response","358","655654","0.0-3.0-1.292","<span style=""font-size:30px; font-family: monospace"">O</span>"," ","","exp-sent","O","","",""
"","457","html-keyboard-response","359","656374","0.0-3.0-1.293","<span style=""font-size:30px; font-family: monospace"">bolo</span>"," ","","exp-sent","bolo","","",""
"","591","html-keyboard-response","360","657225","0.0-3.0-1.294","<span style=""font-size:30px; font-family: monospace"">era</span>"," ","","exp-sent","era","","",""
"","725","html-keyboard-response","361","658203","0.0-3.0-1.295","<span style=""font-size:30px; font-family: monospace"">de</span>"," ","","exp-sent","de","","",""
"","414","html-keyboard-response","362","658872","0.0-3.0-1.296","<span style=""font-size:30px; font-family: monospace"">abacaxi</span>"," ","","exp-sent","abacaxi","","",""
"","436","html-keyboard-response","363","659567","0.0-3.0-1.297","<span style=""font-size:30px; font-family: monospace"">e</span>"," ","","exp-sent","e","","",""
"","718","html-keyboard-response","364","660538","0.0-3.0-1.298","<span style=""font-size:30px; font-family: monospace"">creme</span>"," ","","exp-sent","creme","","",""
"","661","html-keyboard-response","365","661456","0.0-3.0-1.299","<span style=""font-size:30px; font-family: monospace"">de</span>"," ","","exp-sent","de","","",""
"","1092","html-keyboard-response","366","662804","0.0-3.0-1.300","<span style=""font-size:30px; font-family: monospace"">coco.</span>"," ","","exp-sent","coco.","","",""
"","null","html-keyboard-response","367","664067","0.0-3.0-0.301-0.301","<span style= ""font-size:30px; font-family: monospace"">+</span>","null","fixation","","","","",""
"","314","html-keyboard-response","368","664639","0.0-3.0-1.301","<span style=""font-size:30px; font-family: monospace"">As</span>"," ","","exp-sent","As","","",""
"","412","html-keyboard-response","369","665309","0.0-3.0-1.302","<span style=""font-size:30px; font-family: monospace"">crianças</span>"," ","","exp-sent","crianças","","",""
"","366","html-keyboard-response","370","665937","0.0-3.0-1.303","<span style=""font-size:30px; font-family: monospace"">brincaram</span>"," ","","exp-sent","brincaram","","",""
"","383","html-keyboard-response","371","666578","0.0-3.0-1.304","<span style=""font-size:30px; font-family: monospace"">com</span>"," ","","exp-sent","com","","",""
"","378","html-keyboard-response","372","667216","0.0-3.0-1.305","<span style=""font-size:30px; font-family: monospace"">bolhas</span>"," ","","exp-sent","bolhas","","",""
"","338","html-keyboard-response","373","667814","0.0-3.0-1.306","<span style=""font-size:30px; font-family: monospace"">no</span>"," ","","exp-sent","no","","",""
"","368","html-keyboard-response","374","668437","0.0-3.0-1.307","<span style=""font-size:30px; font-family: monospace"">banho.</span>"," ","","comp","banho.","","",""
"","5762","html-keyboard-response","375","674457","0.0-3.0-2.307-0.307","<span style=""font-size:30px; font-family: monospace"">As crianças brincaram com bolhas?</span>","s","","comp","","As crianças brincaram com bolhas?","sim","false"
"","null","html-keyboard-response","376","675980","0.0-3.0-0.308-0.308","<span style= ""font-size:30px; font-family: monospace"">+</span>","null","fixation","","","","",""
"","117","html-keyboard-response","377","676351","0.0-3.0-1.308","<span style=""font-size:30px; font-family: monospace"">Eu</span>"," ","","exp-sent","Eu","","",""
"","428","html-keyboard-response","378","677033","0.0-3.0-1.309","<span style=""font-size:30px; font-family: monospace"">gosto</span>"," ","","exp-sent","gosto","","",""
"","290","html-keyboard-response","379","677591","0.0-3.0-1.310","<span style=""font-size:30px; font-family: monospace"">de</span>"," ","","exp-sent","de","","",""
"","329","html-keyboard-response","380","678172","0.0-3.0-1.311","<span style=""font-size:30px; font-family: monospace"">molho</span>"," ","","exp-sent","molho","","",""
"","395","html-keyboard-response","381","678827","0.0-3.0-1.312","<span style=""font-size:30px; font-family: monospace"">picante</span>"," ","","exp-sent","picante","","",""
"","370","html-keyboard-response","382","679456","0.0-3.0-1.313","<span style=""font-size:30px; font-family: monospace"">nas</span>"," ","","exp-sent","nas","","",""
"","356","html-keyboard-response","383","680078","0.0-3.0-1.314","<span style=""font-size:30px; font-family: monospace"">batatas.</span>"," ","","exp-sent","batatas.","","",""
"","null","html-keyboard-response","384","681338","0.0-3.0-0.315-0.315","<span style= ""font-size:30px; font-family: monospace"">+</span>","null","fixation","","","","",""
"","244","html-keyboard-response","385","681838","0.0-3.0-1.315","<span style=""font-size:30px; font-family: monospace"">As</span>"," ","","exp-sent","As","","",""
"","363","html-keyboard-response","386","682452","0.0-3.0-1.316","<span style=""font-size:30px; font-family: monospace"">pessoas</span>"," ","","exp-sent","pessoas","","",""
"","332","html-keyboard-response","387","683037","0.0-3.0-1.317","<span style=""font-size:30px; font-family: monospace"">têm</span>"," ","","exp-sent","têm","","",""
"","343","html-keyboard-response","388","683633","0.0-3.0-1.318","<span style=""font-size:30px; font-family: monospace"">sua</span>"," ","","exp-sent","sua","","",""
"","372","html-keyboard-response","389","684271","0.0-3.0-1.319","<span style=""font-size:30px; font-family: monospace"">liberdade</span>"," ","","exp-sent","liberdade","","",""
"","406","html-keyboard-response","390","684941","0.0-3.0-1.320","<span style=""font-size:30px; font-family: monospace"">até</span>"," ","","exp-sent","até","","",""
"","346","html-keyboard-response","391","685553","0.0-3.0-1.321","<span style=""font-size:30px; font-family: monospace"">certo</span>"," ","","exp-sent","certo","","",""
"","374","html-keyboard-response","392","686185","0.0-3.0-1.322","<span style=""font-size:30px; font-family: monospace"">ponto.</span>"," ","","exp-sent","ponto.","","",""
"","null","html-keyboard-response","393","687450","0.0-3.0-0.323-0.323","<span style= ""font-size:30px; font-family: monospace"">+</span>","null","fixation","","","","",""
"","363","html-keyboard-response","394","688070","0.0-3.0-1.323","<span style=""font-size:30px; font-family: monospace"">A</span>"," ","","exp-sent","A","","",""
"","390","html-keyboard-response","395","688719","0.0-3.0-1.324","<span style=""font-size:30px; font-family: monospace"">empresa</span>"," ","","exp-sent","empresa","","",""
"","297","html-keyboard-response","396","689281","0.0-3.0-1.325","<span style=""font-size:30px; font-family: monospace"">enviou</span>"," ","","exp-sent","enviou","","",""
"","402","html-keyboard-response","397","689944","0.0-3.0-1.326","<span style=""font-size:30px; font-family: monospace"">o</span>"," ","","exp-sent","o","","",""
"","332","html-keyboard-response","398","690531","0.0-3.0-1.327","<span style=""font-size:30px; font-family: monospace"">aviso</span>"," ","","exp-sent","aviso","","",""
"","333","html-keyboard-response","399","691122","0.0-3.0-1.328","<span style=""font-size:30px; font-family: monospace"">hoje</span>"," ","","exp-sent","hoje","","",""
"","330","html-keyboard-response","400","691712","0.0-3.0-1.329","<span style=""font-size:30px; font-family: monospace"">de</span>"," ","","exp-sent","de","","",""
"","320","html-keyboard-response","401","692292","0.0-3.0-1.330","<span style=""font-size:30px; font-family: monospace"">tarde.</span>"," ","","exp-sent","tarde.","","",""
"","null","html-keyboard-response","402","693554","0.0-3.0-0.331-0.331","<span style= ""font-size:30px; font-family: monospace"">+</span>","null","fixation","","","","",""
"","324","html-keyboard-response","403","694137","0.0-3.0-1.331","<span style=""font-size:30px; font-family: monospace"">A</span>"," ","","exp-sent","A","","",""
"","362","html-keyboard-response","404","694752","0.0-3.0-1.332","<span style=""font-size:30px; font-family: monospace"">loja</span>"," ","","exp-sent","loja","","",""
"","349","html-keyboard-response","405","695361","0.0-3.0-1.333","<span style=""font-size:30px; font-family: monospace"">vende</span>"," ","","exp-sent","vende","","",""
"","359","html-keyboard-response","406","695977","0.0-3.0-1.334","<span style=""font-size:30px; font-family: monospace"">tanto</span>"," ","","exp-sent","tanto","","",""
"","378","html-keyboard-response","407","696620","0.0-3.0-1.335","<span style=""font-size:30px; font-family: monospace"">frituras</span>"," ","","exp-sent","frituras","","",""
"","368","html-keyboard-response","408","697246","0.0-3.0-1.336","<span style=""font-size:30px; font-family: monospace"">quanto</span>"," ","","exp-sent","quanto","","",""
"","362","html-keyboard-response","409","697863","0.0-3.0-1.337","<span style=""font-size:30px; font-family: monospace"">comidas</span>"," ","","exp-sent","comidas","","",""
"","303","html-keyboard-response","410","698429","0.0-3.0-1.338","<span style=""font-size:30px; font-family: monospace"">leves.</span>"," ","","exp-sent","leves.","","",""
"","null","html-keyboard-response","411","699692","0.0-3.0-0.339-0.339","<span style= ""font-size:30px; font-family: monospace"">+</span>","null","fixation","","","","",""
"","360","html-keyboard-response","412","700308","0.0-3.0-1.339","<span style=""font-size:30px; font-family: monospace"">As</span>"," ","","exp-sent","As","","",""
"","242","html-keyboard-response","413","700814","0.0-3.0-1.340","<span style=""font-size:30px; font-family: monospace"">cadeiras</span>"," ","","exp-sent","cadeiras","","",""
"","308","html-keyboard-response","414","701376","0.0-3.0-1.341","<span style=""font-size:30px; font-family: monospace"">azuis</span>"," ","","exp-sent","azuis","","",""
"","405","html-keyboard-response","415","702033","0.0-3.0-1.342","<span style=""font-size:30px; font-family: monospace"">da</span>"," ","","exp-sent","da","","",""
"","278","html-keyboard-response","416","702577","0.0-3.0-1.343","<span style=""font-size:30px; font-family: monospace"">sala</span>"," ","","exp-sent","sala","","",""
"","377","html-keyboard-response","417","703219","0.0-3.0-1.344","<span style=""font-size:30px; font-family: monospace"">eram</span>"," ","","exp-sent","eram","","",""
"","251","html-keyboard-response","418","703731","0.0-3.0-1.345","<span style=""font-size:30px; font-family: monospace"">da</span>"," ","","exp-sent","da","","",""
"","400","html-keyboard-response","419","704396","0.0-3.0-1.346","<span style=""font-size:30px; font-family: monospace"">minha</span>"," ","","exp-sent","minha","","",""
"","1012","html-keyboard-response","420","705670","0.0-3.0-1.347","<span style=""font-size:30px; font-family: monospace"">vó.</span>"," ","","comp","vó.","","",""
"","5190","html-keyboard-response","421","711117","0.0-3.0-2.347-0.347","<span style=""font-size:30px; font-family: monospace"">As cadeiras eram da avó?</span>","s","","comp","","As cadeiras eram da avó?","sim","false"
"","null","html-keyboard-response","422","712627","0.0-3.0-0.348-0.348","<span style= ""font-size:30px; font-family: monospace"">+</span>","null","fixation","","","","",""
"","5635","html-keyboard-response","423","718518","0.0-3.0-1.348","<span style=""font-size:30px; font-family: monospace"">O</span>"," ","","exp-sent","O","","",""
"","499","html-keyboard-response","424","719270","0.0-3.0-1.349","<span style=""font-size:30px; font-family: monospace"">texto</span>"," ","","exp-sent","texto","","",""
"","506","html-keyboard-response","425","720029","0.0-3.0-1.350","<span style=""font-size:30px; font-family: monospace"">trazia</span>"," ","","exp-sent","trazia","","",""
"","455","html-keyboard-response","426","720742","0.0-3.0-1.351","<span style=""font-size:30px; font-family: monospace"">um</span>"," ","","exp-sent","um","","",""
"","463","html-keyboard-response","427","721469","0.0-3.0-1.352","<span style=""font-size:30px; font-family: monospace"">argumento</span>"," ","","exp-sent","argumento","","",""
"","366","html-keyboard-response","428","722091","0.0-3.0-1.353","<span style=""font-size:30px; font-family: monospace"">central</span>"," ","","exp-sent","central","","",""
"","391","html-keyboard-response","429","722735","0.0-3.0-1.354","<span style=""font-size:30px; font-family: monospace"">para</span>"," ","","exp-sent","para","","",""
"","422","html-keyboard-response","430","723422","0.0-3.0-1.355","<span style=""font-size:30px; font-family: monospace"">a</span>"," ","","exp-sent","a","","",""
"","616","html-keyboard-response","431","724302","0.0-3.0-1.356","<span style=""font-size:30px; font-family: monospace"">conversa.</span>"," ","","exp-sent","conversa.","","",""
"","null","html-keyboard-response","432","725579","0.0-3.0-0.357-0.357","<span style= ""font-size:30px; font-family: monospace"">+</span>","null","fixation","","","","",""
"","492","html-keyboard-response","433","726328","0.0-3.0-1.357","<span style=""font-size:30px; font-family: monospace"">Ontem</span>"," ","","exp-sent","Ontem","","",""
"","328","html-keyboard-response","434","726916","0.0-3.0-1.358","<span style=""font-size:30px; font-family: monospace"">a</span>"," ","","exp-sent","a","","",""
"","514","html-keyboard-response","435","727692","0.0-3.0-1.359","<span style=""font-size:30px; font-family: monospace"">temperatura</span>"," ","","exp-sent","temperatura","","",""
"","425","html-keyboard-response","436","728370","0.0-3.0-1.360","<span style=""font-size:30px; font-family: monospace"">estava</span>"," ","","exp-sent","estava","","",""
"","474","html-keyboard-response","437","729097","0.0-3.0-1.361","<span style=""font-size:30px; font-family: monospace"">amena</span>"," ","","exp-sent","amena","","",""
"","653","html-keyboard-response","438","730002","0.0-3.0-1.362","<span style=""font-size:30px; font-family: monospace"">durante</span>"," ","","exp-sent","durante","","",""
"","370","html-keyboard-response","439","730637","0.0-3.0-1.363","<span style=""font-size:30px; font-family: monospace"">o</span>"," ","","exp-sent","o","","",""
"","640","html-keyboard-response","440","731528","0.0-3.0-1.364","<span style=""font-size:30px; font-family: monospace"">dia.</span>"," ","","exp-sent","dia.","","",""
"","null","html-keyboard-response","441","732793","0.0-3.0-0.365-0.365","<span style= ""font-size:30px; font-family: monospace"">+</span>","null","fixation","","","","",""
"","681","html-keyboard-response","442","733732","0.0-3.0-1.365","<span style=""font-size:30px; font-family: monospace"">Havia</span>"," ","","exp-sent","Havia","","",""
"","497","html-keyboard-response","443","734493","0.0-3.0-1.366","<span style=""font-size:30px; font-family: monospace"">um</span>"," ","","exp-sent","um","","",""
"","1012","html-keyboard-response","444","735770","0.0-3.0-1.367","<span style=""font-size:30px; font-family: monospace"">machucado</span>"," ","","exp-sent","machucado","","",""
"","507","html-keyboard-response","445","736528","0.0-3.0-1.368","<span style=""font-size:30px; font-family: monospace"">no</span>"," ","","exp-sent","no","","",""
"","457","html-keyboard-response","446","737237","0.0-3.0-1.369","<span style=""font-size:30px; font-family: monospace"">dedo</span>"," ","","exp-sent","dedo","","",""
"","768","html-keyboard-response","447","738259","0.0-3.0-1.370","<span style=""font-size:30px; font-family: monospace"">da</span>"," ","","exp-sent","da","","",""
"","629","html-keyboard-response","448","739155","0.0-3.0-1.371","<span style=""font-size:30px; font-family: monospace"">criança.</span>"," ","","exp-sent","criança.","","",""
"","null","html-keyboard-response","449","740428","0.0-3.0-0.372-0.372","<span style= ""font-size:30px; font-family: monospace"">+</span>","null","fixation","","","","",""
"","2014","html-keyboard-response","450","742698","0.0-3.0-1.372","<span style=""font-size:30px; font-family: monospace"">A</span>"," ","","exp-sent","A","","",""
"","2054","html-keyboard-response","451","745004","0.0-3.0-1.373","<span style=""font-size:30px; font-family: monospace"">borboleta</span>"," ","","exp-sent","borboleta","","",""
"","1969","html-keyboard-response","452","747233","0.0-3.0-1.374","<span style=""font-size:30px; font-family: monospace"">pousou</span>"," ","","exp-sent","pousou","","",""
"","814","html-keyboard-response","453","748315","0.0-3.0-1.375","<span style=""font-size:30px; font-family: monospace"">no</span>"," ","","exp-sent","no","","",""
"","2523","html-keyboard-response","454","751102","0.0-3.0-1.376","<span style=""font-size:30px; font-family: monospace"">ombro</span>"," ","","exp-sent","ombro","","",""
"","1615","html-keyboard-response","455","752975","0.0-3.0-1.377","<span style=""font-size:30px; font-family: monospace"">daquela</span>"," ","","exp-sent","daquela","","",""
"","381","html-keyboard-response","456","753621","0.0-3.0-1.378","<span style=""font-size:30px; font-family: monospace"">moça.</span>"," ","","exp-sent","moça.","","",""
"","null","html-keyboard-response","457","754876","0.0-3.0-0.379-0.379","<span style= ""font-size:30px; font-family: monospace"">+</span>","null","fixation","","","","",""
"","340","html-keyboard-response","458","755469","0.0-3.0-1.379","<span style=""font-size:30px; font-family: monospace"">Eu</span>"," ","","exp-sent","Eu","","",""
"","6177","html-keyboard-response","459","761911","0.0-3.0-1.380","<span style=""font-size:30px; font-family: monospace"">quero</span>"," ","","exp-sent","quero","","",""
"","407","html-keyboard-response","460","762581","0.0-3.0-1.381","<span style=""font-size:30px; font-family: monospace"">um</span>"," ","","exp-sent","um","","",""
"","707","html-keyboard-response","461","763549","0.0-3.0-1.382","<span style=""font-size:30px; font-family: monospace"">namorado</span>"," ","","exp-sent","namorado","","",""
"","600","html-keyboard-response","462","764409","0.0-3.0-1.383","<span style=""font-size:30px; font-family: monospace"">honesto</span>"," ","","exp-sent","honesto","","",""
"","461","html-keyboard-response","463","765131","0.0-3.0-1.384","<span style=""font-size:30px; font-family: monospace"">e</span>"," ","","exp-sent","e","","",""
"","691","html-keyboard-response","464","766080","0.0-3.0-1.385","<span style=""font-size:30px; font-family: monospace"">compreensivo.</span>"," ","","comp","compreensivo.","","",""
"","8945","html-keyboard-response","465","775279","0.0-3.0-2.385-0.385","<span style=""font-size:30px; font-family: monospace"">Eu quero um namorado honesto?</span>","s","","comp","","Eu quero um namorado honesto?","sim","false"
"","null","html-keyboard-response","466","776794","0.0-3.0-0.386-0.386","<span style= ""font-size:30px; font-family: monospace"">+</span>","null","fixation","","","","",""
"","227","html-keyboard-response","467","777278","0.0-3.0-1.386","<span style=""font-size:30px; font-family: monospace"">Ganhamos</span>"," ","","exp-sent","Ganhamos","","",""
"","309","html-keyboard-response","468","777841","0.0-3.0-1.387","<span style=""font-size:30px; font-family: monospace"">passagem</span>"," ","","exp-sent","passagem","","",""
"","304","html-keyboard-response","469","778398","0.0-3.0-1.388","<span style=""font-size:30px; font-family: monospace"">para</span>"," ","","exp-sent","para","","",""
"","202","html-keyboard-response","470","778861","0.0-3.0-1.389","<span style=""font-size:30px; font-family: monospace"">uma</span>"," ","","exp-sent","uma","","",""
"","443","html-keyboard-response","471","779570","0.0-3.0-1.390","<span style=""font-size:30px; font-family: monospace"">viagem</span>"," ","","exp-sent","viagem","","",""
"","58","html-keyboard-response","472","779888","0.0-3.0-1.391","<span style=""font-size:30px; font-family: monospace"">de</span>"," ","","exp-sent","de","","",""
"","672","html-keyboard-response","473","780827","0.0-3.0-1.392","<span style=""font-size:30px; font-family: monospace"">férias.</span>"," ","","exp-sent","férias.","","",""
"","null","html-keyboard-response","474","782091","0.0-3.0-0.393-0.393","<span style= ""font-size:30px; font-family: monospace"">+</span>","null","fixation","","","","",""
"","470","html-keyboard-response","475","782813","0.0-3.0-1.393","<span style=""font-size:30px; font-family: monospace"">Caiu</span>"," ","","exp-sent","Caiu","","",""
"","551","html-keyboard-response","476","783615","0.0-3.0-1.394","<span style=""font-size:30px; font-family: monospace"">algo</span>"," ","","exp-sent","algo","","",""
"","374","html-keyboard-response","477","784247","0.0-3.0-1.395","<span style=""font-size:30px; font-family: monospace"">no</span>"," ","","exp-sent","no","","",""
"","391","html-keyboard-response","478","784898","0.0-3.0-1.396","<span style=""font-size:30px; font-family: monospace"">meu</span>"," ","","exp-sent","meu","","",""
"","383","html-keyboard-response","479","785540","0.0-3.0-1.397","<span style=""font-size:30px; font-family: monospace"">olho</span>"," ","","exp-sent","olho","","",""
"","360","html-keyboard-response","480","786168","0.0-3.0-1.398","<span style=""font-size:30px; font-family: monospace"">ontem</span>"," ","","exp-sent","ontem","","",""
"","394","html-keyboard-response","481","786824","0.0-3.0-1.399","<span style=""font-size:30px; font-family: monospace"">de</span>"," ","","exp-sent","de","","",""
"","340","html-keyboard-response","482","787428","0.0-3.0-1.400","<span style=""font-size:30px; font-family: monospace"">tarde.</span>"," ","","exp-sent","tarde.","","",""
"","null","html-keyboard-response","483","788703","0.0-3.0-0.401-0.401","<span style= ""font-size:30px; font-family: monospace"">+</span>","null","fixation","","","","",""
"","394","html-keyboard-response","484","789350","0.0-3.0-1.401","<span style=""font-size:30px; font-family: monospace"">Não</span>"," ","","exp-sent","Não","","",""
"","548","html-keyboard-response","485","790157","0.0-3.0-1.402","<span style=""font-size:30px; font-family: monospace"">havia</span>"," ","","exp-sent","havia","","",""
"","400","html-keyboard-response","486","790811","0.0-3.0-1.403","<span style=""font-size:30px; font-family: monospace"">mais</span>"," ","","exp-sent","mais","","",""
"","422","html-keyboard-response","487","791497","0.0-3.0-1.404","<span style=""font-size:30px; font-family: monospace"">nenhum</span>"," ","","exp-sent","nenhum","","",""
"","411","html-keyboard-response","488","792171","0.0-3.0-1.405","<span style=""font-size:30px; font-family: monospace"">ingresso</span>"," ","","exp-sent","ingresso","","",""
"","377","html-keyboard-response","489","792809","0.0-3.0-1.406","<span style=""font-size:30px; font-family: monospace"">para</span>"," ","","exp-sent","para","","",""
"","809","html-keyboard-response","490","793883","0.0-3.0-1.407","<span style=""font-size:30px; font-family: monospace"">o</span>"," ","","exp-sent","o","","",""
"","374","html-keyboard-response","491","794520","0.0-3.0-1.408","<span style=""font-size:30px; font-family: monospace"">evento.</span>"," ","","exp-sent","evento.","","",""
"","null","html-keyboard-response","492","795794","0.0-3.0-0.409-0.409","<span style= ""font-size:30px; font-family: monospace"">+</span>","null","fixation","","","","",""
"","332","html-keyboard-response","493","796382","0.0-3.0-1.409","<span style=""font-size:30px; font-family: monospace"">A</span>"," ","","exp-sent","A","","",""
"","469","html-keyboard-response","494","797109","0.0-3.0-1.410","<span style=""font-size:30px; font-family: monospace"">médica</span>"," ","","exp-sent","médica","","",""
"","380","html-keyboard-response","495","797747","0.0-3.0-1.411","<span style=""font-size:30px; font-family: monospace"">descobriu</span>"," ","","exp-sent","descobriu","","",""
"","351","html-keyboard-response","496","798353","0.0-3.0-1.412","<span style=""font-size:30px; font-family: monospace"">uma</span>"," ","","exp-sent","uma","","",""
"","485","html-keyboard-response","497","799097","0.0-3.0-1.413","<span style=""font-size:30px; font-family: monospace"">cura</span>"," ","","exp-sent","cura","","",""
"","761","html-keyboard-response","498","800110","0.0-3.0-1.414","<span style=""font-size:30px; font-family: monospace"">para</span>"," ","","exp-sent","para","","",""
"","357","html-keyboard-response","499","800722","0.0-3.0-1.415","<span style=""font-size:30px; font-family: monospace"">a</span>"," ","","exp-sent","a","","",""
"","1958","html-keyboard-response","500","802939","0.0-3.0-1.416","<span style=""font-size:30px; font-family: monospace"">doença.</span>"," ","","exp-sent","doença.","","",""
"","null","html-keyboard-response","501","804208","0.0-3.0-0.417-0.417","<span style= ""font-size:30px; font-family: monospace"">+</span>","null","fixation","","","","",""
"","395","html-keyboard-response","502","804858","0.0-3.0-1.417","<span style=""font-size:30px; font-family: monospace"">O</span>"," ","","exp-sent","O","","",""
"","399","html-keyboard-response","503","805512","0.0-3.0-1.418","<span style=""font-size:30px; font-family: monospace"">menino</span>"," ","","exp-sent","menino","","",""
"","462","html-keyboard-response","504","806226","0.0-3.0-1.419","<span style=""font-size:30px; font-family: monospace"">riscou</span>"," ","","exp-sent","riscou","","",""
"","341","html-keyboard-response","505","806824","0.0-3.0-1.420","<span style=""font-size:30px; font-family: monospace"">o</span>"," ","","exp-sent","o","","",""
"","344","html-keyboard-response","506","807435","0.0-3.0-1.421","<span style=""font-size:30px; font-family: monospace"">caderno</span>"," ","","exp-sent","caderno","","",""
"","375","html-keyboard-response","507","808061","0.0-3.0-1.422","<span style=""font-size:30px; font-family: monospace"">com</span>"," ","","exp-sent","com","","",""
"","402","html-keyboard-response","508","808725","0.0-3.0-1.423","<span style=""font-size:30px; font-family: monospace"">a</span>"," ","","exp-sent","a","","",""
"","358","html-keyboard-response","509","809336","0.0-3.0-1.424","<span style=""font-size:30px; font-family: monospace"">caneta.</span>"," ","","comp","caneta.","","",""
"","6209","html-keyboard-response","510","815809","0.0-3.0-2.424-0.424","<span style=""font-size:30px; font-family: monospace"">O menino riscou a parede com a caneta?</span>","s","","comp","","O menino riscou a parede com a caneta?","não","false"
"","null","html-keyboard-response","511","817322","0.0-3.0-0.425-0.425","<span style= ""font-size:30px; font-family: monospace"">+</span>","null","fixation","","","","",""
"","1819","html-keyboard-response","512","819397","0.0-3.0-1.425","<span style=""font-size:30px; font-family: monospace"">O</span>"," ","","exp-sent","O","","",""
"","392","html-keyboard-response","513","820054","0.0-3.0-1.426","<span style=""font-size:30px; font-family: monospace"">moço</span>"," ","","exp-sent","moço","","",""
"","325","html-keyboard-response","514","820641","0.0-3.0-1.427","<span style=""font-size:30px; font-family: monospace"">usou</span>"," ","","exp-sent","usou","","",""
"","467","html-keyboard-response","515","821368","0.0-3.0-1.428","<span style=""font-size:30px; font-family: monospace"">várias</span>"," ","","exp-sent","várias","","",""
"","480","html-keyboard-response","516","822101","0.0-3.0-1.429","<span style=""font-size:30px; font-family: monospace"">velas</span>"," ","","exp-sent","velas","","",""
"","378","html-keyboard-response","517","822733","0.0-3.0-1.430","<span style=""font-size:30px; font-family: monospace"">no</span>"," ","","exp-sent","no","","",""
"","363","html-keyboard-response","518","823360","0.0-3.0-1.431","<span style=""font-size:30px; font-family: monospace"">enfeite</span>"," ","","exp-sent","enfeite","","",""
"","367","html-keyboard-response","519","823990","0.0-3.0-1.432","<span style=""font-size:30px; font-family: monospace"">de</span>"," ","","exp-sent","de","","",""
"","392","html-keyboard-response","520","824639","0.0-3.0-1.433","<span style=""font-size:30px; font-family: monospace"">mesa.</span>"," ","","exp-sent","mesa.","","",""
"","null","html-keyboard-response","521","825904","0.0-3.0-0.434-0.434","<span style= ""font-size:30px; font-family: monospace"">+</span>","null","fixation","","","","",""
"","657","html-keyboard-response","522","826817","0.0-3.0-1.434","<span style=""font-size:30px; font-family: monospace"">Gostamos</span>"," ","","exp-sent","Gostamos","","",""
"","407","html-keyboard-response","523","827488","0.0-3.0-1.435","<span style=""font-size:30px; font-family: monospace"">de</span>"," ","","exp-sent","de","","",""
"","493","html-keyboard-response","524","828243","0.0-3.0-1.436","<span style=""font-size:30px; font-family: monospace"">suco</span>"," ","","exp-sent","suco","","",""
"","680","html-keyboard-response","525","829186","0.0-3.0-1.437","<span style=""font-size:30px; font-family: monospace"">em</span>"," ","","exp-sent","em","","",""
"","811","html-keyboard-response","526","830253","0.0-3.0-1.438","<span style=""font-size:30px; font-family: monospace"">garrafa</span>"," ","","exp-sent","garrafa","","",""
"","667","html-keyboard-response","527","831177","0.0-3.0-1.439","<span style=""font-size:30px; font-family: monospace"">de</span>"," ","","exp-sent","de","","",""
"","487","html-keyboard-response","528","831926","0.0-3.0-1.440","<span style=""font-size:30px; font-family: monospace"">tamanho</span>"," ","","exp-sent","tamanho","","",""
"","580","html-keyboard-response","529","832768","0.0-3.0-1.441","<span style=""font-size:30px; font-family: monospace"">pequeno.</span>"," ","","exp-sent","pequeno.","","",""
"","null","html-keyboard-response","530","834031","0.0-3.0-0.442-0.442","<span style= ""font-size:30px; font-family: monospace"">+</span>","null","fixation","","","","",""
"","384","html-keyboard-response","531","834669","0.0-3.0-1.442","<span style=""font-size:30px; font-family: monospace"">Sua</span>"," ","","exp-sent","Sua","","",""
"","399","html-keyboard-response","532","835333","0.0-3.0-1.443","<span style=""font-size:30px; font-family: monospace"">filha</span>"," ","","exp-sent","filha","","",""
"","365","html-keyboard-response","533","835949","0.0-3.0-1.444","<span style=""font-size:30px; font-family: monospace"">é</span>"," ","","exp-sent","é","","",""
"","443","html-keyboard-response","534","836647","0.0-3.0-1.445","<span style=""font-size:30px; font-family: monospace"">muito</span>"," ","","exp-sent","muito","","",""
"","623","html-keyboard-response","535","837524","0.0-3.0-1.446","<span style=""font-size:30px; font-family: monospace"">capaz</span>"," ","","exp-sent","capaz","","",""
"","358","html-keyboard-response","536","838137","0.0-3.0-1.447","<span style=""font-size:30px; font-family: monospace"">e</span>"," ","","exp-sent","e","","",""
"","1711","html-keyboard-response","537","840115","0.0-3.0-1.448","<span style=""font-size:30px; font-family: monospace"">esforçada.</span>"," ","","exp-sent","esforçada.","","",""
"","null","html-keyboard-response","538","841375","0.0-3.0-0.449-0.449","<span style= ""font-size:30px; font-family: monospace"">+</span>","null","fixation","","","","",""
"","377","html-keyboard-response","539","842007","0.0-3.0-1.449","<span style=""font-size:30px; font-family: monospace"">A</span>"," ","","exp-sent","A","","",""
"","300","html-keyboard-response","540","842567","0.0-3.0-1.450","<span style=""font-size:30px; font-family: monospace"">batida</span>"," ","","exp-sent","batida","","",""
"","363","html-keyboard-response","541","843185","0.0-3.0-1.451","<span style=""font-size:30px; font-family: monospace"">causou</span>"," ","","exp-sent","causou","","",""
"","386","html-keyboard-response","542","843832","0.0-3.0-1.452","<span style=""font-size:30px; font-family: monospace"">muita</span>"," ","","exp-sent","muita","","",""
"","435","html-keyboard-response","543","844518","0.0-3.0-1.453","<span style=""font-size:30px; font-family: monospace"">confusão</span>"," ","","exp-sent","confusão","","",""
"","372","html-keyboard-response","544","845145","0.0-3.0-1.454","<span style=""font-size:30px; font-family: monospace"">na</span>"," ","","exp-sent","na","","",""
"","364","html-keyboard-response","545","845775","0.0-3.0-1.455","<span style=""font-size:30px; font-family: monospace"">estrada.</span>"," ","","exp-sent","estrada.","","",""
"","null","html-keyboard-response","546","847037","0.0-3.0-0.456-0.456","<span style= ""font-size:30px; font-family: monospace"">+</span>","null","fixation","","","","",""
"","753","html-keyboard-response","547","848043","0.0-3.0-1.456","<span style=""font-size:30px; font-family: monospace"">Eu</span>"," ","","exp-sent","Eu","","",""
"","495","html-keyboard-response","548","848803","0.0-3.0-1.457","<span style=""font-size:30px; font-family: monospace"">cozinhei</span>"," ","","exp-sent","cozinhei","","",""
"","344","html-keyboard-response","549","849401","0.0-3.0-1.458","<span style=""font-size:30px; font-family: monospace"">um</span>"," ","","exp-sent","um","","",""
"","365","html-keyboard-response","550","850033","0.0-3.0-1.459","<span style=""font-size:30px; font-family: monospace"">almoço</span>"," ","","exp-sent","almoço","","",""
"","420","html-keyboard-response","551","850704","0.0-3.0-1.460","<span style=""font-size:30px; font-family: monospace"">nutritivo</span>"," ","","exp-sent","nutritivo","","",""
"","360","html-keyboard-response","552","851318","0.0-3.0-1.461","<span style=""font-size:30px; font-family: monospace"">para</span>"," ","","exp-sent","para","","",""
"","424","html-keyboard-response","553","852005","0.0-3.0-1.462","<span style=""font-size:30px; font-family: monospace"">hoje.</span>"," ","","comp","hoje.","","",""
"","6078","html-keyboard-response","554","858348","0.0-3.0-2.462-0.462","<span style=""font-size:30px; font-family: monospace"">O almoço era nutritivo?</span>","n","","comp","","O almoço era nutritivo?","sim","false"
"","null","html-keyboard-response","555","859854","0.0-3.0-0.463-0.463","<span style= ""font-size:30px; font-family: monospace"">+</span>","null","fixation","","","","",""
"","265","html-keyboard-response","556","860377","0.0-3.0-1.463","<span style=""font-size:30px; font-family: monospace"">Preciso</span>"," ","","exp-sent","Preciso","","",""
"","310","html-keyboard-response","557","860948","0.0-3.0-1.464","<span style=""font-size:30px; font-family: monospace"">de</span>"," ","","exp-sent","de","","",""
"","310","html-keyboard-response","558","861510","0.0-3.0-1.465","<span style=""font-size:30px; font-family: monospace"">um</span>"," ","","exp-sent","um","","",""
"","67","html-keyboard-response","559","861843","0.0-3.0-1.466","<span style=""font-size:30px; font-family: monospace"">relatório</span>"," ","","exp-sent","relatório","","",""
"","280","html-keyboard-response","560","862377","0.0-3.0-1.467","<span style=""font-size:30px; font-family: monospace"">oficial</span>"," ","","exp-sent","oficial","","",""
"","552","html-keyboard-response","561","863195","0.0-3.0-1.468","<span style=""font-size:30px; font-family: monospace"">para</span>"," ","","exp-sent","para","","",""
"","339","html-keyboard-response","562","863786","0.0-3.0-1.469","<span style=""font-size:30px; font-family: monospace"">amanhã.</span>"," ","","exp-sent","amanhã.","","",""
"","null","html-keyboard-response","563","865042","0.0-3.0-0.470-0.470","<span style= ""font-size:30px; font-family: monospace"">+</span>","null","fixation","","","","",""
"","238","html-keyboard-response","564","865539","0.0-3.0-1.470","<span style=""font-size:30px; font-family: monospace"">Ele</span>"," ","","exp-sent","Ele","","",""
"","297","html-keyboard-response","565","866091","0.0-3.0-1.471","<span style=""font-size:30px; font-family: monospace"">viu</span>"," ","","exp-sent","viu","","",""
"","328","html-keyboard-response","566","866679","0.0-3.0-1.472","<span style=""font-size:30px; font-family: monospace"">um</span>"," ","","exp-sent","um","","",""
"","334","html-keyboard-response","567","867275","0.0-3.0-1.473","<span style=""font-size:30px; font-family: monospace"">inseto</span>"," ","","exp-sent","inseto","","",""
"","354","html-keyboard-response","568","867886","0.0-3.0-1.474","<span style=""font-size:30px; font-family: monospace"">marrom</span>"," ","","exp-sent","marrom","","",""
"","364","html-keyboard-response","569","868515","0.0-3.0-1.475","<span style=""font-size:30px; font-family: monospace"">na</span>"," ","","exp-sent","na","","",""
"","356","html-keyboard-response","570","869126","0.0-3.0-1.476","<span style=""font-size:30px; font-family: monospace"">parede.</span>"," ","","exp-sent","parede.","","",""
"","null","html-keyboard-response","571","870392","0.0-3.0-0.477-0.477","<span style= ""font-size:30px; font-family: monospace"">+</span>","null","fixation","","","","",""
"","187","html-keyboard-response","572","870835","0.0-3.0-1.477","<span style=""font-size:30px; font-family: monospace"">O</span>"," ","","exp-sent","O","","",""
"","365","html-keyboard-response","573","871462","0.0-3.0-1.478","<span style=""font-size:30px; font-family: monospace"">avô</span>"," ","","exp-sent","avô","","",""
"","368","html-keyboard-response","574","872084","0.0-3.0-1.479","<span style=""font-size:30px; font-family: monospace"">fez</span>"," ","","exp-sent","fez","","",""
"","325","html-keyboard-response","575","872662","0.0-3.0-1.480","<span style=""font-size:30px; font-family: monospace"">uma</span>"," ","","exp-sent","uma","","",""
"","3184","html-keyboard-response","576","876112","0.0-3.0-1.481","<span style=""font-size:30px; font-family: monospace"">lista</span>"," ","","exp-sent","lista","","",""
"","391","html-keyboard-response","577","876769","0.0-3.0-1.482","<span style=""font-size:30px; font-family: monospace"">de</span>"," ","","exp-sent","de","","",""
"","73","html-keyboard-response","578","877104","0.0-3.0-1.483","<span style=""font-size:30px; font-family: monospace"">compras</span>"," ","","exp-sent","compras","","",""
"","317","html-keyboard-response","579","877682","0.0-3.0-1.484","<span style=""font-size:30px; font-family: monospace"">do</span>"," ","","exp-sent","do","","",""
"","361","html-keyboard-response","580","878299","0.0-3.0-1.485","<span style=""font-size:30px; font-family: monospace"">mercado.</span>"," ","","exp-sent","mercado.","","",""
"","null","html-keyboard-response","581","879565","0.0-3.0-0.486-0.486","<span style= ""font-size:30px; font-family: monospace"">+</span>","null","fixation","","","","",""
"","4","html-keyboard-response","582","879824","0.0-3.0-1.486","<span style=""font-size:30px; font-family: monospace"">As</span>"," ","","exp-sent","As","","",""
"","543","html-keyboard-response","583","880622","0.0-3.0-1.487","<span style=""font-size:30px; font-family: monospace"">pessoas</span>"," ","","exp-sent","pessoas","","",""
"","353","html-keyboard-response","584","881230","0.0-3.0-1.488","<span style=""font-size:30px; font-family: monospace"">não</span>"," ","","exp-sent","não","","",""
