"view_history","rt","trial_type","trial_index","time_elapsed","internal_node_id","stimulus","response","class","status","answer","correct","trial","letters"
"[{""page_index"":0,""viewing_time"":195330}]","195330","instructions","0","195332","0.0-0.0","","","","","","","",""
"","null","html-keyboard-response","1","195951","0.0-1.0-0.0","+","null","","","","","",""
"","3544","html-keyboard-response","2","199500","0.0-1.0-1.0","chassi","n","null","cog","word","S","prac","null"
"","null","html-keyboard-response","3","200004","0.0-1.0-0.1","+","null","","","","","",""
"","3555","html-keyboard-response","4","203560","0.0-1.0-1.1","plibar","n","null","noncog","pseudo","N","prac","null"
"","null","html-keyboard-response","5","204069","0.0-1.0-0.2","+","null","","","","","",""
"","2714","html-keyboard-response","6","206785","0.0-1.0-1.2","daja","n","null","noncog","pseudo","N","prac","null"
"","null","html-keyboard-response","7","207299","0.0-1.0-0.3","+","null","","","","","",""
"","1116","html-keyboard-response","8","208417","0.0-1.0-1.3","calmaria","s","null","noncog","word","S","prac","null"
"","null","html-keyboard-response","9","208920","0.0-1.0-0.4","+","null","","","","","",""
"","1254","html-keyboard-response","10","210177","0.0-1.0-1.4","oliva","s","null","cog","word","S","prac","null"
"","null","html-keyboard-response","11","210680","0.0-1.0-0.5","+","null","","","","","",""
"","892","html-keyboard-response","12","211573","0.0-1.0-1.5","órgão","s","null","noncog","word","S","prac","null"
"","null","html-keyboard-response","13","212075","0.0-1.0-0.6","+","null","","","","","",""
"","1534","html-keyboard-response","14","213609","0.0-1.0-1.6","crante","n","null","noncog","pseudo","N","prac","null"
"[{""page_index"":0,""viewing_time"":34960}]","34961","instructions","15","248571","0.0-2.0","","","","","","","",""
"","null","html-keyboard-response","16","249190","0.0-3.0-0.0","+","null","","","","","",""
"","1786","html-keyboard-response","17","250978","0.0-3.0-1.0","liso","s","n","noncog","word","S","exp","4"
"","null","html-keyboard-response","18","251491","0.0-3.0-0.1","+","null","","","","","",""
"","1151","html-keyboard-response","19","252644","0.0-3.0-1.1","dacada","s","null","noncog","pseudo","N","exp","null"
"","null","html-keyboard-response","20","253148","0.0-3.0-0.2","+","null","","","","","",""
"","3035","html-keyboard-response","21","256185","0.0-3.0-1.2","dilheira","n","null","noncog","pseudo","N","exp","null"
"","null","html-keyboard-response","22","256699","0.0-3.0-0.3","+","null","","","","","",""
"","819","html-keyboard-response","23","257520","0.0-3.0-1.3","faínas","s","null","noncog","pseudo","N","exp","null"
"","null","html-keyboard-response","24","258036","0.0-3.0-0.4","+","null","","","","","",""
"","1236","html-keyboard-response","25","259273","0.0-3.0-1.4","delomir","n","null","noncog","pseudo","N","exp","null"
"","null","html-keyboard-response","26","259787","0.0-3.0-0.5","+","null","","","","","",""
"","986","html-keyboard-response","27","260774","0.0-3.0-1.5","montanha","s","n","cog","word","S","exp","8"
"","null","html-keyboard-response","28","261278","0.0-3.0-0.6","+","null","","","","","",""
"","752","html-keyboard-response","29","262032","0.0-3.0-1.6","fusbão","s","null","noncog","pseudo","N","exp","null"
"","null","html-keyboard-response","30","262537","0.0-3.0-0.7","+","null","","","","","",""
"","706","html-keyboard-response","31","263244","0.0-3.0-1.7","melão","s","n","cog","word","S","exp","5"
"","null","html-keyboard-response","32","263756","0.0-3.0-0.8","+","null","","","","","",""
"","1174","html-keyboard-response","33","264931","0.0-3.0-1.8","verceja","s","null","noncog","pseudo","N","exp","null"
"","null","html-keyboard-response","34","265443","0.0-3.0-0.9","+","null","","","","","",""
"","936","html-keyboard-response","35","266380","0.0-3.0-1.9","instruído","s","a","noncog","word","S","exp","9"
"","null","html-keyboard-response","36","266892","0.0-3.0-0.10","+","null","","","","","",""
"","1714","html-keyboard-response","37","268607","0.0-3.0-1.10","aivões","n","null","noncog","pseudo","N","exp","null"
"","null","html-keyboard-response","38","269121","0.0-3.0-0.11","+","null","","","","","",""
"","1466","html-keyboard-response","39","270587","0.0-3.0-1.11","morar","s","v","noncog","word","S","exp","5"
"","null","html-keyboard-response","40","271092","0.0-3.0-0.12","+","null","","","","","",""
"","2878","html-keyboard-response","41","273971","0.0-3.0-1.12","raspar","s","v","noncog","word","S","exp","6"
"","null","html-keyboard-response","42","274474","0.0-3.0-0.13","+","null","","","","","",""
"","1361","html-keyboard-response","43","275835","0.0-3.0-1.13","alfabeto","s","n","cog","word","S","exp","8"
"","null","html-keyboard-response","44","276343","0.0-3.0-0.14","+","null","","","","","",""
"","709","html-keyboard-response","45","277054","0.0-3.0-1.14","agressivo","s","a","cog","word","S","exp","9"
"","null","html-keyboard-response","46","277566","0.0-3.0-0.15","+","null","","","","","",""
"","1317","html-keyboard-response","47","278884","0.0-3.0-1.15","mua","s","null","noncog","pseudo","N","exp","null"
"","null","html-keyboard-response","48","279385","0.0-3.0-0.16","+","null","","","","","",""
"","1575","html-keyboard-response","49","280962","0.0-3.0-1.16","usfiga","n","null","noncog","pseudo","N","exp","null"
"","null","html-keyboard-response","50","281474","0.0-3.0-0.17","+","null","","","","","",""
"","1423","html-keyboard-response","51","282897","0.0-3.0-1.17","macras","n","null","noncog","pseudo","N","exp","null"
"","null","html-keyboard-response","52","283413","0.0-3.0-0.18","+","null","","","","","",""
"","1226","html-keyboard-response","53","284639","0.0-3.0-1.18","esprotiar","s","null","noncog","pseudo","N","exp","null"
"","null","html-keyboard-response","54","285150","0.0-3.0-0.19","+","null","","","","","",""
"","1502","html-keyboard-response","55","286652","0.0-3.0-1.19","telafonir","n","null","noncog","pseudo","N","exp","null"
"","null","html-keyboard-response","56","287164","0.0-3.0-0.20","+","null","","","","","",""
"","814","html-keyboard-response","57","287980","0.0-3.0-1.20","pulmão","s","n","noncog","word","S","exp","6"
"","null","html-keyboard-response","58","288495","0.0-3.0-0.21","+","null","","","","","",""
"","945","html-keyboard-response","59","289442","0.0-3.0-1.21","liberal","s","a","cog","word","S","exp","7"
"","null","html-keyboard-response","60","289951","0.0-3.0-0.22","+","null","","","","","",""
"","1320","html-keyboard-response","61","291272","0.0-3.0-1.22","tatear","n","v","cog","word","S","exp","6"
"","null","html-keyboard-response","62","291781","0.0-3.0-0.23","+","null","","","","","",""
"","2766","html-keyboard-response","63","294550","0.0-3.0-1.23","brincar","s","v","noncog","word","S","exp","7"
"","null","html-keyboard-response","64","295058","0.0-3.0-0.24","+","null","","","","","",""
"","1191","html-keyboard-response","65","296249","0.0-3.0-1.24","atrasar","s","v","noncog","word","S","exp","7"
"","null","html-keyboard-response","66","296760","0.0-3.0-0.25","+","null","","","","","",""
"","882","html-keyboard-response","67","297642","0.0-3.0-1.25","nome","s","n","cog","word","S","exp","4"
"","null","html-keyboard-response","68","298155","0.0-3.0-0.26","+","null","","","","","",""
"","1124","html-keyboard-response","69","299280","0.0-3.0-1.26","dobradiça","s","n","noncog","word","S","exp","9"
"","null","html-keyboard-response","70","299789","0.0-3.0-0.27","+","null","","","","","",""
"","596","html-keyboard-response","71","300386","0.0-3.0-1.27","gilha","s","null","noncog","pseudo","N","exp","null"
"","null","html-keyboard-response","72","300888","0.0-3.0-0.28","+","null","","","","","",""
"","742","html-keyboard-response","73","301631","0.0-3.0-1.28","cinema","s","n","cog","word","S","exp","6"
"","null","html-keyboard-response","74","302148","0.0-3.0-0.29","+","null","","","","","",""
"","720","html-keyboard-response","75","302869","0.0-3.0-1.29","conjerto","s","null","noncog","pseudo","N","exp","null"
"","null","html-keyboard-response","76","303379","0.0-3.0-0.30","+","null","","","","","",""
"","619","html-keyboard-response","77","303999","0.0-3.0-1.30","distraído","s","a","cog","word","S","exp","9"
"","null","html-keyboard-response","78","304511","0.0-3.0-0.31","+","null","","","","","",""
"","717","html-keyboard-response","79","305229","0.0-3.0-1.31","farcas","s","null","noncog","pseudo","N","exp","null"
"","null","html-keyboard-response","80","305735","0.0-3.0-0.32","+","null","","","","","",""
"","640","html-keyboard-response","81","306375","0.0-3.0-1.32","parceter","s","null","noncog","pseudo","N","exp","null"
"","null","html-keyboard-response","82","306878","0.0-3.0-0.33","+","null","","","","","",""
"","1245","html-keyboard-response","83","308126","0.0-3.0-1.33","bibarconato","s","null","noncog","pseudo","N","exp","null"
"","null","html-keyboard-response","84","308631","0.0-3.0-0.34","+","null","","","","","",""
"","1529","html-keyboard-response","85","310161","0.0-3.0-1.34","enxerido","s","a","noncog","word","S","exp","8"
"","null","html-keyboard-response","86","310670","0.0-3.0-0.35","+","null","","","","","",""
"","1045","html-keyboard-response","87","311715","0.0-3.0-1.35","morno","s","a","noncog","word","S","exp","5"
"","null","html-keyboard-response","88","312216","0.0-3.0-0.36","+","null","","","","","",""
"","1035","html-keyboard-response","89","313252","0.0-3.0-1.36","cascata","s","n","noncog","word","S","exp","7"
"","null","html-keyboard-response","90","313755","0.0-3.0-0.37","+","null","","","","","",""
"","639","html-keyboard-response","91","314396","0.0-3.0-1.37","chato","s","n","noncog","word","S","exp","5"
"","null","html-keyboard-response","92","314913","0.0-3.0-0.38","+","null","","","","","",""
"","1028","html-keyboard-response","93","315942","0.0-3.0-1.38","glória","s","n","cog","word","S","exp","6"
"","null","html-keyboard-response","94","316450","0.0-3.0-0.39","+","null","","","","","",""
"","663","html-keyboard-response","95","317114","0.0-3.0-1.39","agravar","s","v","cog","word","S","exp","7"
"","null","html-keyboard-response","96","317630","0.0-3.0-0.40","+","null","","","","","",""
"","890","html-keyboard-response","97","318521","0.0-3.0-1.40","mudança","s","n","noncog","word","S","exp","7"
"","null","html-keyboard-response","98","319033","0.0-3.0-0.41","+","null","","","","","",""
"","769","html-keyboard-response","99","319803","0.0-3.0-1.41","país","s","n","noncog","word","S","exp","4"
"","null","html-keyboard-response","100","320310","0.0-3.0-0.42","+","null","","","","","",""
"","667","html-keyboard-response","101","320979","0.0-3.0-1.42","temperar","s","v","noncog","word","S","exp","8"
"","null","html-keyboard-response","102","321491","0.0-3.0-0.43","+","null","","","","","",""
"","735","html-keyboard-response","103","322227","0.0-3.0-1.43","lorfaz","s","null","noncog","pseudo","N","exp","null"
"","null","html-keyboard-response","104","322742","0.0-3.0-0.44","+","null","","","","","",""
"","520","html-keyboard-response","105","323262","0.0-3.0-1.44","fino","s","a","cog","word","S","exp","4"
"","null","html-keyboard-response","106","323771","0.0-3.0-0.45","+","null","","","","","",""
"","503","html-keyboard-response","107","324275","0.0-3.0-1.45","gertas","s","null","noncog","pseudo","N","exp","null"
"","null","html-keyboard-response","108","324777","0.0-3.0-0.46","+","null","","","","","",""
"","597","html-keyboard-response","109","325374","0.0-3.0-1.46","uçar","s","null","noncog","pseudo","N","exp","null"
"","null","html-keyboard-response","110","325891","0.0-3.0-0.47","+","null","","","","","",""
"","560","html-keyboard-response","111","326453","0.0-3.0-1.47","espaço","s","n","cog","word","S","exp","6"
"","null","html-keyboard-response","112","326954","0.0-3.0-0.48","+","null","","","","","",""
"","1068","html-keyboard-response","113","328022","0.0-3.0-1.48","loaco","n","null","noncog","pseudo","N","exp","null"
"","null","html-keyboard-response","114","328531","0.0-3.0-0.49","+","null","","","","","",""
"","786","html-keyboard-response","115","329317","0.0-3.0-1.49","esperar","s","v","cog","word","S","exp","7"
"","null","html-keyboard-response","116","329821","0.0-3.0-0.50","+","null","","","","","",""
"","5025","html-keyboard-response","117","334847","0.0-3.0-1.50","comércio","n","n","noncog","word","S","exp","8"
"","null","html-keyboard-response","118","335364","0.0-3.0-0.51","+","null","","","","","",""
"","2491","html-keyboard-response","119","337856","0.0-3.0-1.51","espionar","s","v","cog","word","S","exp","8"
"","null","html-keyboard-response","120","338370","0.0-3.0-0.52","+","null","","","","","",""
"","1518","html-keyboard-response","121","339890","0.0-3.0-1.52","promessa","s","n","noncog","word","S","exp","8"
"","null","html-keyboard-response","122","340403","0.0-3.0-0.53","+","null","","","","","",""
"","805","html-keyboard-response","123","341210","0.0-3.0-1.53","mabras","s","null","noncog","pseudo","N","exp","null"
"","null","html-keyboard-response","124","341725","0.0-3.0-0.54","+","null","","","","","",""
"","1681","html-keyboard-response","125","343406","0.0-3.0-1.54","carregar","s","v","noncog","word","S","exp","8"
"","null","html-keyboard-response","126","343912","0.0-3.0-0.55","+","null","","","","","",""
"","1201","html-keyboard-response","127","345114","0.0-3.0-1.55","deselegante","s","a","noncog","word","S","exp","11"
"","null","html-keyboard-response","128","345629","0.0-3.0-0.56","+","null","","","","","",""
"","1004","html-keyboard-response","129","346635","0.0-3.0-1.56","afonher","s","null","noncog","pseudo","N","exp","null"
"","null","html-keyboard-response","130","347140","0.0-3.0-0.57","+","null","","","","","",""
"","693","html-keyboard-response","131","347834","0.0-3.0-1.57","disbrituir","s","null","noncog","pseudo","N","exp","null"
"","null","html-keyboard-response","132","348340","0.0-3.0-0.58","+","null","","","","","",""
"","1237","html-keyboard-response","133","349577","0.0-3.0-1.58","cerca","n","n","noncog","word","S","exp","5"
"","null","html-keyboard-response","134","350093","0.0-3.0-0.59","+","null","","","","","",""
"","1243","html-keyboard-response","135","351337","0.0-3.0-1.59","aperor","n","null","noncog","pseudo","N","exp","null"
"","null","html-keyboard-response","136","351842","0.0-3.0-0.60","+","null","","","","","",""
"","786","html-keyboard-response","137","352629","0.0-3.0-1.60","açúcar","s","n","noncog","word","S","exp","6"
"","null","html-keyboard-response","138","353145","0.0-3.0-0.61","+","null","","","","","",""
"","1207","html-keyboard-response","139","354352","0.0-3.0-1.61","multiplicar","s","v","cog","word","S","exp","11"
"","null","html-keyboard-response","140","354858","0.0-3.0-0.62","+","null","","","","","",""
"","792","html-keyboard-response","141","355651","0.0-3.0-1.62","tênis","s","n","cog","word","S","exp","5"
"","null","html-keyboard-response","142","356164","0.0-3.0-0.63","+","null","","","","","",""
"","726","html-keyboard-response","143","356890","0.0-3.0-1.63","civil","s","a","cog","word","S","exp","5"
"","null","html-keyboard-response","144","357397","0.0-3.0-0.64","+","null","","","","","",""
"","1191","html-keyboard-response","145","358588","0.0-3.0-1.64","lapestra","s","null","noncog","pseudo","N","exp","null"
"","null","html-keyboard-response","146","359099","0.0-3.0-0.65","+","null","","","","","",""
"","575","html-keyboard-response","147","359675","0.0-3.0-1.65","ofreta","s","null","noncog","pseudo","N","exp","null"
"","null","html-keyboard-response","148","360182","0.0-3.0-0.66","+","null","","","","","",""
"","489","html-keyboard-response","149","360672","0.0-3.0-1.66","gordo","s","a","noncog","word","S","exp","5"
"","null","html-keyboard-response","150","361175","0.0-3.0-0.67","+","null","","","","","",""
"","664","html-keyboard-response","151","361839","0.0-3.0-1.67","árovre","s","null","noncog","pseudo","N","exp","null"
"","null","html-keyboard-response","152","362345","0.0-3.0-0.68","+","null","","","","","",""
"","718","html-keyboard-response","153","363064","0.0-3.0-1.68","jastor","s","null","noncog","pseudo","N","exp","null"
"","null","html-keyboard-response","154","363576","0.0-3.0-0.69","+","null","","","","","",""
"","2410","html-keyboard-response","155","365987","0.0-3.0-1.69","resmungar","n","v","noncog","word","S","exp","9"
"","null","html-keyboard-response","156","366492","0.0-3.0-0.70","+","null","","","","","",""
"","1119","html-keyboard-response","157","367612","0.0-3.0-1.70","oricia","n","null","noncog","pseudo","N","exp","null"
"","null","html-keyboard-response","158","368129","0.0-3.0-0.71","+","null","","","","","",""
"","599","html-keyboard-response","159","368731","0.0-3.0-1.71","convidado","s","n","noncog","word","S","exp","9"
"","null","html-keyboard-response","160","369242","0.0-3.0-0.72","+","null","","","","","",""
"","1466","html-keyboard-response","161","370709","0.0-3.0-1.72","encelhor","s","null","noncog","pseudo","N","exp","null"
"","null","html-keyboard-response","162","371220","0.0-3.0-0.73","+","null","","","","","",""
"","1622","html-keyboard-response","163","372844","0.0-3.0-1.73","sustentar","s","v","noncog","word","S","exp","9"
"","null","html-keyboard-response","164","373352","0.0-3.0-0.74","+","null","","","","","",""
"","966","html-keyboard-response","165","374319","0.0-3.0-1.74","undivídio","s","null","noncog","pseudo","N","exp","null"
"","null","html-keyboard-response","166","374828","0.0-3.0-0.75","+","null","","","","","",""
"","680","html-keyboard-response","167","375510","0.0-3.0-1.75","tímido","s","a","cog","word","S","exp","6"
"","null","html-keyboard-response","168","376017","0.0-3.0-0.76","+","null","","","","","",""
"","690","html-keyboard-response","169","376708","0.0-3.0-1.76","lagras","s","null","noncog","pseudo","N","exp","null"
"","null","html-keyboard-response","170","377211","0.0-3.0-0.77","+","null","","","","","",""
"","881","html-keyboard-response","171","378092","0.0-3.0-1.77","pantufa","s","n","cog","word","S","exp","7"
"","null","html-keyboard-response","172","378595","0.0-3.0-0.78","+","null","","","","","",""
"","2005","html-keyboard-response","173","380601","0.0-3.0-1.78","bagunceira","s","a","noncog","word","S","exp","10"
"","null","html-keyboard-response","174","381109","0.0-3.0-0.79","+","null","","","","","",""
"","938","html-keyboard-response","175","382048","0.0-3.0-1.79","grátis","s","a","cog","word","S","exp","6"
"","null","html-keyboard-response","176","382562","0.0-3.0-0.80","+","null","","","","","",""
"","1429","html-keyboard-response","177","383994","0.0-3.0-1.80","extravagante","s","a","cog","word","S","exp","12"
"","null","html-keyboard-response","178","384504","0.0-3.0-0.81","+","null","","","","","",""
"","753","html-keyboard-response","179","385259","0.0-3.0-1.81","taberia","s","null","noncog","pseudo","N","exp","null"
"","null","html-keyboard-response","180","385775","0.0-3.0-0.82","+","null","","","","","",""
"","723","html-keyboard-response","181","386499","0.0-3.0-1.82","protas","s","null","noncog","pseudo","N","exp","null"
"","null","html-keyboard-response","182","387015","0.0-3.0-0.83","+","null","","","","","",""
"","951","html-keyboard-response","183","387968","0.0-3.0-1.83","atapdar","s","null","noncog","pseudo","N","exp","null"
"","null","html-keyboard-response","184","388481","0.0-3.0-0.84","+","null","","","","","",""
"","876","html-keyboard-response","185","389358","0.0-3.0-1.84","matinal","s","a","cog","word","S","exp","7"
"","null","html-keyboard-response","186","389866","0.0-3.0-0.85","+","null","","","","","",""
"","886","html-keyboard-response","187","390753","0.0-3.0-1.85","avenas","s","null","noncog","pseudo","N","exp","null"
"","null","html-keyboard-response","188","391256","0.0-3.0-0.86","+","null","","","","","",""
"","835","html-keyboard-response","189","392092","0.0-3.0-1.86","incomodar","s","v","noncog","word","S","exp","9"
"","null","html-keyboard-response","190","392599","0.0-3.0-0.87","+","null","","","","","",""
"","1425","html-keyboard-response","191","394026","0.0-3.0-1.87","enxarto","n","null","noncog","pseudo","N","exp","null"
"","null","html-keyboard-response","192","394539","0.0-3.0-0.88","+","null","","","","","",""
"","2379","html-keyboard-response","193","396919","0.0-3.0-1.88","arranjar","s","v","cog","word","S","exp","8"
"","null","html-keyboard-response","194","397423","0.0-3.0-0.89","+","null","","","","","",""
"","636","html-keyboard-response","195","398060","0.0-3.0-1.89","afual","s","null","noncog","pseudo","N","exp","null"
"","null","html-keyboard-response","196","398567","0.0-3.0-0.90","+","null","","","","","",""
"","1315","html-keyboard-response","197","399884","0.0-3.0-1.90","traduzir","s","v","cog","word","S","exp","8"
"","null","html-keyboard-response","198","400389","0.0-3.0-0.91","+","null","","","","","",""
"","1815","html-keyboard-response","199","402205","0.0-3.0-1.91","livro","s","n","cog","word","S","exp","5"
"","null","html-keyboard-response","200","402706","0.0-3.0-0.92","+","null","","","","","",""
"","1048","html-keyboard-response","201","403755","0.0-3.0-1.92","orupas","s","null","noncog","pseudo","N","exp","null"
"","null","html-keyboard-response","202","404264","0.0-3.0-0.93","+","null","","","","","",""
"","733","html-keyboard-response","203","404997","0.0-3.0-1.93","ótimo","s","a","noncog","word","S","exp","5"
"","null","html-keyboard-response","204","405511","0.0-3.0-0.94","+","null","","","","","",""
"","2689","html-keyboard-response","205","408200","0.0-3.0-1.94","ocinto","n","null","noncog","pseudo","N","exp","null"
"","null","html-keyboard-response","206","408705","0.0-3.0-0.95","+","null","","","","","",""
"","856","html-keyboard-response","207","409561","0.0-3.0-1.95","fratos","s","null","noncog","pseudo","N","exp","null"
"","null","html-keyboard-response","208","410074","0.0-3.0-0.96","+","null","","","","","",""
"","673","html-keyboard-response","209","410746","0.0-3.0-1.96","hipócrita","s","a","noncog","word","S","exp","9"
"","null","html-keyboard-response","210","411254","0.0-3.0-0.97","+","null","","","","","",""
"","606","html-keyboard-response","211","411860","0.0-3.0-1.97","especial","s","a","cog","word","S","exp","8"
"","null","html-keyboard-response","212","412368","0.0-3.0-0.98","+","null","","","","","",""
"","490","html-keyboard-response","213","412860","0.0-3.0-1.98","tio","s","n","noncog","word","S","exp","3"
"","null","html-keyboard-response","214","413371","0.0-3.0-0.99","+","null","","","","","",""
"","1079","html-keyboard-response","215","414450","0.0-3.0-1.99","nevela","s","null","noncog","pseudo","N","exp","null"
"","null","html-keyboard-response","216","414961","0.0-3.0-0.100","+","null","","","","","",""
"","1373","html-keyboard-response","217","416334","0.0-3.0-1.100","verde","s","a","noncog","word","S","exp","5"
"","null","html-keyboard-response","218","416837","0.0-3.0-0.101","+","null","","","","","",""
"","620","html-keyboard-response","219","417458","0.0-3.0-1.101","preferir","s","v","cog","word","S","exp","8"
"","null","html-keyboard-response","220","417972","0.0-3.0-0.102","+","null","","","","","",""
"","4841","html-keyboard-response","221","422816","0.0-3.0-1.102","promeção","s","null","noncog","pseudo","N","exp","null"
"","null","html-keyboard-response","222","423320","0.0-3.0-0.103","+","null","","","","","",""
"","816","html-keyboard-response","223","424137","0.0-3.0-1.103","alpica","s","null","noncog","pseudo","N","exp","null"
"","null","html-keyboard-response","224","424640","0.0-3.0-0.104","+","null","","","","","",""
"","1172","html-keyboard-response","225","425813","0.0-3.0-1.104","lagoa","n","n","cog","word","S","exp","5"
"","null","html-keyboard-response","226","426314","0.0-3.0-0.105","+","null","","","","","",""
"","1216","html-keyboard-response","227","427532","0.0-3.0-1.105","dipata","n","null","noncog","pseudo","N","exp","null"
"","null","html-keyboard-response","228","428036","0.0-3.0-0.106","+","null","","","","","",""
"","1190","html-keyboard-response","229","429228","0.0-3.0-1.106","salpicado","s","a","noncog","word","S","exp","9"
"","null","html-keyboard-response","230","429743","0.0-3.0-0.107","+","null","","","","","",""
"","905","html-keyboard-response","231","430648","0.0-3.0-1.107","memória","s","n","cog","word","S","exp","7"
"","null","html-keyboard-response","232","431161","0.0-3.0-0.108","+","null","","","","","",""
"","897","html-keyboard-response","233","432060","0.0-3.0-1.108","fofo","s","a","noncog","word","S","exp","4"
"","null","html-keyboard-response","234","432569","0.0-3.0-0.109","+","null","","","","","",""
"","636","html-keyboard-response","235","433206","0.0-3.0-1.109","pangos","s","null","noncog","pseudo","N","exp","null"
"","null","html-keyboard-response","236","433713","0.0-3.0-0.110","+","null","","","","","",""
"","830","html-keyboard-response","237","434545","0.0-3.0-1.110","pedaço","s","n","noncog","word","S","exp","6"
"","null","html-keyboard-response","238","435056","0.0-3.0-0.111","+","null","","","","","",""
"","778","html-keyboard-response","239","435834","0.0-3.0-1.111","aletiê","s","null","noncog","pseudo","N","exp","null"
"","null","html-keyboard-response","240","436340","0.0-3.0-0.112","+","null","","","","","",""
"","702","html-keyboard-response","241","437042","0.0-3.0-1.112","prever","s","v","cog","word","S","exp","6"
"","null","html-keyboard-response","242","437550","0.0-3.0-0.113","+","null","","","","","",""
"","631","html-keyboard-response","243","438181","0.0-3.0-1.113","escumo","s","null","noncog","pseudo","N","exp","null"
"","null","html-keyboard-response","244","438695","0.0-3.0-0.114","+","null","","","","","",""
"","550","html-keyboard-response","245","439246","0.0-3.0-1.114","ensuas","s","null","noncog","pseudo","N","exp","null"
"","null","html-keyboard-response","246","439759","0.0-3.0-0.115","+","null","","","","","",""
"","764","html-keyboard-response","247","440524","0.0-3.0-1.115","casuas","s","null","noncog","pseudo","N","exp","null"
"","null","html-keyboard-response","248","441031","0.0-3.0-0.116","+","null","","","","","",""
"","712","html-keyboard-response","249","441744","0.0-3.0-1.116","suipestar","s","null","noncog","pseudo","N","exp","null"
"","null","html-keyboard-response","250","442249","0.0-3.0-0.117","+","null","","","","","",""
"","676","html-keyboard-response","251","442926","0.0-3.0-1.117","selir","s","null","noncog","pseudo","N","exp","null"
"","null","html-keyboard-response","252","443429","0.0-3.0-0.118","+","null","","","","","",""
"","633","html-keyboard-response","253","444064","0.0-3.0-1.118","hébies","s","null","noncog","pseudo","N","exp","null"
"","null","html-keyboard-response","254","444569","0.0-3.0-0.119","+","null","","","","","",""
"","505","html-keyboard-response","255","445074","0.0-3.0-1.119","mal","s","a","cog","word","S","exp","3"
"","null","html-keyboard-response","256","445578","0.0-3.0-0.120","+","null","","","","","",""
"","715","html-keyboard-response","257","446295","0.0-3.0-1.120","trair","s","v","cog","word","S","exp","5"
"","null","html-keyboard-response","258","446801","0.0-3.0-0.121","+","null","","","","","",""
"","824","html-keyboard-response","259","447626","0.0-3.0-1.121","prantal","s","null","noncog","pseudo","N","exp","null"
"","null","html-keyboard-response","260","448138","0.0-3.0-0.122","+","null","","","","","",""
"","621","html-keyboard-response","261","448759","0.0-3.0-1.122","costra","s","null","noncog","pseudo","N","exp","null"
"","null","html-keyboard-response","262","449269","0.0-3.0-0.123","+","null","","","","","",""
"","650","html-keyboard-response","263","449921","0.0-3.0-1.123","bachir","s","null","noncog","pseudo","N","exp","null"
"","null","html-keyboard-response","264","450427","0.0-3.0-0.124","+","null","","","","","",""
"","1357","html-keyboard-response","265","451784","0.0-3.0-1.124","filosofia","s","n","cog","word","S","exp","9"
"","null","html-keyboard-response","266","452287","0.0-3.0-0.125","+","null","","","","","",""
"","630","html-keyboard-response","267","452917","0.0-3.0-1.125","terdia","s","null","noncog","pseudo","N","exp","null"
"","null","html-keyboard-response","268","453430","0.0-3.0-0.126","+","null","","","","","",""
"","652","html-keyboard-response","269","454083","0.0-3.0-1.126","tela","s","n","noncog","word","S","exp","4"
"","null","html-keyboard-response","270","454588","0.0-3.0-0.127","+","null","","","","","",""
"","730","html-keyboard-response","271","455319","0.0-3.0-1.127","cirado","n","null","noncog","pseudo","N","exp","null"
"","null","html-keyboard-response","272","455823","0.0-3.0-0.128","+","null","","","","","",""
"","1151","html-keyboard-response","273","456975","0.0-3.0-1.128","garastia","n","null","noncog","pseudo","N","exp","null"
"","null","html-keyboard-response","274","457487","0.0-3.0-0.129","+","null","","","","","",""
"","582","html-keyboard-response","275","458069","0.0-3.0-1.129","hedoru","n","null","noncog","pseudo","N","exp","null"
"","null","html-keyboard-response","276","458581","0.0-3.0-0.130","+","null","","","","","",""
"","577","html-keyboard-response","277","459159","0.0-3.0-1.130","mania","n","n","cog","word","S","exp","5"
"","null","html-keyboard-response","278","459673","0.0-3.0-0.131","+","null","","","","","",""
"","660","html-keyboard-response","279","460335","0.0-3.0-1.131","risbos","n","null","noncog","pseudo","N","exp","null"
"","null","html-keyboard-response","280","460845","0.0-3.0-0.132","+","null","","","","","",""
"","720","html-keyboard-response","281","461565","0.0-3.0-1.132","oper","n","null","noncog","pseudo","N","exp","null"
"","null","html-keyboard-response","282","462077","0.0-3.0-0.133","+","null","","","","","",""
"","1100","html-keyboard-response","283","463178","0.0-3.0-1.133","bracos","s","null","noncog","pseudo","N","exp","null"
"","null","html-keyboard-response","284","463680","0.0-3.0-0.134","+","null","","","","","",""
"","1072","html-keyboard-response","285","464753","0.0-3.0-1.134","trenos","s","null","noncog","pseudo","N","exp","null"
"","null","html-keyboard-response","286","465263","0.0-3.0-0.135","+","null","","","","","",""
"","637","html-keyboard-response","287","465902","0.0-3.0-1.135","prenas","s","null","noncog","pseudo","N","exp","null"
"","null","html-keyboard-response","288","466410","0.0-3.0-0.136","+","null","","","","","",""
"","567","html-keyboard-response","289","466981","0.0-3.0-1.136","motre","s","null","noncog","pseudo","N","exp","null"
"","null","html-keyboard-response","290","467499","0.0-3.0-0.137","+","null","","","","","",""
"","666","html-keyboard-response","291","468168","0.0-3.0-1.137","azul","s","n","noncog","word","S","exp","4"
"","null","html-keyboard-response","292","468672","0.0-3.0-0.138","+","null","","","","","",""
"","635","html-keyboard-response","293","469309","0.0-3.0-1.138","abieso","s","null","noncog","pseudo","N","exp","null"
"","null","html-keyboard-response","294","469815","0.0-3.0-0.139","+","null","","","","","",""
"","794","html-keyboard-response","295","470616","0.0-3.0-1.139","cápsula","s","n","noncog","word","S","exp","7"
"","null","html-keyboard-response","296","471129","0.0-3.0-0.140","+","null","","","","","",""
"","812","html-keyboard-response","297","471947","0.0-3.0-1.140","anjo","s","n","cog","word","S","exp","4"
"","null","html-keyboard-response","298","472461","0.0-3.0-0.141","+","null","","","","","",""
"","618","html-keyboard-response","299","473081","0.0-3.0-1.141","cravo","s","n","noncog","word","S","exp","5"
"","null","html-keyboard-response","300","473586","0.0-3.0-0.142","+","null","","","","","",""
"","630","html-keyboard-response","301","474217","0.0-3.0-1.142","uchães","s","null","noncog","pseudo","N","exp","null"
"","null","html-keyboard-response","302","474728","0.0-3.0-0.143","+","null","","","","","",""
"","548","html-keyboard-response","303","475277","0.0-3.0-1.143","areia","s","n","noncog","word","S","exp","5"
"","null","html-keyboard-response","304","475794","0.0-3.0-0.144","+","null","","","","","",""
"","543","html-keyboard-response","305","476338","0.0-3.0-1.144","motros","s","null","noncog","pseudo","N","exp","null"
"","null","html-keyboard-response","306","476844","0.0-3.0-0.145","+","null","","","","","",""
"","626","html-keyboard-response","307","477471","0.0-3.0-1.145","planalto","s","n","cog","word","S","exp","8"
"","null","html-keyboard-response","308","477979","0.0-3.0-0.146","+","null","","","","","",""
"","865","html-keyboard-response","309","478846","0.0-3.0-1.146","plinta","s","null","noncog","pseudo","N","exp","null"
"","null","html-keyboard-response","310","479360","0.0-3.0-0.147","+","null","","","","","",""
"","540","html-keyboard-response","311","479901","0.0-3.0-1.147","nervoso","s","a","noncog","word","S","exp","7"
"","null","html-keyboard-response","312","480409","0.0-3.0-0.148","+","null","","","","","",""
"","921","html-keyboard-response","313","481332","0.0-3.0-1.148","socorro","s","n","noncog","word","S","exp","7"
"","null","html-keyboard-response","314","481839","0.0-3.0-0.149","+","null","","","","","",""
"","487","html-keyboard-response","315","482327","0.0-3.0-1.149","destino","s","n","cog","word","S","exp","7"
"","null","html-keyboard-response","316","482835","0.0-3.0-0.150","+","null","","","","","",""
"","1285","html-keyboard-response","317","484123","0.0-3.0-1.150","pega-pega","s","n","noncog","word","S","exp","8"
"","null","html-keyboard-response","318","484632","0.0-3.0-0.151","+","null","","","","","",""
"","612","html-keyboard-response","319","485245","0.0-3.0-1.151","tinta","s","n","cog","word","S","exp","5"
"","null","html-keyboard-response","320","485758","0.0-3.0-0.152","+","null","","","","","",""
"","914","html-keyboard-response","321","486674","0.0-3.0-1.152","filme","s","n","cog","word","S","exp","5"
"","null","html-keyboard-response","322","487185","0.0-3.0-0.153","+","null","","","","","",""
"","2168","html-keyboard-response","323","489354","0.0-3.0-1.153","gruja","n","null","noncog","pseudo","N","exp","null"
"","null","html-keyboard-response","324","489859","0.0-3.0-0.154","+","null","","","","","",""
"","2215","html-keyboard-response","325","492075","0.0-3.0-1.154","francês","s","a","cog","word","S","exp","7"
"","null","html-keyboard-response","326","492581","0.0-3.0-0.155","+","null","","","","","",""
"","807","html-keyboard-response","327","493389","0.0-3.0-1.155","âgnulo","s","null","noncog","pseudo","N","exp","null"
"","null","html-keyboard-response","328","493893","0.0-3.0-0.156","+","null","","","","","",""
"","505","html-keyboard-response","329","494399","0.0-3.0-1.156","crutas","s","null","noncog","pseudo","N","exp","null"
"","null","html-keyboard-response","330","494910","0.0-3.0-0.157","+","null","","","","","",""
"","741","html-keyboard-response","331","495651","0.0-3.0-1.157","apontar","s","v","noncog","word","S","exp","7"
"","null","html-keyboard-response","332","496165","0.0-3.0-0.158","+","null","","","","","",""
"","576","html-keyboard-response","333","496741","0.0-3.0-1.158","aparme","s","null","noncog","pseudo","N","exp","null"
"","null","html-keyboard-response","334","497243","0.0-3.0-0.159","+","null","","","","","",""
"","1024","html-keyboard-response","335","498268","0.0-3.0-1.159","irratinte","n","null","noncog","pseudo","N","exp","null"
"","null","html-keyboard-response","336","498781","0.0-3.0-0.160","+","null","","","","","",""
"","603","html-keyboard-response","337","499385","0.0-3.0-1.160","quenzina","n","null","noncog","pseudo","N","exp","null"
"","null","html-keyboard-response","338","499894","0.0-3.0-0.161","+","null","","","","","",""
"","559","html-keyboard-response","339","500456","0.0-3.0-1.161","rédesa","n","null","noncog","pseudo","N","exp","null"
"","null","html-keyboard-response","340","500958","0.0-3.0-0.162","+","null","","","","","",""
"","542","html-keyboard-response","341","501500","0.0-3.0-1.162","espinho","n","n","noncog","word","S","exp","7"
"","null","html-keyboard-response","342","502003","0.0-3.0-0.163","+","null","","","","","",""
"","726","html-keyboard-response","343","502730","0.0-3.0-1.163","vervas","s","null","noncog","pseudo","N","exp","null"
"","null","html-keyboard-response","344","503241","0.0-3.0-0.164","+","null","","","","","",""
"","584","html-keyboard-response","345","503826","0.0-3.0-1.164","enedro","n","null","noncog","pseudo","N","exp","null"
"","null","html-keyboard-response","346","504333","0.0-3.0-0.165","+","null","","","","","",""
"","1136","html-keyboard-response","347","505471","0.0-3.0-1.165","delirar","s","v","noncog","word","S","exp","7"
"","null","html-keyboard-response","348","505982","0.0-3.0-0.166","+","null","","","","","",""
"","643","html-keyboard-response","349","506626","0.0-3.0-1.166","podilo","s","null","noncog","pseudo","N","exp","null"
"","null","html-keyboard-response","350","507140","0.0-3.0-0.167","+","null","","","","","",""
"","730","html-keyboard-response","351","507872","0.0-3.0-1.167","jantar","s","v","noncog","word","S","exp","6"
"","null","html-keyboard-response","352","508375","0.0-3.0-0.168","+","null","","","","","",""
"","766","html-keyboard-response","353","509141","0.0-3.0-1.168","esfoce","s","null","noncog","pseudo","N","exp","null"
"","null","html-keyboard-response","354","509645","0.0-3.0-0.169","+","null","","","","","",""
"","523","html-keyboard-response","355","510168","0.0-3.0-1.169","rovaz","s","null","noncog","pseudo","N","exp","null"
"","null","html-keyboard-response","356","510681","0.0-3.0-0.170","+","null","","","","","",""
"","477","html-keyboard-response","357","511159","0.0-3.0-1.170","pritas","s","null","noncog","pseudo","N","exp","null"
"","null","html-keyboard-response","358","511668","0.0-3.0-0.171","+","null","","","","","",""
"","919","html-keyboard-response","359","512588","0.0-3.0-1.171","manfa","s","null","noncog","pseudo","N","exp","null"
"","null","html-keyboard-response","360","513093","0.0-3.0-0.172","+","null","","","","","",""
"","1433","html-keyboard-response","361","514527","0.0-3.0-1.172","independente","s","a","noncog","word","S","exp","12"
"","null","html-keyboard-response","362","515030","0.0-3.0-0.173","+","null","","","","","",""
"","1808","html-keyboard-response","363","516838","0.0-3.0-1.173","nacional","s","a","cog","word","S","exp","8"
"","null","html-keyboard-response","364","517352","0.0-3.0-0.174","+","null","","","","","",""
"","678","html-keyboard-response","365","518030","0.0-3.0-1.174","refletir","s","v","cog","word","S","exp","8"
"","null","html-keyboard-response","366","518533","0.0-3.0-0.175","+","null","","","","","",""
"","879","html-keyboard-response","367","519413","0.0-3.0-1.175","ejerro","s","null","noncog","pseudo","N","exp","null"
"","null","html-keyboard-response","368","519927","0.0-3.0-0.176","+","null","","","","","",""
"","1287","html-keyboard-response","369","521216","0.0-3.0-1.176","pneucania","n","null","noncog","pseudo","N","exp","null"
"","null","html-keyboard-response","370","521729","0.0-3.0-0.177","+","null","","","","","",""
"","981","html-keyboard-response","371","522710","0.0-3.0-1.177","chorão","s","a","noncog","word","S","exp","6"
"","null","html-keyboard-response","372","523226","0.0-3.0-0.178","+","null","","","","","",""
"","1055","html-keyboard-response","373","524280","0.0-3.0-1.178","ronronar","s","v","cog","word","S","exp","8"
"","null","html-keyboard-response","374","524787","0.0-3.0-0.179","+","null","","","","","",""
"","883","html-keyboard-response","375","525672","0.0-3.0-1.179","ideisa","s","null","noncog","pseudo","N","exp","null"
"","null","html-keyboard-response","376","526187","0.0-3.0-0.180","+","null","","","","","",""
"","590","html-keyboard-response","377","526780","0.0-3.0-1.180","fasdas","s","null","noncog","pseudo","N","exp","null"
"","null","html-keyboard-response","378","527297","0.0-3.0-0.181","+","null","","","","","",""
"","718","html-keyboard-response","379","528018","0.0-3.0-1.181","grave","s","a","cog","word","S","exp","5"
"","null","html-keyboard-response","380","528521","0.0-3.0-0.182","+","null","","","","","",""
"","468","html-keyboard-response","381","528990","0.0-3.0-1.182","beima","s","null","noncog","pseudo","N","exp","null"
"","null","html-keyboard-response","382","529506","0.0-3.0-0.183","+","null","","","","","",""
"","570","html-keyboard-response","383","530078","0.0-3.0-1.183","aemaça","s","null","noncog","pseudo","N","exp","null"
"","null","html-keyboard-response","384","530589","0.0-3.0-0.184","+","null","","","","","",""
"","464","html-keyboard-response","385","531060","0.0-3.0-1.184","bandido","s","n","cog","word","S","exp","7"
"","null","html-keyboard-response","386","531564","0.0-3.0-0.185","+","null","","","","","",""
"","676","html-keyboard-response","387","532244","0.0-3.0-1.185","ênclio","s","null","noncog","pseudo","N","exp","null"
"","null","html-keyboard-response","388","532757","0.0-3.0-0.186","+","null","","","","","",""
"","618","html-keyboard-response","389","533377","0.0-3.0-1.186","verdade","s","n","cog","word","S","exp","7"
"","null","html-keyboard-response","390","533881","0.0-3.0-0.187","+","null","","","","","",""
"","486","html-keyboard-response","391","534368","0.0-3.0-1.187","bambu","s","n","cog","word","S","exp","5"
"","null","html-keyboard-response","392","534885","0.0-3.0-0.188","+","null","","","","","",""
"","470","html-keyboard-response","393","535358","0.0-3.0-1.188","sanque","s","null","noncog","pseudo","N","exp","null"
"","null","html-keyboard-response","394","535873","0.0-3.0-0.189","+","null","","","","","",""
"","429","html-keyboard-response","395","536305","0.0-3.0-1.189","usnado","s","null","noncog","pseudo","N","exp","null"
"","null","html-keyboard-response","396","536810","0.0-3.0-0.190","+","null","","","","","",""
"","434","html-keyboard-response","397","537247","0.0-3.0-1.190","revista","s","n","cog","word","S","exp","7"
"","null","html-keyboard-response","398","537750","0.0-3.0-0.191","+","null","","","","","",""
"","776","html-keyboard-response","399","538527","0.0-3.0-1.191","crolatário","s","null","noncog","pseudo","N","exp","null"
"","null","html-keyboard-response","400","539040","0.0-3.0-0.192","+","null","","","","","",""
"","1860","html-keyboard-response","401","540901","0.0-3.0-1.192","propaganda","s","n","cog","word","S","exp","10"
"","null","html-keyboard-response","402","541417","0.0-3.0-0.193","+","null","","","","","",""
"","615","html-keyboard-response","403","542034","0.0-3.0-1.193","boreta","s","null","noncog","pseudo","N","exp","null"
"","null","html-keyboard-response","404","542548","0.0-3.0-0.194","+","null","","","","","",""
"","491","html-keyboard-response","405","543039","0.0-3.0-1.194","oecano","s","null","noncog","pseudo","N","exp","null"
"","null","html-keyboard-response","406","543550","0.0-3.0-0.195","+","null","","","","","",""
"","552","html-keyboard-response","407","544104","0.0-3.0-1.195","drama","s","n","cog","word","S","exp","5"
"","null","html-keyboard-response","408","544613","0.0-3.0-0.196","+","null","","","","","",""
"","603","html-keyboard-response","409","545219","0.0-3.0-1.196","grótis","s","null","noncog","pseudo","N","exp","null"
"","null","html-keyboard-response","410","545726","0.0-3.0-0.197","+","null","","","","","",""
"","490","html-keyboard-response","411","546218","0.0-3.0-1.197","braras","s","null","noncog","pseudo","N","exp","null"
"","null","html-keyboard-response","412","546726","0.0-3.0-0.198","+","null","","","","","",""
"","473","html-keyboard-response","413","547201","0.0-3.0-1.198","adoçar","s","v","noncog","word","S","exp","6"
"","null","html-keyboard-response","414","547713","0.0-3.0-0.199","+","null","","","","","",""
"","1563","html-keyboard-response","415","549278","0.0-3.0-1.199","ilhure","n","null","noncog","pseudo","N","exp","null"
"","null","html-keyboard-response","416","549789","0.0-3.0-0.200","+","null","","","","","",""
"","616","html-keyboard-response","417","550407","0.0-3.0-1.200","barco","s","n","cog","word","S","exp","5"
"","null","html-keyboard-response","418","550910","0.0-3.0-0.201","+","null","","","","","",""
"","997","html-keyboard-response","419","551909","0.0-3.0-1.201","burtos","s","null","noncog","pseudo","N","exp","null"
"","null","html-keyboard-response","420","552420","0.0-3.0-0.202","+","null","","","","","",""
"","1580","html-keyboard-response","421","554000","0.0-3.0-1.202","medalha","n","n","cog","word","S","exp","7"
"","null","html-keyboard-response","422","554505","0.0-3.0-0.203","+","null","","","","","",""
"","1698","html-keyboard-response","423","556203","0.0-3.0-1.203","frotes","s","null","noncog","pseudo","N","exp","null"
"","null","html-keyboard-response","424","556712","0.0-3.0-0.204","+","null","","","","","",""
"","2101","html-keyboard-response","425","558814","0.0-3.0-1.204","pimada","n","null","noncog","pseudo","N","exp","null"
"","null","html-keyboard-response","426","559326","0.0-3.0-0.205","+","null","","","","","",""
"","1056","html-keyboard-response","427","560382","0.0-3.0-1.205","fogão","s","n","noncog","word","S","exp","5"
"","null","html-keyboard-response","428","560897","0.0-3.0-0.206","+","null","","","","","",""
"","712","html-keyboard-response","429","561610","0.0-3.0-1.206","atitro","s","null","noncog","pseudo","N","exp","null"
"","null","html-keyboard-response","430","562112","0.0-3.0-0.207","+","null","","","","","",""
"","1358","html-keyboard-response","431","563471","0.0-3.0-1.207","euorpa","s","null","noncog","pseudo","N","exp","null"
"","null","html-keyboard-response","432","563982","0.0-3.0-0.208","+","null","","","","","",""
"","764","html-keyboard-response","433","564747","0.0-3.0-1.208","dia","s","n","noncog","word","S","exp","3"
"","null","html-keyboard-response","434","565254","0.0-3.0-0.209","+","null","","","","","",""
"","646","html-keyboard-response","435","565901","0.0-3.0-1.209","perbas","s","null","noncog","pseudo","N","exp","null"
"","null","html-keyboard-response","436","566409","0.0-3.0-0.210","+","null","","","","","",""
"","525","html-keyboard-response","437","566935","0.0-3.0-1.210","morija","s","null","noncog","pseudo","N","exp","null"
"","null","html-keyboard-response","438","567444","0.0-3.0-0.211","+","null","","","","","",""
"","423","html-keyboard-response","439","567868","0.0-3.0-1.211","tartos","s","null","noncog","pseudo","N","exp","null"
"","null","html-keyboard-response","440","568378","0.0-3.0-0.212","+","null","","","","","",""
"","753","html-keyboard-response","441","569133","0.0-3.0-1.212","detative","s","null","noncog","pseudo","N","exp","null"
"","null","html-keyboard-response","442","569637","0.0-3.0-0.213","+","null","","","","","",""
"","1187","html-keyboard-response","443","570826","0.0-3.0-1.213","papai","s","n","cog","word","S","exp","5"
"","null","html-keyboard-response","444","571338","0.0-3.0-0.214","+","null","","","","","",""
"","845","html-keyboard-response","445","572182","0.0-3.0-1.214","sintonizar","s","v","noncog","word","S","exp","10"
"","null","html-keyboard-response","446","572694","0.0-3.0-0.215","+","null","","","","","",""
"","482","html-keyboard-response","447","573178","0.0-3.0-1.215","carro","s","n","noncog","word","S","exp","5"
"","null","html-keyboard-response","448","573681","0.0-3.0-0.216","+","null","","","","","",""
"","446","html-keyboard-response","449","574127","0.0-3.0-1.216","cristal","s","n","cog","word","S","exp","7"
"","null","html-keyboard-response","450","574642","0.0-3.0-0.217","+","null","","","","","",""
"","1807","html-keyboard-response","451","576450","0.0-3.0-1.217","vitrive","n","null","noncog","pseudo","N","exp","null"
"","null","html-keyboard-response","452","576957","0.0-3.0-0.218","+","null","","","","","",""
"","741","html-keyboard-response","453","577699","0.0-3.0-1.218","manais","n","null","noncog","pseudo","N","exp","null"
"","null","html-keyboard-response","454","578211","0.0-3.0-0.219","+","null","","","","","",""
"","898","html-keyboard-response","455","579110","0.0-3.0-1.219","imitar","s","v","cog","word","S","exp","6"
"","null","html-keyboard-response","456","579615","0.0-3.0-0.220","+","null","","","","","",""
"","632","html-keyboard-response","457","580248","0.0-3.0-1.220","sábio","s","n","noncog","word","S","exp","5"
"","null","html-keyboard-response","458","580755","0.0-3.0-0.221","+","null","","","","","",""
"","2636","html-keyboard-response","459","583392","0.0-3.0-1.221","carona","n","n","noncog","word","S","exp","6"
"","null","html-keyboard-response","460","583900","0.0-3.0-0.222","+","null","","","","","",""
"","1218","html-keyboard-response","461","585118","0.0-3.0-1.222","bancada","s","n","noncog","word","S","exp","7"
"","null","html-keyboard-response","462","585622","0.0-3.0-0.223","+","null","","","","","",""
"","704","html-keyboard-response","463","586328","0.0-3.0-1.223","aitrou","n","null","noncog","pseudo","N","exp","null"
"","null","html-keyboard-response","464","586833","0.0-3.0-0.224","+","null","","","","","",""
"","854","html-keyboard-response","465","587689","0.0-3.0-1.224","perdão","s","n","noncog","word","S","exp","6"
"","null","html-keyboard-response","466","588199","0.0-3.0-0.225","+","null","","","","","",""
"","1052","html-keyboard-response","467","589253","0.0-3.0-1.225","candifência","s","null","noncog","pseudo","N","exp","null"
"","null","html-keyboard-response","468","589759","0.0-3.0-0.226","+","null","","","","","",""
"","600","html-keyboard-response","469","590360","0.0-3.0-1.226","reduzir","s","v","cog","word","S","exp","7"
"","null","html-keyboard-response","470","590869","0.0-3.0-0.227","+","null","","","","","",""
"","826","html-keyboard-response","471","591695","0.0-3.0-1.227","franda","s","null","noncog","pseudo","N","exp","null"
"","null","html-keyboard-response","472","592204","0.0-3.0-0.228","+","null","","","","","",""
"","616","html-keyboard-response","473","592820","0.0-3.0-1.228","pitada","s","n","noncog","word","S","exp","6"
"","null","html-keyboard-response","474","593335","0.0-3.0-0.229","+","null","","","","","",""
"","677","html-keyboard-response","475","594014","0.0-3.0-1.229","telefone","s","n","cog","word","S","exp","8"
"","null","html-keyboard-response","476","594526","0.0-3.0-0.230","+","null","","","","","",""
"","904","html-keyboard-response","477","595431","0.0-3.0-1.230","berquesa","s","null","noncog","pseudo","N","exp","null"
"","null","html-keyboard-response","478","595948","0.0-3.0-0.231","+","null","","","","","",""
"","626","html-keyboard-response","479","596575","0.0-3.0-1.231","cenada","s","null","noncog","pseudo","N","exp","null"
"","null","html-keyboard-response","480","597080","0.0-3.0-0.232","+","null","","","","","",""
"","607","html-keyboard-response","481","597689","0.0-3.0-1.232","trabalhar","s","v","noncog","word","S","exp","9"
"","null","html-keyboard-response","482","598204","0.0-3.0-0.233","+","null","","","","","",""
"","603","html-keyboard-response","483","598809","0.0-3.0-1.233","dencosto","s","null","noncog","pseudo","N","exp","null"
"","null","html-keyboard-response","484","599313","0.0-3.0-0.234","+","null","","","","","",""
"","718","html-keyboard-response","485","600032","0.0-3.0-1.234","nivelado","s","a","cog","word","S","exp","8"
"","null","html-keyboard-response","486","600541","0.0-3.0-0.235","+","null","","","","","",""
"","575","html-keyboard-response","487","601117","0.0-3.0-1.235","animado","s","a","noncog","word","S","exp","7"
"","null","html-keyboard-response","488","601626","0.0-3.0-0.236","+","null","","","","","",""
"","519","html-keyboard-response","489","602147","0.0-3.0-1.236","viver","s","v","cog","word","S","exp","5"
"","null","html-keyboard-response","490","602663","0.0-3.0-0.237","+","null","","","","","",""
"","786","html-keyboard-response","491","603450","0.0-3.0-1.237","revear","s","null","noncog","pseudo","N","exp","null"
"","null","html-keyboard-response","492","603967","0.0-3.0-0.238","+","null","","","","","",""
"","493","html-keyboard-response","493","604461","0.0-3.0-1.238","tronca","s","null","noncog","pseudo","N","exp","null"
"","null","html-keyboard-response","494","604965","0.0-3.0-0.239","+","null","","","","","",""
"","988","html-keyboard-response","495","605954","0.0-3.0-1.239","senareta","s","null","noncog","pseudo","N","exp","null"
