[
	{
		"view_history": [
			{
				"page_index": 0,
				"viewing_time": 2722
			}
		],
		"rt": 2722,
		"trial_type": "instructions",
		"trial_index": 0,
		"time_elapsed": 2723,
		"internal_node_id": "0.0-0.0"
	},
	{
		"rt": 328488,
		"response": {
			"tcle": "Concordo voluntariamente em participar da pesquisa conforme texto acima."
		},
		"question_order": [
			0
		],
		"trial_type": "survey-multi-choice",
		"trial_index": 1,
		"time_elapsed": 331419,
		"internal_node_id": "0.0-1.0"
	},
	{
		"rt": 125877,
		"response": {
			"email": "xueo6"
		},
		"trial_type": "survey-text",
		"trial_index": 2,
		"time_elapsed": 458314,
		"internal_node_id": "0.0-2.0"
	}
]