"view_history","rt","trial_type","trial_index","time_elapsed","internal_node_id","stimulus","response","trial_part","word","question","answer","trial","accuracy"
"[{""page_index"":0,""viewing_time"":61407},{""page_index"":1,""viewing_time"":1168}]","62576","instructions","0","62578","0.0-0.0","","","","","","","",""
"","null","html-keyboard-response","1","63697","0.0-1.0-0.0-0.0","<span style= ""font-size:30px; font-family: monospace"">+</span>","null","fixation","","","","",""
"","10301","audio-keyboard-response","2","75036","0.0-1.0-1.0","../audio/prac-question-1-1.mp3"," ","","O","","","",""
"","3760","audio-keyboard-response","3","79091","0.0-1.0-1.1","../audio/prac-question-1-2.mp3"," ","","dia","","","",""
"","2661","audio-keyboard-response","4","82040","0.0-1.0-1.2","../audio/prac-question-1-3.mp3"," ","","estará","","","",""
"","21","audio-keyboard-response","5","82353","0.0-1.0-1.3","../audio/prac-question-1-4.mp3"," ","","cheio","","","",""
"","2509","audio-keyboard-response","6","85175","0.0-1.0-1.4","../audio/prac-question-1-5.mp3"," ","","de","","","",""
"","3808","audio-keyboard-response","7","89289","0.0-1.0-1.5","../audio/prac-question-1-6.mp3"," ","","nuvens","","","",""
"","3491","audio-keyboard-response","8","93064","0.0-1.0-1.6","../audio/prac-question-1-7.mp3"," ","","hoje.","","","",""
"","null","html-keyboard-response","9","94325","0.0-1.0-0.7-0.7","<span style= ""font-size:30px; font-family: monospace"">+</span>","null","fixation","","","","",""
"","2280","audio-keyboard-response","10","96898","0.0-1.0-1.7","../audio/prac-question-2-1.mp3"," ","","A","","","",""
"","1800","audio-keyboard-response","11","98991","0.0-1.0-1.8","../audio/prac-question-2-2.mp3"," ","","caneca","","","",""
"","1832","audio-keyboard-response","12","101126","0.0-1.0-1.9","../audio/prac-question-2-3.mp3"," ","","colorida","","","",""
"","1149","audio-keyboard-response","13","102581","0.0-1.0-1.10","../audio/prac-question-2-4.mp3"," ","","caiu","","","",""
"","760","audio-keyboard-response","14","103629","0.0-1.0-1.11","../audio/prac-question-2-5.mp3"," ","","da","","","",""
"","672","audio-keyboard-response","15","104598","0.0-1.0-1.12","../audio/prac-question-2-6.mp3"," ","","mesa","","","",""
"","821","audio-keyboard-response","16","105712","0.0-1.0-1.13","../audio/prac-question-2-7.mp3"," ","","de","","","",""
"","1432","audio-keyboard-response","17","107444","0.0-1.0-1.14","../audio/prac-question-2-8.mp3"," ","","jantar.","","","",""
"","4395","html-keyboard-response","18","112096","0.0-1.0-2.14-0.14","<span style=""font-size:25px; font-family: monospace"">A caneca era colorida?</span>","s","","","A caneca era colorida?","null","prac-sent","false"
"[{""page_index"":0,""viewing_time"":8520}]","8520","instructions","19","121133","0.0-2.0","","","","","","","",""
"","null","html-keyboard-response","20","122252","0.0-3.0-0.0-0.0","<span style= ""font-size:30px; font-family: monospace"">+</span>","null","fixation","","","","",""
"","1949","audio-keyboard-response","21","124507","0.0-3.0-1.0","../audio/64-1-fem.mp3"," ","","O","","","",""
"","1192","audio-keyboard-response","22","126004","0.0-3.0-1.1","../audio/64-2-fem.mp3"," ","","dia","","","",""
"","1981","audio-keyboard-response","23","128282","0.0-3.0-1.2","../audio/64-3-fem.mp3"," ","","começou","","","",""
"","1309","audio-keyboard-response","24","129897","0.0-3.0-1.3","../audio/64-4-fem.mp3"," ","","com","","","",""
"","1600","audio-keyboard-response","25","131768","0.0-3.0-1.4","../audio/64-5-fem.mp3"," ","","garoa","","","",""
"","1661","audio-keyboard-response","26","133718","0.0-3.0-1.5","../audio/64-6-fem.mp3"," ","","gelada","","","",""
"","1192","audio-keyboard-response","27","135199","0.0-3.0-1.6","../audio/64-7-fem.mp3"," ","","e","","","",""
"","1811","audio-keyboard-response","28","137304","0.0-3.0-1.7","../audio/64-8-fem.mp3"," ","","leve.","","","",""
"","null","html-keyboard-response","29","138568","0.0-3.0-0.8-0.8","<span style= ""font-size:30px; font-family: monospace"">+</span>","null","fixation","","","","",""
"","1720","audio-keyboard-response","30","140643","0.0-3.0-1.8","../audio/61-1-fem.mp3"," ","","Aquele","","","",""
"","1821","audio-keyboard-response","31","142842","0.0-3.0-1.9","../audio/61-2-fem.mp3"," ","","senhor","","","",""
"","1019","audio-keyboard-response","32","144257","0.0-3.0-1.10","../audio/61-3-fem.mp3"," ","","é","","","",""
"","1360","audio-keyboard-response","33","145948","0.0-3.0-1.11","../audio/61-4-fem.mp3"," ","","muito","","","",""
"","1480","audio-keyboard-response","34","147781","0.0-3.0-1.12","../audio/61-5-fem.mp3"," ","","sovina","","","",""
"","1120","audio-keyboard-response","35","149246","0.0-3.0-1.13","../audio/61-6-fem.mp3"," ","","e","","","",""
"","1880","audio-keyboard-response","36","151453","0.0-3.0-1.14","../audio/61-7-fem.mp3"," ","","inflexível.","","","",""
"","null","html-keyboard-response","37","152722","0.0-3.0-0.15-0.15","<span style= ""font-size:30px; font-family: monospace"">+</span>","null","fixation","","","","",""
"","1429","audio-keyboard-response","38","154533","0.0-3.0-1.15","../audio/62-1-fem.mp3"," ","","As","","","",""
"","1528","audio-keyboard-response","39","156415","0.0-3.0-1.16","../audio/62-2-fem.mp3"," ","","artesãs","","","",""
"","1181","audio-keyboard-response","40","157918","0.0-3.0-1.17","../audio/62-3-fem.mp3"," ","","gostam","","","",""
"","1259","audio-keyboard-response","41","159503","0.0-3.0-1.18","../audio/62-4-fem.mp3"," ","","de","","","",""
"","1688","audio-keyboard-response","42","161529","0.0-3.0-1.19","../audio/62-5-fem.mp3"," ","","maquiagem","","","",""
"","1019","audio-keyboard-response","43","162898","0.0-3.0-1.20","../audio/62-6-fem.mp3"," ","","e","","","",""
"","1229","audio-keyboard-response","44","164466","0.0-3.0-1.21","../audio/62-7-fem.mp3"," ","","de","","","",""
"","1339","audio-keyboard-response","45","166137","0.0-3.0-1.22","../audio/62-8-fem.mp3"," ","","crochê.","","","",""
"","null","html-keyboard-response","46","167405","0.0-3.0-0.23-0.23","<span style= ""font-size:30px; font-family: monospace"">+</span>","null","fixation","","","","",""
"","1808","audio-keyboard-response","47","169573","0.0-3.0-1.23","../audio/63-1-fem.mp3"," ","","A","","","",""
"","1659","audio-keyboard-response","48","171623","0.0-3.0-1.24","../audio/63-2-fem.mp3"," ","","chuva","","","",""
"","1371","audio-keyboard-response","49","173327","0.0-3.0-1.25","../audio/63-3-fem.mp3"," ","","entrou","","","",""
"","1069","audio-keyboard-response","50","174736","0.0-3.0-1.26","../audio/63-4-fem.mp3"," ","","pela","","","",""
"","1488","audio-keyboard-response","51","176571","0.0-3.0-1.27","../audio/63-5-fem.mp3"," ","","abertura","","","",""
"","1429","audio-keyboard-response","52","178329","0.0-3.0-1.28","../audio/63-6-fem.mp3"," ","","na","","","",""
"","2771","audio-keyboard-response","53","181417","0.0-3.0-1.29","../audio/63-7-fem.mp3"," ","","janela.","","","",""
"","null","html-keyboard-response","54","182685","0.0-3.0-0.30-0.30","<span style= ""font-size:30px; font-family: monospace"">+</span>","null","fixation","","","","",""
"","1960","audio-keyboard-response","55","184940","0.0-3.0-1.30","../audio/65-1-masc.mp3"," ","","O","","","",""
"","1499","audio-keyboard-response","56","186747","0.0-3.0-1.31","../audio/65-2-masc.mp3"," ","","fantasma","","","",""
"","1352","audio-keyboard-response","57","188401","0.0-3.0-1.32","../audio/65-3-masc.mp3"," ","","veio","","","",""
"","941","audio-keyboard-response","58","189645","0.0-3.0-1.33","../audio/65-4-masc.mp3"," ","","da","","","",""
"","1712","audio-keyboard-response","59","191639","0.0-3.0-1.34","../audio/65-5-masc.mp3"," ","","escuridão","","","",""
"","1229","audio-keyboard-response","60","193168","0.0-3.0-1.35","../audio/65-6-masc.mp3"," ","","do","","","",""
"","1280","audio-keyboard-response","61","194740","0.0-3.0-1.36","../audio/65-7-masc.mp3"," ","","armário.","","","",""
"","5615","html-keyboard-response","62","200614","0.0-3.0-2.36-0.36","<span style=""font-size:25px; font-family: monospace"">O fantasma veio da escuridão do armário?</span>","s","","","O fantasma veio da escuridão do armário?","null","exp-sent","false"
"","null","html-keyboard-response","63","202132","0.0-3.0-0.37-0.37","<span style= ""font-size:30px; font-family: monospace"">+</span>","null","fixation","","","","",""
"","2051","audio-keyboard-response","64","204555","0.0-3.0-1.37","../audio/48-1-masc.mp3"," ","","Ela","","","",""
"","1099","audio-keyboard-response","65","206018","0.0-3.0-1.38","../audio/48-2-masc.mp3"," ","","come","","","",""
"","1061","audio-keyboard-response","66","207398","0.0-3.0-1.39","../audio/48-3-masc.mp3"," ","","feijão","","","",""
"","851","audio-keyboard-response","67","208561","0.0-3.0-1.40","../audio/48-4-masc.mp3"," ","","com","","","",""
"","1160","audio-keyboard-response","68","210078","0.0-3.0-1.41","../audio/48-5-masc.mp3"," ","","arroz","","","",""
"","1080","audio-keyboard-response","69","211500","0.0-3.0-1.42","../audio/48-6-masc.mp3"," ","","todos","","","",""
"","939","audio-keyboard-response","70","212808","0.0-3.0-1.43","../audio/48-7-masc.mp3"," ","","os","","","",""
"","1240","audio-keyboard-response","71","214419","0.0-3.0-1.44","../audio/48-8-masc.mp3"," ","","dias.","","","",""
"","null","html-keyboard-response","72","215686","0.0-3.0-0.45-0.45","<span style= ""font-size:30px; font-family: monospace"">+</span>","null","fixation","","","","",""
"","829","audio-keyboard-response","73","216907","0.0-3.0-1.45","../audio/47-1-masc.mp3"," ","","O","","","",""
"","1000","audio-keyboard-response","74","218246","0.0-3.0-1.46","../audio/47-2-masc.mp3"," ","","tio","","","",""
"","1280","audio-keyboard-response","75","219859","0.0-3.0-1.47","../audio/47-3-masc.mp3"," ","","recusou","","","",""
"","1040","audio-keyboard-response","76","221230","0.0-3.0-1.48","../audio/47-4-masc.mp3"," ","","a","","","",""
"","1451","audio-keyboard-response","77","223019","0.0-3.0-1.49","../audio/47-5-masc.mp3"," ","","sobremesa","","","",""
"","1139","audio-keyboard-response","78","224498","0.0-3.0-1.50","../audio/47-6-masc.mp3"," ","","no","","","",""
"","1229","audio-keyboard-response","79","226060","0.0-3.0-1.51","../audio/47-7-masc.mp3"," ","","almoço.","","","",""
"","null","html-keyboard-response","80","227333","0.0-3.0-0.52-0.52","<span style= ""font-size:30px; font-family: monospace"">+</span>","null","fixation","","","","",""
"","989","audio-keyboard-response","81","228618","0.0-3.0-1.52","../audio/46-1-masc.mp3"," ","","Meu","","","",""
"","971","audio-keyboard-response","82","229877","0.0-3.0-1.53","../audio/46-2-masc.mp3"," ","","primo","","","",""
"","1051","audio-keyboard-response","83","231220","0.0-3.0-1.54","../audio/46-3-masc.mp3"," ","","estava","","","",""
"","960","audio-keyboard-response","84","232485","0.0-3.0-1.55","../audio/46-4-masc.mp3"," ","","muito","","","",""
"","1229","audio-keyboard-response","85","234013","0.0-3.0-1.56","../audio/46-5-masc.mp3"," ","","deprimido","","","",""
"","1069","audio-keyboard-response","86","235386","0.0-3.0-1.57","../audio/46-6-masc.mp3"," ","","no","","","",""
"","1499","audio-keyboard-response","87","237177","0.0-3.0-1.58","../audio/46-7-masc.mp3"," ","","inverno.","","","",""
"","null","html-keyboard-response","88","238451","0.0-3.0-0.59-0.59","<span style= ""font-size:30px; font-family: monospace"">+</span>","null","fixation","","","","",""
"","1501","audio-keyboard-response","89","240312","0.0-3.0-1.59","../audio/49-1-fem.mp3"," ","","Eu","","","",""
"","1189","audio-keyboard-response","90","241829","0.0-3.0-1.60","../audio/49-2-fem.mp3"," ","","quero","","","",""
"","941","audio-keyboard-response","91","243114","0.0-3.0-1.61","../audio/49-3-fem.mp3"," ","","um","","","",""
"","1440","audio-keyboard-response","92","244883","0.0-3.0-1.62","../audio/49-4-fem.mp3"," ","","lanche","","","",""
"","1309","audio-keyboard-response","93","246530","0.0-3.0-1.63","../audio/49-5-fem.mp3"," ","","duplo","","","",""
"","909","audio-keyboard-response","94","247769","0.0-3.0-1.64","../audio/49-6-fem.mp3"," ","","e","","","",""
"","1299","audio-keyboard-response","95","249407","0.0-3.0-1.65","../audio/49-7-fem.mp3"," ","","um","","","",""
"","1371","audio-keyboard-response","96","251105","0.0-3.0-1.66","../audio/49-8-fem.mp3"," ","","suco.","","","",""
"","null","html-keyboard-response","97","252371","0.0-3.0-0.67-0.67","<span style= ""font-size:30px; font-family: monospace"">+</span>","null","fixation","","","","",""
"","851","audio-keyboard-response","98","253593","0.0-3.0-1.67","../audio/50-1-fem.mp3"," ","","O","","","",""
"","1581","audio-keyboard-response","99","255509","0.0-3.0-1.68","../audio/50-2-fem.mp3"," ","","pássaro","","","",""
"","1189","audio-keyboard-response","100","257050","0.0-3.0-1.69","../audio/50-3-fem.mp3"," ","","fugiu","","","",""
"","1131","audio-keyboard-response","101","258516","0.0-3.0-1.70","../audio/50-4-fem.mp3"," ","","da","","","",""
"","1360","audio-keyboard-response","102","260211","0.0-3.0-1.71","../audio/50-5-fem.mp3"," ","","gaiola","","","",""
"","992","audio-keyboard-response","103","261520","0.0-3.0-1.72","../audio/50-6-fem.mp3"," ","","pela","","","",""
"","1549","audio-keyboard-response","104","263408","0.0-3.0-1.73","../audio/50-7-fem.mp3"," ","","portinhola.","","","",""
"","11466","html-keyboard-response","105","275128","0.0-3.0-2.73-0.73","<span style=""font-size:25px; font-family: monospace"">O pássaro fugiu da gaiola?</span>","n","","","O pássaro fugiu da gaiola?","null","exp-sent","false"
"","null","html-keyboard-response","106","276651","0.0-3.0-0.74-0.74","<span style= ""font-size:30px; font-family: monospace"">+</span>","null","fixation","","","","",""
"","1109","audio-keyboard-response","107","278102","0.0-3.0-1.74","../audio/19-1-fem.mp3"," ","","O","","","",""
"","1549","audio-keyboard-response","108","279989","0.0-3.0-1.75","../audio/19-2-fem.mp3"," ","","menino","","","",""
"","1339","audio-keyboard-response","109","281664","0.0-3.0-1.76","../audio/19-3-fem.mp3"," ","","ganhou","","","",""
"","1272","audio-keyboard-response","110","283279","0.0-3.0-1.77","../audio/19-4-fem.mp3"," ","","uma","","","",""
"","1549","audio-keyboard-response","111","285177","0.0-3.0-1.78","../audio/19-5-fem.mp3"," ","","bala","","","",""
"","1619","audio-keyboard-response","112","287128","0.0-3.0-1.79","../audio/19-6-fem.mp3"," ","","depois","","","",""
"","1291","audio-keyboard-response","113","288750","0.0-3.0-1.80","../audio/19-7-fem.mp3"," ","","do","","","",""
"","1491","audio-keyboard-response","114","290558","0.0-3.0-1.81","../audio/19-8-fem.mp3"," ","","almoço.","","","",""
"","null","html-keyboard-response","115","291834","0.0-3.0-0.82-0.82","<span style= ""font-size:30px; font-family: monospace"">+</span>","null","fixation","","","","",""
"","1320","audio-keyboard-response","116","293507","0.0-3.0-1.82","../audio/16-1-masc.mp3"," ","","Eu","","","",""
"","1480","audio-keyboard-response","117","295328","0.0-3.0-1.83","../audio/16-2-masc.mp3"," ","","nunca","","","",""
"","1280","audio-keyboard-response","118","296942","0.0-3.0-1.84","../audio/16-3-masc.mp3"," ","","conheci","","","",""
"","1109","audio-keyboard-response","119","298393","0.0-3.0-1.85","../audio/16-4-masc.mp3"," ","","um","","","",""
"","1461","audio-keyboard-response","120","300196","0.0-3.0-1.86","../audio/16-5-masc.mp3"," ","","general","","","",""
"","1040","audio-keyboard-response","121","301563","0.0-3.0-1.87","../audio/16-6-masc.mp3"," ","","do","","","",""
"","1491","audio-keyboard-response","122","303395","0.0-3.0-1.88","../audio/16-7-masc.mp3"," ","","exército.","","","",""
"","null","html-keyboard-response","123","304658","0.0-3.0-0.89-0.89","<span style= ""font-size:30px; font-family: monospace"">+</span>","null","fixation","","","","",""
"","960","audio-keyboard-response","124","305908","0.0-3.0-1.89","../audio/18-1-masc.mp3"," ","","O","","","",""
"","1349","audio-keyboard-response","125","307547","0.0-3.0-1.90","../audio/18-2-masc.mp3"," ","","enredo","","","",""
"","1509","audio-keyboard-response","126","309353","0.0-3.0-1.91","../audio/18-3-masc.mp3"," ","","traz","","","",""
"","1440","audio-keyboard-response","127","311100","0.0-3.0-1.92","../audio/18-4-masc.mp3"," ","","um","","","",""
"","1499","audio-keyboard-response","128","312888","0.0-3.0-1.93","../audio/18-5-masc.mp3"," ","","dragão","","","",""
"","1469","audio-keyboard-response","129","314652","0.0-3.0-1.94","../audio/18-6-masc.mp3"," ","","forte","","","",""
"","1421","audio-keyboard-response","130","316359","0.0-3.0-1.95","../audio/18-7-masc.mp3"," ","","e","","","",""
"","1661","audio-keyboard-response","131","318325","0.0-3.0-1.96","../audio/18-8-masc.mp3"," ","","solitário.","","","",""
"","null","html-keyboard-response","132","319588","0.0-3.0-0.97-0.97","<span style= ""font-size:30px; font-family: monospace"">+</span>","null","fixation","","","","",""
"","1459","audio-keyboard-response","133","321338","0.0-3.0-1.97","../audio/17-1-masc.mp3"," ","","Falaram","","","",""
"","1000","audio-keyboard-response","134","322646","0.0-3.0-1.98","../audio/17-2-masc.mp3"," ","","da","","","",""
"","1160","audio-keyboard-response","135","324102","0.0-3.0-1.99","../audio/17-3-masc.mp3"," ","","lei","","","",""
"","1069","audio-keyboard-response","136","325458","0.0-3.0-1.100","../audio/17-4-masc.mp3"," ","","no","","","",""
"","1400","audio-keyboard-response","137","327153","0.0-3.0-1.101","../audio/17-5-masc.mp3"," ","","ministério","","","",""
"","1171","audio-keyboard-response","138","328598","0.0-3.0-1.102","../audio/17-6-masc.mp3"," ","","diversas","","","",""
"","1088","audio-keyboard-response","139","329976","0.0-3.0-1.103","../audio/17-7-masc.mp3"," ","","vezes.","","","",""
"","null","html-keyboard-response","140","331251","0.0-3.0-0.104-0.104","<span style= ""font-size:30px; font-family: monospace"">+</span>","null","fixation","","","","",""
"","779","audio-keyboard-response","141","332306","0.0-3.0-1.104","../audio/20-1-masc.mp3"," ","","O","","","",""
"","920","audio-keyboard-response","142","333526","0.0-3.0-1.105","../audio/20-2-masc.mp3"," ","","colega","","","",""
"","941","audio-keyboard-response","143","334766","0.0-3.0-1.106","../audio/20-3-masc.mp3"," ","","parecia","","","",""
"","1091","audio-keyboard-response","144","336149","0.0-3.0-1.107","../audio/20-4-masc.mp3"," ","","muito","","","",""
"","1448","audio-keyboard-response","145","337890","0.0-3.0-1.108","../audio/20-5-masc.mp3"," ","","gripado","","","",""
"","1139","audio-keyboard-response","146","339328","0.0-3.0-1.109","../audio/20-6-masc.mp3"," ","","no","","","",""
"","979","audio-keyboard-response","147","340614","0.0-3.0-1.110","../audio/20-7-masc.mp3"," ","","dia","","","",""
"","1560","audio-keyboard-response","148","342474","0.0-3.0-1.111","../audio/20-8-masc.mp3"," ","","anterior.","","","",""
"","11430","html-keyboard-response","149","354163","0.0-3.0-2.111-0.111","<span style=""font-size:25px; font-family: monospace"">O colega parecia muito gripado?</span>","s","","","O colega parecia muito gripado?","null","exp-sent","false"
"","null","html-keyboard-response","150","355677","0.0-3.0-0.112-0.112","<span style= ""font-size:30px; font-family: monospace"">+</span>","null","fixation","","","","",""
"","192","audio-keyboard-response","151","356159","0.0-3.0-1.112","../audio/09-1-masc.mp3"," ","","O","","","",""
"","1421","audio-keyboard-response","152","357879","0.0-3.0-1.113","../audio/09-2-masc.mp3"," ","","rapaz","","","",""
"","1301","audio-keyboard-response","153","359471","0.0-3.0-1.114","../audio/09-3-masc.mp3"," ","","limpou","","","",""
"","971","audio-keyboard-response","154","360742","0.0-3.0-1.115","../audio/09-4-masc.mp3"," ","","o","","","",""
"","1059","audio-keyboard-response","155","362093","0.0-3.0-1.116","../audio/09-5-masc.mp3"," ","","terreno","","","",""
"","1179","audio-keyboard-response","156","363576","0.0-3.0-1.117","../audio/09-6-masc.mp3"," ","","com","","","",""
"","1139","audio-keyboard-response","157","365008","0.0-3.0-1.118","../audio/09-7-masc.mp3"," ","","uma","","","",""
"","1011","audio-keyboard-response","158","366324","0.0-3.0-1.119","../audio/09-8-masc.mp3"," ","","pá.","","","",""
"","null","html-keyboard-response","159","367587","0.0-3.0-0.120-0.120","<span style= ""font-size:30px; font-family: monospace"">+</span>","null","fixation","","","","",""
"","1339","audio-keyboard-response","160","369293","0.0-3.0-1.120","../audio/08-1-fem.mp3"," ","","A","","","",""
"","1419","audio-keyboard-response","161","371054","0.0-3.0-1.121","../audio/08-2-fem.mp3"," ","","receita","","","",""
"","1360","audio-keyboard-response","162","372742","0.0-3.0-1.122","../audio/08-3-fem.mp3"," ","","pede","","","",""
"","1109","audio-keyboard-response","163","374179","0.0-3.0-1.123","../audio/08-4-fem.mp3"," ","","um","","","",""
"","1459","audio-keyboard-response","164","375983","0.0-3.0-1.124","../audio/08-5-fem.mp3"," ","","litro","","","",""
"","1099","audio-keyboard-response","165","377409","0.0-3.0-1.125","../audio/08-6-fem.mp3"," ","","de","","","",""
"","1091","audio-keyboard-response","166","378839","0.0-3.0-1.126","../audio/08-7-fem.mp3"," ","","leite","","","",""
"","1560","audio-keyboard-response","167","380732","0.0-3.0-1.127","../audio/08-8-fem.mp3"," ","","integral.","","","",""
"","null","html-keyboard-response","168","381991","0.0-3.0-0.128-0.128","<span style= ""font-size:30px; font-family: monospace"">+</span>","null","fixation","","","","",""
"","928","audio-keyboard-response","169","383215","0.0-3.0-1.128","../audio/07-1-masc.mp3"," ","","Meu","","","",""
"","1160","audio-keyboard-response","170","384679","0.0-3.0-1.129","../audio/07-2-masc.mp3"," ","","filho","","","",""
"","1101","audio-keyboard-response","171","386076","0.0-3.0-1.130","../audio/07-3-masc.mp3"," ","","é","","","",""
"","1171","audio-keyboard-response","172","387553","0.0-3.0-1.131","../audio/07-4-masc.mp3"," ","","muito","","","",""
"","1411","audio-keyboard-response","173","389229","0.0-3.0-1.132","../audio/07-5-masc.mp3"," ","","responsável","","","",""
"","1208","audio-keyboard-response","174","390733","0.0-3.0-1.133","../audio/07-6-masc.mp3"," ","","nos","","","",""
"","1349","audio-keyboard-response","175","392377","0.0-3.0-1.134","../audio/07-7-masc.mp3"," ","","estudos.","","","",""
"","null","html-keyboard-response","176","393654","0.0-3.0-0.135-0.135","<span style= ""font-size:30px; font-family: monospace"">+</span>","null","fixation","","","","",""
"","1259","audio-keyboard-response","177","395296","0.0-3.0-1.135","../audio/06-1-masc.mp3"," ","","Ouvimos","","","",""
"","1032","audio-keyboard-response","178","396642","0.0-3.0-1.136","../audio/06-2-masc.mp3"," ","","a","","","",""
"","1211","audio-keyboard-response","179","398177","0.0-3.0-1.137","../audio/06-3-masc.mp3"," ","","fala","","","",""
"","1189","audio-keyboard-response","180","399688","0.0-3.0-1.138","../audio/06-4-masc.mp3"," ","","do","","","",""
"","1189","audio-keyboard-response","181","401196","0.0-3.0-1.139","../audio/06-5-masc.mp3"," ","","profeta","","","",""
"","1032","audio-keyboard-response","182","402563","0.0-3.0-1.140","../audio/06-6-masc.mp3"," ","","no","","","",""
"","1259","audio-keyboard-response","183","404147","0.0-3.0-1.141","../audio/06-7-masc.mp3"," ","","púlpito","","","",""
"","1000","audio-keyboard-response","184","405480","0.0-3.0-1.142","../audio/06-8-masc.mp3"," ","","da","","","",""
"","1192","audio-keyboard-response","185","406999","0.0-3.0-1.143","../audio/06-9-masc.mp3"," ","","igreja.","","","",""
"","null","html-keyboard-response","186","408267","0.0-3.0-0.144-0.144","<span style= ""font-size:30px; font-family: monospace"">+</span>","null","fixation","","","","",""
"","869","audio-keyboard-response","187","409503","0.0-3.0-1.144","../audio/10-1-fem.mp3"," ","","O","","","",""
"","1200","audio-keyboard-response","188","411030","0.0-3.0-1.145","../audio/10-2-fem.mp3"," ","","pássaro","","","",""
"","1171","audio-keyboard-response","189","412544","0.0-3.0-1.146","../audio/10-3-fem.mp3"," ","","azul","","","",""
"","1360","audio-keyboard-response","190","414228","0.0-3.0-1.147","../audio/10-4-fem.mp3"," ","","estava","","","",""
"","1200","audio-keyboard-response","191","415777","0.0-3.0-1.148","../audio/10-5-fem.mp3"," ","","vivo","","","",""
"","1069","audio-keyboard-response","192","417184","0.0-3.0-1.149","../audio/10-6-fem.mp3"," ","","e","","","",""
"","1131","audio-keyboard-response","193","418646","0.0-3.0-1.150","../audio/10-7-fem.mp3"," ","","em","","","",""
"","1221","audio-keyboard-response","194","420198","0.0-3.0-1.151","../audio/10-8-fem.mp3"," ","","segurança.","","","",""
"","8146","html-keyboard-response","195","428598","0.0-3.0-2.151-0.151","<span style=""font-size:25px; font-family: monospace"">O pássaro vermelho estava em segurança?</span>","s","","","O pássaro vermelho estava em segurança?","null","exp-sent","false"
"","null","html-keyboard-response","196","430123","0.0-3.0-0.152-0.152","<span style= ""font-size:30px; font-family: monospace"">+</span>","null","fixation","","","","",""
"","941","audio-keyboard-response","197","431442","0.0-3.0-1.152","../audio/02-2-fem.mp3"," ","","Havia","","","",""
"","960","audio-keyboard-response","198","432657","0.0-3.0-1.153","../audio/02-2-fem.mp3"," ","","um","","","",""
"","1179","audio-keyboard-response","199","434217","0.0-3.0-1.154","../audio/02-3-fem.mp3"," ","","cheiro","","","",""
"","960","audio-keyboard-response","200","435511","0.0-3.0-1.155","../audio/02-4-fem.mp3"," ","","de","","","",""
"","832","audio-keyboard-response","201","436685","0.0-3.0-1.156","../audio/02-5-fem.mp3"," ","","gasolina","","","",""
"","1339","audio-keyboard-response","202","438340","0.0-3.0-1.157","../audio/02-6-fem.mp3"," ","","na","","","",""
"","1179","audio-keyboard-response","203","439818","0.0-3.0-1.158","../audio/02-7-fem.mp3"," ","","garagem.","","","",""
"","null","html-keyboard-response","204","441080","0.0-3.0-0.159-0.159","<span style= ""font-size:30px; font-family: monospace"">+</span>","null","fixation","","","","",""
"","749","audio-keyboard-response","205","442211","0.0-3.0-1.159","../audio/03-1-fem.mp3"," ","","O","","","",""
"","960","audio-keyboard-response","206","443501","0.0-3.0-1.160","../audio/03-2-fem.mp3"," ","","coelho","","","",""
"","1048","audio-keyboard-response","207","444893","0.0-3.0-1.161","../audio/03-3-fem.mp3"," ","","foi","","","",""
"","1520","audio-keyboard-response","208","446738","0.0-3.0-1.162","../audio/03-4-fem.mp3"," ","","bastante","","","",""
"","1080","audio-keyboard-response","209","448139","0.0-3.0-1.163","../audio/03-5-fem.mp3"," ","","dócil","","","",""
"","1189","audio-keyboard-response","210","449665","0.0-3.0-1.164","../audio/03-6-fem.mp3"," ","","com","","","",""
"","1829","audio-keyboard-response","211","451835","0.0-3.0-1.165","../audio/03-7-fem.mp3"," ","","as","","","",""
"","1520","audio-keyboard-response","212","453757","0.0-3.0-1.166","../audio/03-8-fem.mp3"," ","","crianças.","","","",""
"","null","html-keyboard-response","213","455031","0.0-3.0-0.167-0.167","<span style= ""font-size:30px; font-family: monospace"">+</span>","null","fixation","","","","",""
"","701","audio-keyboard-response","214","456037","0.0-3.0-1.167","../audio/01-1-fem.mp3"," ","","O","","","",""
"","1520","audio-keyboard-response","215","457855","0.0-3.0-1.168","../audio/01-2-fem.mp3"," ","","menino","","","",""
"","51","audio-keyboard-response","216","458191","0.0-3.0-1.169","../audio/01-3-fem.mp3"," ","","derrubou","","","",""
"","989","audio-keyboard-response","217","459468","0.0-3.0-1.170","../audio/01-4-fem.mp3"," ","","a","","","",""
"","1509","audio-keyboard-response","218","461270","0.0-3.0-1.171","../audio/01-5-fem.mp3"," ","","guitarra","","","",""
"","1149","audio-keyboard-response","219","462712","0.0-3.0-1.172","../audio/01-6-fem.mp3"," ","","no","","","",""
"","1320","audio-keyboard-response","220","464318","0.0-3.0-1.173","../audio/01-7-fem.mp3"," ","","chão.","","","",""
"","null","html-keyboard-response","221","465597","0.0-3.0-0.174-0.174","<span style= ""font-size:30px; font-family: monospace"">+</span>","null","fixation","","","","",""
"","1411","audio-keyboard-response","222","467338","0.0-3.0-1.174","../audio/04-1-fem.mp3"," ","","Duzentos","","","",""
"","1208","audio-keyboard-response","223","468890","0.0-3.0-1.175","../audio/04-2-fem.mp3"," ","","carros","","","",""
"","1440","audio-keyboard-response","224","470648","0.0-3.0-1.176","../audio/04-3-fem.mp3"," ","","passaram","","","",""
"","1029","audio-keyboard-response","225","472027","0.0-3.0-1.177","../audio/04-4-fem.mp3"," ","","pela","","","",""
"","1109","audio-keyboard-response","226","473472","0.0-3.0-1.178","../audio/04-5-fem.mp3"," ","","ponte","","","",""
"","1051","audio-keyboard-response","227","474858","0.0-3.0-1.179","../audio/04-6-fem.mp3"," ","","hoje","","","",""
"","931","audio-keyboard-response","228","476123","0.0-3.0-1.180","../audio/04-7-fem.mp3"," ","","de","","","",""
"","1120","audio-keyboard-response","229","477585","0.0-3.0-1.181","../audio/04-8-fem.mp3"," ","","tarde.","","","",""
"","null","html-keyboard-response","230","478857","0.0-3.0-0.182-0.182","<span style= ""font-size:30px; font-family: monospace"">+</span>","null","fixation","","","","",""
"","779","audio-keyboard-response","231","480016","0.0-3.0-1.182","../audio/05-1-fem.mp3"," ","","A","","","",""
"","1451","audio-keyboard-response","232","481805","0.0-3.0-1.183","../audio/05-2-fem.mp3"," ","","vendedora","","","",""
"","1229","audio-keyboard-response","233","483355","0.0-3.0-1.184","../audio/05-3-fem.mp3"," ","","ajudou","","","",""
"","1400","audio-keyboard-response","234","485094","0.0-3.0-1.185","../audio/05-4-fem.mp3"," ","","um","","","",""
"","1469","audio-keyboard-response","235","486902","0.0-3.0-1.186","../audio/05-5-fem.mp3"," ","","turista","","","",""
"","1291","audio-keyboard-response","236","488518","0.0-3.0-1.187","../audio/05-6-fem.mp3"," ","","na","","","",""
"","1811","audio-keyboard-response","237","490664","0.0-3.0-1.188","../audio/05-7-fem.mp3"," ","","loja.","","","",""
"","8584","html-keyboard-response","238","499511","0.0-3.0-2.188-0.188","<span style=""font-size:25px; font-family: monospace"">A vendedora ajudou um turista?</span>","s","","","A vendedora ajudou um turista?","null","exp-sent","false"
"","null","html-keyboard-response","239","501027","0.0-3.0-0.189-0.189","<span style= ""font-size:30px; font-family: monospace"">+</span>","null","fixation","","","","",""
"","768","audio-keyboard-response","240","502174","0.0-3.0-1.189","../audio/53-1-fem.mp3"," ","","O","","","",""
"","971","audio-keyboard-response","241","503472","0.0-3.0-1.190","../audio/53-2-fem.mp3"," ","","médico","","","",""
"","1221","audio-keyboard-response","242","505030","0.0-3.0-1.191","../audio/53-3-fem.mp3"," ","","foi","","","",""
"","1651","audio-keyboard-response","243","507005","0.0-3.0-1.192","../audio/53-4-fem.mp3"," ","","bastante","","","",""
"","80","audio-keyboard-response","244","507417","0.0-3.0-1.193","../audio/53-5-fem.mp3"," ","","preciso","","","",""
"","1339","audio-keyboard-response","245","509058","0.0-3.0-1.194","../audio/53-6-fem.mp3"," ","","durante","","","",""
"","811","audio-keyboard-response","246","510189","0.0-3.0-1.195","../audio/53-7-fem.mp3"," ","","a","","","",""
"","1600","audio-keyboard-response","247","512131","0.0-3.0-1.196","../audio/53-8-fem.mp3"," ","","cirurgia.","","","",""
"","null","html-keyboard-response","248","513393","0.0-3.0-0.197-0.197","<span style= ""font-size:30px; font-family: monospace"">+</span>","null","fixation","","","","",""
"","1531","audio-keyboard-response","249","515218","0.0-3.0-1.197","../audio/51-1-fem.mp3"," ","","Suco","","","",""
"","1139","audio-keyboard-response","250","516651","0.0-3.0-1.198","../audio/51-2-fem.mp3"," ","","de","","","",""
"","1760","audio-keyboard-response","251","518715","0.0-3.0-1.199","../audio/51-3-fem.mp3"," ","","acerola","","","",""
"","1131","audio-keyboard-response","252","520115","0.0-3.0-1.200","../audio/51-4-fem.mp3"," ","","é","","","",""
"","1611","audio-keyboard-response","253","522000","0.0-3.0-1.201","../audio/51-5-fem.mp3"," ","","azedo","","","",""
"","1128","audio-keyboard-response","254","523415","0.0-3.0-1.202","../audio/51-6-fem.mp3"," ","","e","","","",""
"","1229","audio-keyboard-response","255","524945","0.0-3.0-1.203","../audio/51-7-fem.mp3"," ","","até","","","",""
"","1491","audio-keyboard-response","256","526744","0.0-3.0-1.204","../audio/51-8-fem.mp3"," ","","barato.","","","",""
"","null","html-keyboard-response","257","528009","0.0-3.0-0.205-0.205","<span style= ""font-size:30px; font-family: monospace"">+</span>","null","fixation","","","","",""
"","1232","audio-keyboard-response","258","529525","0.0-3.0-1.205","../audio/54-1-fem.mp3"," ","","Estou","","","",""
"","931","audio-keyboard-response","259","530757","0.0-3.0-1.206","../audio/54-2-fem.mp3"," ","","com","","","",""
"","1291","audio-keyboard-response","260","532351","0.0-3.0-1.207","../audio/54-3-fem.mp3"," ","","medo","","","",""
"","1000","audio-keyboard-response","261","533649","0.0-3.0-1.208","../audio/54-4-fem.mp3"," ","","da","","","",""
"","1328","audio-keyboard-response","262","535296","0.0-3.0-1.209","../audio/54-5-fem.mp3"," ","","atual","","","",""
"","1808","audio-keyboard-response","263","537414","0.0-3.0-1.210","../audio/54-6-fem.mp3"," ","","organização","","","",""
"","1069","audio-keyboard-response","264","538784","0.0-3.0-1.211","../audio/54-7-fem.mp3"," ","","do","","","",""
"","1680","audio-keyboard-response","265","540754","0.0-3.0-1.212","../audio/54-8-fem.mp3"," ","","país.","","","",""
"","null","html-keyboard-response","266","542030","0.0-3.0-0.213-0.213","<span style= ""font-size:30px; font-family: monospace"">+</span>","null","fixation","","","","",""
"","1368","audio-keyboard-response","267","543693","0.0-3.0-1.213","../audio/52-1-masc.mp3"," ","","Às","","","",""
"","1331","audio-keyboard-response","268","545317","0.0-3.0-1.214","../audio/52-2-masc.mp3"," ","","vezes","","","",""
"","1192","audio-keyboard-response","269","546797","0.0-3.0-1.215","../audio/52-3-masc.mp3"," ","","eu","","","",""
"","1181","audio-keyboard-response","270","548274","0.0-3.0-1.216","../audio/52-4-masc.mp3"," ","","tenho","","","",""
"","1371","audio-keyboard-response","271","549940","0.0-3.0-1.217","../audio/52-5-masc.mp3"," ","","azia","","","",""
"","1168","audio-keyboard-response","272","551410","0.0-3.0-1.218","../audio/52-6-masc.mp3"," ","","depois","","","",""
"","1011","audio-keyboard-response","273","552711","0.0-3.0-1.219","../audio/52-7-masc.mp3"," ","","da","","","",""
"","1488","audio-keyboard-response","274","554495","0.0-3.0-1.220","../audio/52-8-masc.mp3"," ","","janta.","","","",""
"","null","html-keyboard-response","275","555760","0.0-3.0-0.221-0.221","<span style= ""font-size:30px; font-family: monospace"">+</span>","null","fixation","","","","",""
"","1240","audio-keyboard-response","276","557378","0.0-3.0-1.221","../audio/55-1-fem.mp3"," ","","O","","","",""
"","1560","audio-keyboard-response","277","559268","0.0-3.0-1.222","../audio/55-2-fem.mp3"," ","","insulto","","","",""
"","1211","audio-keyboard-response","278","560825","0.0-3.0-1.223","../audio/55-3-fem.mp3"," ","","recente","","","",""
"","2040","audio-keyboard-response","279","563191","0.0-3.0-1.224","../audio/55-4-fem.mp3"," ","","causou","","","",""
"","2528","audio-keyboard-response","280","566089","0.0-3.0-1.225","../audio/55-5-fem.mp3"," ","","indignação","","","",""
"","2640","audio-keyboard-response","281","569086","0.0-3.0-1.226","../audio/55-6-fem.mp3"," ","","em","","","",""
"","1352","audio-keyboard-response","282","570799","0.0-3.0-1.227","../audio/55-7-fem.mp3"," ","","todos.","","","",""
"","5186","html-keyboard-response","283","576244","0.0-3.0-2.227-0.227","<span style=""font-size:25px; font-family: monospace"">O insulto causou calmaria?</span>","n","","","O insulto causou calmaria?","null","exp-sent","false"
"","null","html-keyboard-response","284","577763","0.0-3.0-0.228-0.228","<span style= ""font-size:30px; font-family: monospace"">+</span>","null","fixation","","","","",""
"","981","audio-keyboard-response","285","579111","0.0-3.0-1.228","../audio/79-1-masc.mp3"," ","","A","","","",""
"","1261","audio-keyboard-response","286","580726","0.0-3.0-1.229","../audio/79-2-masc.mp3"," ","","médica","","","",""
"","1509","audio-keyboard-response","287","582569","0.0-3.0-1.230","../audio/79-3-masc.mp3"," ","","verificou","","","",""
"","1379","audio-keyboard-response","288","584262","0.0-3.0-1.231","../audio/79-4-masc.mp3"," ","","a","","","",""
"","2008","audio-keyboard-response","289","586616","0.0-3.0-1.232","../audio/79-5-masc.mp3"," ","","gengiva","","","",""
"","1699","audio-keyboard-response","290","588689","0.0-3.0-1.233","../audio/79-6-masc.mp3"," ","","por","","","",""
"","1469","audio-keyboard-response","291","590545","0.0-3.0-1.234","../audio/79-7-masc.mp3"," ","","último.","","","",""
"","null","html-keyboard-response","292","591808","0.0-3.0-0.235-0.235","<span style= ""font-size:30px; font-family: monospace"">+</span>","null","fixation","","","","",""
"","1981","audio-keyboard-response","293","594076","0.0-3.0-1.235","../audio/76-1-fem.mp3"," ","","O","","","",""
"","1541","audio-keyboard-response","294","595926","0.0-3.0-1.236","../audio/76-2-fem.mp3"," ","","bisavô","","","",""
"","1781","audio-keyboard-response","295","598005","0.0-3.0-1.237","../audio/76-3-fem.mp3"," ","","comprou","","","",""
"","1741","audio-keyboard-response","296","600041","0.0-3.0-1.238","../audio/76-4-fem.mp3"," ","","um","","","",""
"","1619","audio-keyboard-response","297","601971","0.0-3.0-1.239","../audio/76-5-fem.mp3"," ","","ralador","","","",""
"","1080","audio-keyboard-response","298","603332","0.0-3.0-1.240","../audio/76-6-fem.mp3"," ","","de","","","",""
"","1579","audio-keyboard-response","299","605212","0.0-3.0-1.241","../audio/76-7-fem.mp3"," ","","queijo.","","","",""
"","null","html-keyboard-response","300","606480","0.0-3.0-0.242-0.242","<span style= ""font-size:30px; font-family: monospace"">+</span>","null","fixation","","","","",""
"","1349","audio-keyboard-response","301","608157","0.0-3.0-1.242","../audio/78-1-fem.mp3"," ","","Eles","","","",""
"","1371","audio-keyboard-response","302","609876","0.0-3.0-1.243","../audio/78-2-fem.mp3"," ","","trazem","","","",""
"","1381","audio-keyboard-response","303","611589","0.0-3.0-1.244","../audio/78-3-fem.mp3"," ","","um","","","",""
"","1501","audio-keyboard-response","304","613431","0.0-3.0-1.245","../audio/78-4-fem.mp3"," ","","fato","","","",""
"","1459","audio-keyboard-response","305","615219","0.0-3.0-1.246","../audio/78-5-fem.mp3"," ","","urgente","","","",""
"","1219","audio-keyboard-response","306","616779","0.0-3.0-1.247","../audio/78-6-fem.mp3"," ","","todos","","","",""
"","1379","audio-keyboard-response","307","618499","0.0-3.0-1.248","../audio/78-7-fem.mp3"," ","","os","","","",""
"","1571","audio-keyboard-response","308","620387","0.0-3.0-1.249","../audio/78-8-fem.mp3"," ","","dias.","","","",""
"","null","html-keyboard-response","309","621661","0.0-3.0-0.250-0.250","<span style= ""font-size:30px; font-family: monospace"">+</span>","null","fixation","","","","",""
"","1080","audio-keyboard-response","310","623031","0.0-3.0-1.250","../audio/77-1-masc.mp3"," ","","A","","","",""
"","1320","audio-keyboard-response","311","624653","0.0-3.0-1.251","../audio/77-2-masc.mp3"," ","","criança","","","",""
"","1109","audio-keyboard-response","312","626057","0.0-3.0-1.252","../audio/77-3-masc.mp3"," ","","ficou","","","",""
"","1379","audio-keyboard-response","313","627729","0.0-3.0-1.253","../audio/77-4-masc.mp3"," ","","muito","","","",""
"","1491","audio-keyboard-response","314","629499","0.0-3.0-1.254","../audio/77-5-masc.mp3"," ","","feliz","","","",""
"","899","audio-keyboard-response","315","630695","0.0-3.0-1.255","../audio/77-6-masc.mp3"," ","","com","","","",""
"","1109","audio-keyboard-response","316","632097","0.0-3.0-1.256","../audio/77-7-masc.mp3"," ","","o","","","",""
"","1931","audio-keyboard-response","317","634325","0.0-3.0-1.257","../audio/77-8-masc.mp3"," ","","brinquedo.","","","",""
"","null","html-keyboard-response","318","635602","0.0-3.0-0.258-0.258","<span style= ""font-size:30px; font-family: monospace"">+</span>","null","fixation","","","","",""
"","989","audio-keyboard-response","319","636871","0.0-3.0-1.258","../audio/80-1-fem.mp3"," ","","Meu","","","",""
"","968","audio-keyboard-response","320","638130","0.0-3.0-1.259","../audio/80-2-fem.mp3"," ","","primo","","","",""
"","1531","audio-keyboard-response","321","639946","0.0-3.0-1.260","../audio/80-3-fem.mp3"," ","","conheceu","","","",""
"","928","audio-keyboard-response","322","641174","0.0-3.0-1.261","../audio/80-4-fem.mp3"," ","","um","","","",""
"","1248","audio-keyboard-response","323","642736","0.0-3.0-1.262","../audio/80-5-fem.mp3"," ","","jovem","","","",""
"","1501","audio-keyboard-response","324","644518","0.0-3.0-1.263","../audio/80-6-fem.mp3"," ","","amável","","","",""
"","971","audio-keyboard-response","325","645787","0.0-3.0-1.264","../audio/80-7-fem.mp3"," ","","e","","","",""
"","1112","audio-keyboard-response","326","647200","0.0-3.0-1.265","../audio/80-8-fem.mp3"," ","","confiante.","","","",""
"","9956","html-keyboard-response","327","657409","0.0-3.0-2.265-0.265","<span style=""font-size:25px; font-family: monospace"">O primo conheceu um jovem irritante?</span>","s","","","O primo conheceu um jovem irritante?","null","exp-sent","false"
"","null","html-keyboard-response","328","658921","0.0-3.0-0.266-0.266","<span style= ""font-size:30px; font-family: monospace"">+</span>","null","fixation","","","","",""
"","960","audio-keyboard-response","329","661119","0.0-3.0-1.266","../audio/69-1-masc.mp3"," ","","A","","","",""
"","1269","audio-keyboard-response","330","662732","0.0-3.0-1.267","../audio/69-2-masc.mp3"," ","","loja","","","",""
"","1339","audio-keyboard-response","331","664407","0.0-3.0-1.268","../audio/69-3-masc.mp3"," ","","recebeu","","","",""
"","949","audio-keyboard-response","332","665689","0.0-3.0-1.269","../audio/69-4-masc.mp3"," ","","uma","","","",""
"","880","audio-keyboard-response","333","666917","0.0-3.0-1.270","../audio/69-5-masc.mp3"," ","","poltrona","","","",""
"","920","audio-keyboard-response","334","668175","0.0-3.0-1.271","../audio/69-6-masc.mp3"," ","","de","","","",""
"","1048","audio-keyboard-response","335","669536","0.0-3.0-1.272","../audio/69-7-masc.mp3"," ","","couro","","","",""
"","1149","audio-keyboard-response","336","671017","0.0-3.0-1.273","../audio/69-8-masc.mp3"," ","","preto.","","","",""
"","null","html-keyboard-response","337","672291","0.0-3.0-0.274-0.274","<span style= ""font-size:30px; font-family: monospace"">+</span>","null","fixation","","","","",""
"","1101","audio-keyboard-response","338","673758","0.0-3.0-1.274","../audio/68-1-fem.mp3"," ","","Meu","","","",""
"","1051","audio-keyboard-response","339","675156","0.0-3.0-1.275","../audio/68-2-fem.mp3"," ","","irmão","","","",""
"","1099","audio-keyboard-response","340","676585","0.0-3.0-1.276","../audio/68-3-fem.mp3"," ","","teve","","","",""
"","1000","audio-keyboard-response","341","677907","0.0-3.0-1.277","../audio/68-4-fem.mp3"," ","","um","","","",""
"","1120","audio-keyboard-response","342","679393","0.0-3.0-1.278","../audio/68-5-fem.mp3"," ","","noivado","","","",""
"","1339","audio-keyboard-response","343","681066","0.0-3.0-1.279","../audio/68-6-fem.mp3"," ","","longo","","","",""
"","1011","audio-keyboard-response","344","682400","0.0-3.0-1.280","../audio/68-7-fem.mp3"," ","","e","","","",""
"","1771","audio-keyboard-response","345","684511","0.0-3.0-1.281","../audio/68-8-fem.mp3"," ","","maravilhoso.","","","",""
"","null","html-keyboard-response","346","685778","0.0-3.0-0.282-0.282","<span style= ""font-size:30px; font-family: monospace"">+</span>","null","fixation","","","","",""
"","1480","audio-keyboard-response","347","687552","0.0-3.0-1.282","../audio/66-1-fem.mp3"," ","","Não","","","",""
"","1421","audio-keyboard-response","348","689243","0.0-3.0-1.283","../audio/66-2-fem.mp3"," ","","gosto","","","",""
"","1011","audio-keyboard-response","349","690555","0.0-3.0-1.284","../audio/66-3-fem.mp3"," ","","de","","","",""
"","1451","audio-keyboard-response","350","692299","0.0-3.0-1.285","../audio/66-4-fem.mp3"," ","","gente","","","",""
"","1709","audio-keyboard-response","351","694306","0.0-3.0-1.286","../audio/66-5-fem.mp3"," ","","egoísta","","","",""
"","1211","audio-keyboard-response","352","695822","0.0-3.0-1.287","../audio/66-6-fem.mp3"," ","","nem","","","",""
"","1269","audio-keyboard-response","353","697390","0.0-3.0-1.288","../audio/66-7-fem.mp3"," ","","chata.","","","",""
"","null","html-keyboard-response","354","698655","0.0-3.0-0.289-0.289","<span style= ""font-size:30px; font-family: monospace"">+</span>","null","fixation","","","","",""
"","1909","audio-keyboard-response","355","700856","0.0-3.0-1.289","../audio/67-1-masc.mp3"," ","","Minha","","","",""
"","1189","audio-keyboard-response","356","702356","0.0-3.0-1.290","../audio/67-2-masc.mp3"," ","","tia","","","",""
"","1360","audio-keyboard-response","357","704017","0.0-3.0-1.291","../audio/67-3-masc.mp3"," ","","comprou","","","",""
"","1120","audio-keyboard-response","358","705428","0.0-3.0-1.292","../audio/67-4-masc.mp3"," ","","um","","","",""
"","1059","audio-keyboard-response","359","706781","0.0-3.0-1.293","../audio/67-5-masc.mp3"," ","","cordão","","","",""
"","789","audio-keyboard-response","360","707865","0.0-3.0-1.294","../audio/67-6-masc.mp3"," ","","para","","","",""
"","928","audio-keyboard-response","361","709088","0.0-3.0-1.295","../audio/67-7-masc.mp3"," ","","o","","","",""
"","1051","audio-keyboard-response","362","710427","0.0-3.0-1.296","../audio/67-8-masc.mp3"," ","","varal.","","","",""
"","null","html-keyboard-response","363","711696","0.0-3.0-0.297-0.297","<span style= ""font-size:30px; font-family: monospace"">+</span>","null","fixation","","","","",""
"","789","audio-keyboard-response","364","712779","0.0-3.0-1.297","../audio/70-1-fem.mp3"," ","","O","","","",""
"","1059","audio-keyboard-response","365","714129","0.0-3.0-1.298","../audio/70-2-fem.mp3"," ","","meu","","","",""
"","1061","audio-keyboard-response","366","715478","0.0-3.0-1.299","../audio/70-3-fem.mp3"," ","","filho","","","",""
"","912","audio-keyboard-response","367","716679","0.0-3.0-1.300","../audio/70-4-fem.mp3"," ","","tem","","","",""
"","1320","audio-keyboard-response","368","718291","0.0-3.0-1.301","../audio/70-5-fem.mp3"," ","","medo","","","",""
"","939","audio-keyboard-response","369","719537","0.0-3.0-1.302","../audio/70-6-fem.mp3"," ","","de","","","",""
"","1349","audio-keyboard-response","370","721189","0.0-3.0-1.303","../audio/70-7-fem.mp3"," ","","enguia","","","",""
"","1008","audio-keyboard-response","371","722489","0.0-3.0-1.304","../audio/70-8-fem.mp3"," ","","e","","","",""
"","1229","audio-keyboard-response","372","724027","0.0-3.0-1.305","../audio/70-9-fem.mp3"," ","","beija-flor.","","","",""
"","6053","html-keyboard-response","373","730344","0.0-3.0-2.305-0.305","<span style=""font-size:25px; font-family: monospace"">O filho tem medo de tigre?</span>","n","","","O filho tem medo de tigre?","null","exp-sent","false"
"","null","html-keyboard-response","374","731870","0.0-3.0-0.306-0.306","<span style= ""font-size:30px; font-family: monospace"">+</span>","null","fixation","","","","",""
"","440","audio-keyboard-response","375","732607","0.0-3.0-1.306","../audio/37-1-masc.mp3"," ","","Eu","","","",""
"","1091","audio-keyboard-response","376","733989","0.0-3.0-1.307","../audio/37-2-masc.mp3"," ","","adoro","","","",""
"","1011","audio-keyboard-response","377","735303","0.0-3.0-1.308","../audio/37-3-masc.mp3"," ","","suco","","","",""
"","941","audio-keyboard-response","378","736518","0.0-3.0-1.309","../audio/37-4-masc.mp3"," ","","de","","","",""
"","1181","audio-keyboard-response","379","738002","0.0-3.0-1.310","../audio/37-5-masc.mp3"," ","","manga","","","",""
"","861","audio-keyboard-response","380","739148","0.0-3.0-1.311","../audio/37-6-masc.mp3"," ","","com","","","",""
"","840","audio-keyboard-response","381","740290","0.0-3.0-1.312","../audio/37-7-masc.mp3"," ","","hortelã.","","","",""
"","null","html-keyboard-response","382","741557","0.0-3.0-0.313-0.313","<span style= ""font-size:30px; font-family: monospace"">+</span>","null","fixation","","","","",""
"","880","audio-keyboard-response","383","742776","0.0-3.0-1.313","../audio/38-1-masc.mp3"," ","","A","","","",""
"","949","audio-keyboard-response","384","744056","0.0-3.0-1.314","../audio/38-2-masc.mp3"," ","","empresa","","","",""
"","1339","audio-keyboard-response","385","745737","0.0-3.0-1.315","../audio/38-3-masc.mp3"," ","","criou","","","",""
"","1059","audio-keyboard-response","386","747133","0.0-3.0-1.316","../audio/38-4-masc.mp3"," ","","a","","","",""
"","1211","audio-keyboard-response","387","748668","0.0-3.0-1.317","../audio/38-5-masc.mp3"," ","","patente","","","",""
"","920","audio-keyboard-response","388","749919","0.0-3.0-1.318","../audio/38-6-masc.mp3"," ","","da","","","",""
"","1400","audio-keyboard-response","389","751650","0.0-3.0-1.319","../audio/38-7-masc.mp3"," ","","frigideira.","","","",""
"","null","html-keyboard-response","390","752922","0.0-3.0-0.320-0.320","<span style= ""font-size:30px; font-family: monospace"">+</span>","null","fixation","","","","",""
"","832","audio-keyboard-response","391","754045","0.0-3.0-1.320","../audio/39-1-masc.mp3"," ","","O","","","",""
"","1211","audio-keyboard-response","392","755546","0.0-3.0-1.321","../audio/39-2-masc.mp3"," ","","conselho","","","",""
"","1061","audio-keyboard-response","393","756911","0.0-3.0-1.322","../audio/39-3-masc.mp3"," ","","foi","","","",""
"","1088","audio-keyboard-response","394","758296","0.0-3.0-1.323","../audio/39-4-masc.mp3"," ","","muito","","","",""
"","1131","audio-keyboard-response","395","759718","0.0-3.0-1.324","../audio/39-5-masc.mp3"," ","","útil","","","",""
"","952","audio-keyboard-response","396","760963","0.0-3.0-1.325","../audio/39-6-masc.mp3"," ","","para","","","",""
"","731","audio-keyboard-response","397","762003","0.0-3.0-1.326","../audio/39-7-masc.mp3"," ","","minha","","","",""
"","1051","audio-keyboard-response","398","763364","0.0-3.0-1.327","../audio/39-8-masc.mp3"," ","","tia.","","","",""
"","null","html-keyboard-response","399","764638","0.0-3.0-0.328-0.328","<span style= ""font-size:30px; font-family: monospace"">+</span>","null","fixation","","","","",""
"","981","audio-keyboard-response","400","765922","0.0-3.0-1.328","../audio/36-1-fem.mp3"," ","","Meu","","","",""
"","1221","audio-keyboard-response","401","767438","0.0-3.0-1.329","../audio/36-2-fem.mp3"," ","","tio","","","",""
"","1320","audio-keyboard-response","402","769060","0.0-3.0-1.330","../audio/36-3-fem.mp3"," ","","comprou","","","",""
"","1101","audio-keyboard-response","403","770434","0.0-3.0-1.331","../audio/36-4-fem.mp3"," ","","um","","","",""
"","1232","audio-keyboard-response","404","771966","0.0-3.0-1.332","../audio/36-5-fem.mp3"," ","","filtro","","","",""
"","960","audio-keyboard-response","405","773219","0.0-3.0-1.333","../audio/36-6-fem.mp3"," ","","de","","","",""
"","1360","audio-keyboard-response","406","774864","0.0-3.0-1.334","../audio/36-7-fem.mp3"," ","","água","","","",""
"","1149","audio-keyboard-response","407","776308","0.0-3.0-1.335","../audio/36-8-fem.mp3"," ","","hoje","","","",""
"","1189","audio-keyboard-response","408","777792","0.0-3.0-1.336","../audio/36-9-fem.mp3"," ","","cedo.","","","",""
"","null","html-keyboard-response","409","779061","0.0-3.0-0.337-0.337","<span style= ""font-size:30px; font-family: monospace"">+</span>","null","fixation","","","","",""
"","800","audio-keyboard-response","410","780196","0.0-3.0-1.337","../audio/40-1-masc.mp3"," ","","O","","","",""
"","1051","audio-keyboard-response","411","781585","0.0-3.0-1.338","../audio/40-2-masc.mp3"," ","","jogo","","","",""
"","1379","audio-keyboard-response","412","783302","0.0-3.0-1.339","../audio/40-3-masc.mp3"," ","","falava","","","",""
"","1139","audio-keyboard-response","413","784779","0.0-3.0-1.340","../audio/40-4-masc.mp3"," ","","de","","","",""
"","1560","audio-keyboard-response","414","786735","0.0-3.0-1.341","../audio/40-5-masc.mp3"," ","","fantasia","","","",""
"","1680","audio-keyboard-response","415","788772","0.0-3.0-1.342","../audio/40-6-masc.mp3"," ","","e","","","",""
"","939","audio-keyboard-response","416","790130","0.0-3.0-1.343","../audio/40-7-masc.mp3"," ","","de","","","",""
"","1341","audio-keyboard-response","417","791876","0.0-3.0-1.344","../audio/40-8-masc.mp3"," ","","aventura.","","","",""
"","4217","html-keyboard-response","418","796357","0.0-3.0-2.344-0.344","<span style=""font-size:25px; font-family: monospace"">O jogo tinha fantasia e aventura?</span>","s","","","O jogo tinha fantasia e aventura?","null","exp-sent","false"
"","null","html-keyboard-response","419","797874","0.0-3.0-0.345-0.345","<span style= ""font-size:30px; font-family: monospace"">+</span>","null","fixation","","","","",""
"","1451","audio-keyboard-response","420","799701","0.0-3.0-1.345","../audio/21-1-masc.mp3"," ","","Precisamos","","","",""
"","1269","audio-keyboard-response","421","801346","0.0-3.0-1.346","../audio/21-2-masc.mp3"," ","","de","","","",""
"","1581","audio-keyboard-response","422","803246","0.0-3.0-1.347","../audio/21-3-masc.mp3"," ","","paciência","","","",""
"","1400","audio-keyboard-response","423","805006","0.0-3.0-1.348","../audio/21-4-masc.mp3"," ","","e","","","",""
"","1541","audio-keyboard-response","424","806955","0.0-3.0-1.349","../audio/21-5-masc.mp3"," ","","bondade","","","",""
"","1189","audio-keyboard-response","425","808492","0.0-3.0-1.350","../audio/21-6-masc.mp3"," ","","para","","","",""
"","1640","audio-keyboard-response","426","810484","0.0-3.0-1.351","../audio/21-7-masc.mp3"," ","","um","","","",""
"","1221","audio-keyboard-response","427","812072","0.0-3.0-1.352","../audio/21-8-masc.mp3"," ","","mundo","","","",""
"","1251","audio-keyboard-response","428","813662","0.0-3.0-1.353","../audio/21-9-masc.mp3"," ","","melhor.","","","",""
"","null","html-keyboard-response","429","814936","0.0-3.0-0.354-0.354","<span style= ""font-size:30px; font-family: monospace"">+</span>","null","fixation","","","","",""
"","371","audio-keyboard-response","430","815639","0.0-3.0-1.354","../audio/22-1-masc.mp3"," ","","Eu","","","",""
"","1440","audio-keyboard-response","431","817417","0.0-3.0-1.355","../audio/22-2-masc.mp3"," ","","detesto","","","",""
"","1219","audio-keyboard-response","432","818976","0.0-3.0-1.356","../audio/22-3-masc.mp3"," ","","fumaça","","","",""
"","1149","audio-keyboard-response","433","820459","0.0-3.0-1.357","../audio/22-4-masc.mp3"," ","","de","","","",""
"","1360","audio-keyboard-response","434","822160","0.0-3.0-1.358","../audio/22-5-masc.mp3"," ","","cachimbo","","","",""
"","979","audio-keyboard-response","435","823464","0.0-3.0-1.359","../audio/22-6-masc.mp3"," ","","e","","","",""
"","1739","audio-keyboard-response","436","825529","0.0-3.0-1.360","../audio/22-7-masc.mp3"," ","","de","","","",""
"","1141","audio-keyboard-response","437","827072","0.0-3.0-1.361","../audio/22-8-masc.mp3"," ","","cigarro.","","","",""
"","null","html-keyboard-response","438","828345","0.0-3.0-0.362-0.362","<span style= ""font-size:30px; font-family: monospace"">+</span>","null","fixation","","","","",""
"","1200","audio-keyboard-response","439","829925","0.0-3.0-1.362","../audio/23-1-masc.mp3"," ","","Português","","","",""
"","861","audio-keyboard-response","440","831117","0.0-3.0-1.363","../audio/23-2-masc.mp3"," ","","é","","","",""
"","781","audio-keyboard-response","441","832234","0.0-3.0-1.364","../audio/23-3-masc.mp3"," ","","um","","","",""
"","1072","audio-keyboard-response","442","833642","0.0-3.0-1.365","../audio/23-4-masc.mp3"," ","","assunto","","","",""
"","1040","audio-keyboard-response","443","835021","0.0-3.0-1.366","../audio/23-5-masc.mp3"," ","","elementar","","","",""
"","1400","audio-keyboard-response","444","836759","0.0-3.0-1.367","../audio/23-6-masc.mp3"," ","","para","","","",""
"","1240","audio-keyboard-response","445","838335","0.0-3.0-1.368","../audio/23-7-masc.mp3"," ","","os","","","",""
"","800","audio-keyboard-response","446","839476","0.0-3.0-1.369","../audio/23-8-masc.mp3"," ","","alunos.","","","",""
"","null","html-keyboard-response","447","840752","0.0-3.0-0.370-0.370","<span style= ""font-size:30px; font-family: monospace"">+</span>","null","fixation","","","","",""
"","749","audio-keyboard-response","448","841797","0.0-3.0-1.370","../audio/24-1-fem.mp3"," ","","As","","","",""
"","1091","audio-keyboard-response","449","843179","0.0-3.0-1.371","../audio/24-2-fem.mp3"," ","","crianças","","","",""
"","1261","audio-keyboard-response","450","844717","0.0-3.0-1.372","../audio/24-3-fem.mp3"," ","","vão","","","",""
"","1621","audio-keyboard-response","451","846635","0.0-3.0-1.373","../audio/24-4-fem.mp3"," ","","ao","","","",""
"","1781","audio-keyboard-response","452","848720","0.0-3.0-1.374","../audio/24-5-fem.mp3"," ","","cinema","","","",""
"","1461","audio-keyboard-response","453","850480","0.0-3.0-1.375","../audio/24-6-fem.mp3"," ","","mais","","","",""
"","1360","audio-keyboard-response","454","852139","0.0-3.0-1.376","../audio/24-7-fem.mp3"," ","","tarde.","","","",""
"","null","html-keyboard-response","455","853398","0.0-3.0-0.377-0.377","<span style= ""font-size:30px; font-family: monospace"">+</span>","null","fixation","","","","",""
"","989","audio-keyboard-response","456","854674","0.0-3.0-1.377","../audio/25-1-masc.mp3"," ","","Ela","","","",""
"","1120","audio-keyboard-response","457","856092","0.0-3.0-1.378","../audio/25-2-masc.mp3"," ","","faz","","","",""
"","1040","audio-keyboard-response","458","857427","0.0-3.0-1.379","../audio/25-3-masc.mp3"," ","","tanto","","","",""
"","1219","audio-keyboard-response","459","858940","0.0-3.0-1.380","../audio/25-4-masc.mp3"," ","","cabelo","","","",""
"","1099","audio-keyboard-response","460","860339","0.0-3.0-1.381","../audio/25-5-masc.mp3"," ","","liso","","","",""
"","1069","audio-keyboard-response","461","861701","0.0-3.0-1.382","../audio/25-6-masc.mp3"," ","","quanto","","","",""
"","1309","audio-keyboard-response","462","863313","0.0-3.0-1.383","../audio/25-7-masc.mp3"," ","","cacheado.","","","",""
"","8557","html-keyboard-response","463","872128","0.0-3.0-2.383-0.383","<span style=""font-size:25px; font-family: monospace"">Ela só faz cabelo cacheado?</span>","s","","","Ela só faz cabelo cacheado?","null","exp-sent","false"
"","null","html-keyboard-response","464","873649","0.0-3.0-0.384-0.384","<span style= ""font-size:30px; font-family: monospace"">+</span>","null","fixation","","","","",""
"","12811","audio-keyboard-response","465","886834","0.0-3.0-1.384","../audio/58-1-fem.mp3"," ","","Havia","","","",""
"","1731","audio-keyboard-response","466","888944","0.0-3.0-1.385","../audio/58-2-fem.mp3"," ","","apenas","","","",""
"","1360","audio-keyboard-response","467","890669","0.0-3.0-1.386","../audio/58-3-fem.mp3"," ","","um","","","",""
"","2080","audio-keyboard-response","468","893084","0.0-3.0-1.387","../audio/58-4-fem.mp3"," ","","último","","","",""
"","1709","audio-keyboard-response","469","895150","0.0-3.0-1.388","../audio/58-5-fem.mp3"," ","","herdeiro","","","",""
"","2149","audio-keyboard-response","470","897653","0.0-3.0-1.389","../audio/58-6-fem.mp3"," ","","do","","","",""
"","4029","audio-keyboard-response","471","902059","0.0-3.0-1.390","../audio/58-7-fem.mp3"," ","","dinheiro.","","","",""
"","null","html-keyboard-response","472","903328","0.0-3.0-0.391-0.391","<span style= ""font-size:30px; font-family: monospace"">+</span>","null","fixation","","","","",""
"","2259","audio-keyboard-response","473","905861","0.0-3.0-1.391","../audio/59-1-fem.mp3"," ","","O","","","",""
"","2531","audio-keyboard-response","474","908684","0.0-3.0-1.392","../audio/59-2-fem.mp3"," ","","carteiro","","","",""
"","5381","audio-keyboard-response","475","914356","0.0-3.0-1.393","../audio/59-3-fem.mp3"," ","","fez","","","",""
"","1379","audio-keyboard-response","476","916009","0.0-3.0-1.394","../audio/59-4-fem.mp3"," ","","uma","","","",""
"","1328","audio-keyboard-response","477","917652","0.0-3.0-1.395","../audio/59-5-fem.mp3"," ","","tentativa","","","",""
"","1171","audio-keyboard-response","478","919113","0.0-3.0-1.396","../audio/59-6-fem.mp3"," ","","de","","","",""
"","6080","audio-keyboard-response","479","925481","0.0-3.0-1.397","../audio/59-7-fem.mp3"," ","","entrega.","","","",""
"","null","html-keyboard-response","480","926750","0.0-3.0-0.398-0.398","<span style= ""font-size:30px; font-family: monospace"">+</span>","null","fixation","","","","",""
"","1349","audio-keyboard-response","481","928393","0.0-3.0-1.398","../audio/56-1-masc.mp3"," ","","A","","","",""
"","1099","audio-keyboard-response","482","929776","0.0-3.0-1.399","../audio/56-2-masc.mp3"," ","","moça","","","",""
"","2091","audio-keyboard-response","483","932158","0.0-3.0-1.400","../audio/56-3-masc.mp3"," ","","foi","","","",""
"","1651","audio-keyboard-response","484","934106","0.0-3.0-1.401","../audio/56-4-masc.mp3"," ","","à","","","",""
"","4589","audio-keyboard-response","485","938988","0.0-3.0-1.402","../audio/56-5-masc.mp3"," ","","agência","","","",""
"","3789","audio-keyboard-response","486","943074","0.0-3.0-1.403","../audio/56-6-masc.mp3"," ","","bancária","","","",""
"","3000","audio-keyboard-response","487","946376","0.0-3.0-1.404","../audio/56-7-masc.mp3"," ","","ontem","","","",""
"","1200","audio-keyboard-response","488","947880","0.0-3.0-1.405","../audio/56-8-masc.mp3"," ","","de","","","",""
"","1440","audio-keyboard-response","489","949636","0.0-3.0-1.406","../audio/56-9-masc.mp3"," ","","tarde.","","","",""
"","null","html-keyboard-response","490","950907","0.0-3.0-0.407-0.407","<span style= ""font-size:30px; font-family: monospace"">+</span>","null","fixation","","","","",""
"","1160","audio-keyboard-response","491","952705","0.0-3.0-1.407","../audio/57-1-fem.mp3"," ","","O","","","",""
"","1389","audio-keyboard-response","492","954431","0.0-3.0-1.408","../audio/57-2-fem.mp3"," ","","capitão","","","",""
"","1171","audio-keyboard-response","493","955901","0.0-3.0-1.409","../audio/57-3-fem.mp3"," ","","deu","","","",""
"","1051","audio-keyboard-response","494","957278","0.0-3.0-1.410","../audio/57-4-fem.mp3"," ","","uma","","","",""
"","1741","audio-keyboard-response","495","959347","0.0-3.0-1.411","../audio/57-5-fem.mp3"," ","","instrução","","","",""
"","10339","audio-keyboard-response","496","970054","0.0-3.0-1.412","../audio/57-6-fem.mp3"," ","","para","","","",""
"","2811","audio-keyboard-response","497","973243","0.0-3.0-1.413","../audio/57-7-fem.mp3"," ","","as","","","",""
"","2069","audio-keyboard-response","498","975658","0.0-3.0-1.414","../audio/57-8-fem.mp3"," ","","pessoas.","","","",""
"","null","html-keyboard-response","499","976915","0.0-3.0-0.415-0.415","<span style= ""font-size:30px; font-family: monospace"">+</span>","null","fixation","","","","",""
"","2560","audio-keyboard-response","500","979840","0.0-3.0-1.415","../audio/60-1-fem.mp3"," ","","Ondas","","","",""
"","888","audio-keyboard-response","501","981088","0.0-3.0-1.416","../audio/60-2-fem.mp3"," ","","têm","","","",""
"","1291","audio-keyboard-response","502","982710","0.0-3.0-1.417","../audio/60-3-fem.mp3"," ","","um","","","",""
"","1960","audio-keyboard-response","503","984995","0.0-3.0-1.418","../audio/60-4-fem.mp3"," ","","impacto","","","",""
"","2221","audio-keyboard-response","504","987598","0.0-3.0-1.419","../audio/60-5-fem.mp3"," ","","destrutivo","","","",""
"","1651","audio-keyboard-response","505","989593","0.0-3.0-1.420","../audio/60-6-fem.mp3"," ","","no","","","",""
"","2360","audio-keyboard-response","506","992290","0.0-3.0-1.421","../audio/60-7-fem.mp3"," ","","litoral.","","","",""
"","5091","html-keyboard-response","507","997648","0.0-3.0-2.421-0.421","<span style=""font-size:25px; font-family: monospace"">Ondas têm um impacto destrutivo?</span>","s","","","Ondas têm um impacto destrutivo?","null","exp-sent","false"
"","null","html-keyboard-response","508","999161","0.0-3.0-0.422-0.422","<span style= ""font-size:30px; font-family: monospace"">+</span>","null","fixation","","","","",""
"","1229","audio-keyboard-response","509","1000777","0.0-3.0-1.422","../audio/71-1-fem.mp3"," ","","Minhas","","","",""
"","1259","audio-keyboard-response","510","1002372","0.0-3.0-1.423","../audio/71-2-fem.mp3"," ","","comidas","","","",""
"","1179","audio-keyboard-response","511","1003887","0.0-3.0-1.424","../audio/71-3-fem.mp3"," ","","favoritas","","","",""
"","1080","audio-keyboard-response","512","1005307","0.0-3.0-1.425","../audio/71-4-fem.mp3"," ","","são","","","",""
"","1040","audio-keyboard-response","513","1006650","0.0-3.0-1.426","../audio/71-5-fem.mp3"," ","","morango","","","",""
"","880","audio-keyboard-response","514","1007877","0.0-3.0-1.427","../audio/71-6-fem.mp3"," ","","e","","","",""
"","1069","audio-keyboard-response","515","1009269","0.0-3.0-1.428","../audio/71-7-fem.mp3"," ","","uva.","","","",""
"","null","html-keyboard-response","516","1010534","0.0-3.0-0.429-0.429","<span style= ""font-size:30px; font-family: monospace"">+</span>","null","fixation","","","","",""
"","1821","audio-keyboard-response","517","1012720","0.0-3.0-1.429","../audio/73-1-masc.mp3"," ","","O","","","",""
"","1221","audio-keyboard-response","518","1014309","0.0-3.0-1.430","../audio/73-2-masc.mp3"," ","","cliente","","","",""
"","1072","audio-keyboard-response","519","1015677","0.0-3.0-1.431","../audio/73-3-masc.mp3"," ","","era","","","",""
"","0","audio-keyboard-response","520","1016012","0.0-3.0-1.432","../audio/73-4-masc.mp3"," ","","um","","","",""
"","1240","audio-keyboard-response","521","1017547","0.0-3.0-1.433","../audio/73-5-masc.mp3"," ","","homem","","","",""
"","1160","audio-keyboard-response","522","1019011","0.0-3.0-1.434","../audio/73-6-masc.mp3"," ","","muito","","","",""
"","960","audio-keyboard-response","523","1020301","0.0-3.0-1.435","../audio/73-7-masc.mp3"," ","","educado.","","","",""
"","null","html-keyboard-response","524","1021571","0.0-3.0-0.436-0.436","<span style= ""font-size:30px; font-family: monospace"">+</span>","null","fixation","","","","",""
"","741","audio-keyboard-response","525","1022599","0.0-3.0-1.436","../audio/72-1-masc.mp3"," ","","A","","","",""
"","1192","audio-keyboard-response","526","1024086","0.0-3.0-1.437","../audio/72-2-masc.mp3"," ","","vencedora","","","",""
"","1301","audio-keyboard-response","527","1025678","0.0-3.0-1.438","../audio/72-3-masc.mp3"," ","","recebeu","","","",""
"","1152","audio-keyboard-response","528","1027120","0.0-3.0-1.439","../audio/72-4-masc.mp3"," ","","um","","","",""
"","1101","audio-keyboard-response","529","1028512","0.0-3.0-1.440","../audio/72-5-masc.mp3"," ","","prêmio","","","",""
"","1008","audio-keyboard-response","530","1029808","0.0-3.0-1.441","../audio/72-6-masc.mp3"," ","","em","","","",""
"","1259","audio-keyboard-response","531","1031373","0.0-3.0-1.442","../audio/72-7-masc.mp3"," ","","dinheiro.","","","",""
"","null","html-keyboard-response","532","1032642","0.0-3.0-0.443-0.443","<span style= ""font-size:30px; font-family: monospace"">+</span>","null","fixation","","","","",""
"","1141","audio-keyboard-response","533","1034072","0.0-3.0-1.443","../audio/74-1-masc.mp3"," ","","Este","","","",""
"","1392","audio-keyboard-response","534","1035759","0.0-3.0-1.444","../audio/74-2-masc.mp3"," ","","emprego","","","",""
"","1080","audio-keyboard-response","535","1037130","0.0-3.0-1.445","../audio/74-3-masc.mp3"," ","","é","","","",""
"","1000","audio-keyboard-response","536","1038436","0.0-3.0-1.446","../audio/74-4-masc.mp3"," ","","muito","","","",""
"","1240","audio-keyboard-response","537","1039971","0.0-3.0-1.447","../audio/74-5-masc.mp3"," ","","cansativo","","","",""
"","811","audio-keyboard-response","538","1041058","0.0-3.0-1.448","../audio/74-6-masc.mp3"," ","","a","","","",""
"","1171","audio-keyboard-response","539","1042524","0.0-3.0-1.449","../audio/74-7-masc.mp3"," ","","longo","","","",""
"","1171","audio-keyboard-response","540","1043993","0.0-3.0-1.450","../audio/74-8-masc.mp3"," ","","prazo.","","","",""
"","null","html-keyboard-response","541","1045268","0.0-3.0-0.451-0.451","<span style= ""font-size:30px; font-family: monospace"">+</span>","null","fixation","","","","",""
"","888","audio-keyboard-response","542","1046454","0.0-3.0-1.451","../audio/75-1-masc.mp3"," ","","Só","","","",""
"","888","audio-keyboard-response","543","1047612","0.0-3.0-1.452","../audio/75-2-masc.mp3"," ","","existe","","","",""
"","752","audio-keyboard-response","544","1048643","0.0-3.0-1.453","../audio/75-3-masc.mp3"," ","","uma","","","",""
"","861","audio-keyboard-response","545","1049790","0.0-3.0-1.454","../audio/75-4-masc.mp3"," ","","pessoa","","","",""
"","760","audio-keyboard-response","546","1050847","0.0-3.0-1.455","../audio/75-5-masc.mp3"," ","","canhota","","","",""
"","931","audio-keyboard-response","547","1052086","0.0-3.0-1.456","../audio/75-6-masc.mp3"," ","","nesta","","","",""
"","1000","audio-keyboard-response","548","1053378","0.0-3.0-1.457","../audio/75-7-masc.mp3"," ","","cidade.","","","",""
"","4251","html-keyboard-response","549","1057889","0.0-3.0-2.457-0.457","<span style=""font-size:25px; font-family: monospace"">Só existe uma pessoa canhota na cidade?</span>","s","","","Só existe uma pessoa canhota na cidade?","null","exp-sent","false"
"","null","html-keyboard-response","550","1059411","0.0-3.0-0.458-0.458","<span style= ""font-size:30px; font-family: monospace"">+</span>","null","fixation","","","","",""
"","789","audio-keyboard-response","551","1060585","0.0-3.0-1.458","../audio/44-1-masc.mp3"," ","","Meus","","","",""
"","960","audio-keyboard-response","552","1061882","0.0-3.0-1.459","../audio/44-2-masc.mp3"," ","","irmãos","","","",""
"","1051","audio-keyboard-response","553","1063264","0.0-3.0-1.460","../audio/44-3-masc.mp3"," ","","brigam","","","",""
"","880","audio-keyboard-response","554","1064487","0.0-3.0-1.461","../audio/44-4-masc.mp3"," ","","por","","","",""
"","1229","audio-keyboard-response","555","1066068","0.0-3.0-1.462","../audio/44-5-masc.mp3"," ","","bobagem","","","",""
"","1040","audio-keyboard-response","556","1067478","0.0-3.0-1.463","../audio/44-6-masc.mp3"," ","","todos","","","",""
"","1021","audio-keyboard-response","557","1068847","0.0-3.0-1.464","../audio/44-7-masc.mp3"," ","","os","","","",""
"","1341","audio-keyboard-response","558","1070556","0.0-3.0-1.465","../audio/44-8-masc.mp3"," ","","dias.","","","",""
"","null","html-keyboard-response","559","1071816","0.0-3.0-0.466-0.466","<span style= ""font-size:30px; font-family: monospace"">+</span>","null","fixation","","","","",""
"","848","audio-keyboard-response","560","1072972","0.0-3.0-1.466","../audio/42-1-masc.mp3"," ","","Eu","","","",""
"","901","audio-keyboard-response","561","1074188","0.0-3.0-1.467","../audio/42-2-masc.mp3"," ","","fui","","","",""
"","1131","audio-keyboard-response","562","1075629","0.0-3.0-1.468","../audio/42-3-masc.mp3"," ","","a","","","",""
"","941","audio-keyboard-response","563","1076886","0.0-3.0-1.469","../audio/42-4-masc.mp3"," ","","uma","","","",""
"","1011","audio-keyboard-response","564","1078206","0.0-3.0-1.470","../audio/42-5-masc.mp3"," ","","loja","","","",""
"","851","audio-keyboard-response","565","1079382","0.0-3.0-1.471","../audio/42-6-masc.mp3"," ","","de","","","",""
"","920","audio-keyboard-response","566","1080626","0.0-3.0-1.472","../audio/42-7-masc.mp3"," ","","móveis","","","",""
"","1131","audio-keyboard-response","567","1082086","0.0-3.0-1.473","../audio/42-8-masc.mp3"," ","","no","","","",""
"","981","audio-keyboard-response","568","1083389","0.0-3.0-1.474","../audio/42-9-masc.mp3"," ","","bairro.","","","",""
"","null","html-keyboard-response","569","1084666","0.0-3.0-0.475-0.475","<span style= ""font-size:30px; font-family: monospace"">+</span>","null","fixation","","","","",""
"","141","audio-keyboard-response","570","1085122","0.0-3.0-1.475","../audio/41-1-fem.mp3"," ","","A","","","",""
"","1259","audio-keyboard-response","571","1086705","0.0-3.0-1.476","../audio/41-2-fem.mp3"," ","","novela","","","",""
"","1360","audio-keyboard-response","572","1088379","0.0-3.0-1.477","../audio/41-3-fem.mp3"," ","","falava","","","",""
"","1011","audio-keyboard-response","573","1089703","0.0-3.0-1.478","../audio/41-4-fem.mp3"," ","","de","","","",""
"","1331","audio-keyboard-response","574","1091338","0.0-3.0-1.479","../audio/41-5-fem.mp3"," ","","paixão","","","",""
"","1219","audio-keyboard-response","575","1092862","0.0-3.0-1.480","../audio/41-6-fem.mp3"," ","","e","","","",""
"","1571","audio-keyboard-response","576","1094743","0.0-3.0-1.481","../audio/41-7-fem.mp3"," ","","comédia.","","","",""
"","null","html-keyboard-response","577","1096003","0.0-3.0-0.482-0.482","<span style= ""font-size:30px; font-family: monospace"">+</span>","null","fixation","","","","",""
"","1251","audio-keyboard-response","578","1097566","0.0-3.0-1.482","../audio/43-1-masc.mp3"," ","","Eu","","","",""
"","1368","audio-keyboard-response","579","1099256","0.0-3.0-1.483","../audio/43-2-masc.mp3"," ","","achei","","","",""
"","981","audio-keyboard-response","580","1100566","0.0-3.0-1.484","../audio/43-3-masc.mp3"," ","","um","","","",""
"","1261","audio-keyboard-response","581","1102149","0.0-3.0-1.485","../audio/43-4-masc.mp3"," ","","colchão","","","",""
"","1120","audio-keyboard-response","582","1103579","0.0-3.0-1.486","../audio/43-5-masc.mp3"," ","","velho","","","",""
"","1331","audio-keyboard-response","583","1105200","0.0-3.0-1.487","../audio/43-6-masc.mp3"," ","","e","","","",""
"","1120","audio-keyboard-response","584","1106624","0.0-3.0-1.488","../audio/43-7-masc.mp3"," ","","imundo","","","",""
"","968","audio-keyboard-response","585","1107889","0.0-3.0-1.489","../audio/43-8-masc.mp3"," ","","na","","","",""
"","1691","audio-keyboard-response","586","1109871","0.0-3.0-1.490","../audio/43-9-masc.mp3"," ","","casa.","","","",""
"","null","html-keyboard-response","587","1111147","0.0-3.0-0.491-0.491","<span style= ""font-size:30px; font-family: monospace"">+</span>","null","fixation","","","","",""
"","1048","audio-keyboard-response","588","1112575","0.0-3.0-1.491","../audio/45-1-fem.mp3"," ","","O","","","",""
"","1211","audio-keyboard-response","589","1114115","0.0-3.0-1.492","../audio/45-2-fem.mp3"," ","","homem","","","",""
"","1211","audio-keyboard-response","590","1115662","0.0-3.0-1.493","../audio/45-3-fem.mp3"," ","","pagou","","","",""
"","1269","audio-keyboard-response","591","1117266","0.0-3.0-1.494","../audio/45-4-fem.mp3"," ","","o","","","",""
"","1371","audio-keyboard-response","592","1118945","0.0-3.0-1.495","../audio/45-5-fem.mp3"," ","","aluguel","","","",""
"","1019","audio-keyboard-response","593","1120294","0.0-3.0-1.496","../audio/45-6-fem.mp3"," ","","com","","","",""
"","1400","audio-keyboard-response","594","1122033","0.0-3.0-1.497","../audio/45-7-fem.mp3"," ","","atraso.","","","",""
"","6829","html-keyboard-response","595","1129126","0.0-3.0-2.497-0.497","<span style=""font-size:25px; font-family: monospace"">O homem pagou o aluguel em dia?</span>","n","","","O homem pagou o aluguel em dia?","null","exp-sent","false"
"","null","html-keyboard-response","596","1130646","0.0-3.0-0.498-0.498","<span style= ""font-size:30px; font-family: monospace"">+</span>","null","fixation","","","","",""
"","1109","audio-keyboard-response","597","1132176","0.0-3.0-1.498","../audio/11-1-masc.mp3"," ","","Elas","","","",""
"","1288","audio-keyboard-response","598","1133812","0.0-3.0-1.499","../audio/11-2-masc.mp3"," ","","gostam","","","",""
"","1221","audio-keyboard-response","599","1135364","0.0-3.0-1.500","../audio/11-3-masc.mp3"," ","","muito","","","",""
"","939","audio-keyboard-response","600","1136654","0.0-3.0-1.501","../audio/11-4-masc.mp3"," ","","de","","","",""
"","1248","audio-keyboard-response","601","1138251","0.0-3.0-1.502","../audio/11-5-masc.mp3"," ","","aritmética","","","",""
"","1059","audio-keyboard-response","602","1139652","0.0-3.0-1.503","../audio/11-6-masc.mp3"," ","","e","","","",""
"","1000","audio-keyboard-response","603","1140977","0.0-3.0-1.504","../audio/11-7-masc.mp3"," ","","de","","","",""
"","1320","audio-keyboard-response","604","1142634","0.0-3.0-1.505","../audio/11-8-masc.mp3"," ","","leitura.","","","",""
"","null","html-keyboard-response","605","1143910","0.0-3.0-0.506-0.506","<span style= ""font-size:30px; font-family: monospace"">+</span>","null","fixation","","","","",""
"","1069","audio-keyboard-response","606","1145269","0.0-3.0-1.506","../audio/12-1-fem.mp3"," ","","O","","","",""
"","1011","audio-keyboard-response","607","1146581","0.0-3.0-1.507","../audio/12-2-fem.mp3"," ","","dia","","","",""
"","1328","audio-keyboard-response","608","1148209","0.0-3.0-1.508","../audio/12-3-fem.mp3"," ","","estava","","","",""
"","971","audio-keyboard-response","609","1149461","0.0-3.0-1.509","../audio/12-4-fem.mp3"," ","","quente,","","","",""
"","1400","audio-keyboard-response","610","1151152","0.0-3.0-1.510","../audio/12-5-fem.mp3"," ","","tranquilo","","","",""
"","880","audio-keyboard-response","611","1152328","0.0-3.0-1.511","../audio/12-6-fem.mp3"," ","","e","","","",""
"","960","audio-keyboard-response","612","1153579","0.0-3.0-1.512","../audio/12-7-fem.mp3"," ","","ensolarado.","","","",""
"","null","html-keyboard-response","613","1154840","0.0-3.0-0.513-0.513","<span style= ""font-size:30px; font-family: monospace"">+</span>","null","fixation","","","","",""
"","672","audio-keyboard-response","614","1155881","0.0-3.0-1.513","../audio/14-1-fem.mp3"," ","","O","","","",""
"","1360","audio-keyboard-response","615","1157571","0.0-3.0-1.514","../audio/14-2-fem.mp3"," ","","cachorro","","","",""
"","1280","audio-keyboard-response","616","1159179","0.0-3.0-1.515","../audio/14-3-fem.mp3"," ","","é","","","",""
"","1000","audio-keyboard-response","617","1160509","0.0-3.0-1.516","../audio/14-4-fem.mp3"," ","","muito","","","",""
"","1179","audio-keyboard-response","618","1162018","0.0-3.0-1.517","../audio/14-5-fem.mp3"," ","","fiel","","","",""
"","989","audio-keyboard-response","619","1163345","0.0-3.0-1.518","../audio/14-6-fem.mp3"," ","","a","","","",""
"","1368","audio-keyboard-response","620","1165055","0.0-3.0-1.519","../audio/14-7-fem.mp3"," ","","seus","","","",""
"","1680","audio-keyboard-response","621","1167080","0.0-3.0-1.520","../audio/14-8-fem.mp3"," ","","donos.","","","",""
"","null","html-keyboard-response","622","1168345","0.0-3.0-0.521-0.521","<span style= ""font-size:30px; font-family: monospace"">+</span>","null","fixation","","","","",""
"","939","audio-keyboard-response","623","1169570","0.0-3.0-1.521","../audio/13-1-fem.mp3"," ","","Para","","","",""
"","1040","audio-keyboard-response","624","1170912","0.0-3.0-1.522","../audio/13-2-fem.mp3"," ","","mim","","","",""
"","1059","audio-keyboard-response","625","1172257","0.0-3.0-1.523","../audio/13-3-fem.mp3"," ","","é","","","",""
"","931","audio-keyboard-response","626","1173471","0.0-3.0-1.524","../audio/13-4-fem.mp3"," ","","muito","","","",""
"","1171","audio-keyboard-response","627","1174941","0.0-3.0-1.525","../audio/13-5-fem.mp3"," ","","difícil","","","",""
"","1371","audio-keyboard-response","628","1176601","0.0-3.0-1.526","../audio/13-6-fem.mp3"," ","","acordar","","","",""
"","1120","audio-keyboard-response","629","1178001","0.0-3.0-1.527","../audio/13-7-fem.mp3"," ","","cedo.","","","",""
"","null","html-keyboard-response","630","1179270","0.0-3.0-0.528-0.528","<span style= ""font-size:30px; font-family: monospace"">+</span>","null","fixation","","","","",""
"","979","audio-keyboard-response","631","1180545","0.0-3.0-1.528","../audio/15-1-masc.mp3"," ","","Meu","","","",""
"","888","audio-keyboard-response","632","1181728","0.0-3.0-1.529","../audio/15-2-masc.mp3"," ","","primo","","","",""
"","1008","audio-keyboard-response","633","1183013","0.0-3.0-1.530","../audio/15-3-masc.mp3"," ","","é","","","",""
"","901","audio-keyboard-response","634","1184200","0.0-3.0-1.531","../audio/15-4-masc.mp3"," ","","um","","","",""
"","1131","audio-keyboard-response","635","1185617","0.0-3.0-1.532","../audio/15-5-masc.mp3"," ","","grande","","","",""
"","859","audio-keyboard-response","636","1186781","0.0-3.0-1.533","../audio/15-6-masc.mp3"," ","","vendedor","","","",""
"","1480","audio-keyboard-response","637","1188559","0.0-3.0-1.534","../audio/15-7-masc.mp3"," ","","de","","","",""
"","1128","audio-keyboard-response","638","1189971","0.0-3.0-1.535","../audio/15-8-masc.mp3"," ","","carros.","","","",""
"","13996","html-keyboard-response","639","1204235","0.0-3.0-2.535-0.535","<span style=""font-size:25px; font-family: monospace"">O primo é um vendedor de carros?</span>","s","","","O primo é um vendedor de carros?","null","exp-sent","false"
"","null","html-keyboard-response","640","1205759","0.0-3.0-0.536-0.536","<span style= ""font-size:30px; font-family: monospace"">+</span>","null","fixation","","","","",""
"","1051","audio-keyboard-response","641","1207097","0.0-3.0-1.536","../audio/26-1-masc.mp3"," ","","Amanhã","","","",""
"","1099","audio-keyboard-response","642","1208501","0.0-3.0-1.537","../audio/26-2-masc.mp3"," ","","temos","","","",""
"","1691","audio-keyboard-response","643","1210482","0.0-3.0-1.538","../audio/26-3-masc.mp3"," ","","festa","","","",""
"","1872","audio-keyboard-response","644","1212639","0.0-3.0-1.539","../audio/26-4-masc.mp3"," ","","na","","","",""
"","2131","audio-keyboard-response","645","1215068","0.0-3.0-1.540","../audio/26-5-masc.mp3"," ","","piscina","","","",""
"","2171","audio-keyboard-response","646","1217518","0.0-3.0-1.541","../audio/26-6-masc.mp3"," ","","o","","","",""
"","2072","audio-keyboard-response","647","1219880","0.0-3.0-1.542","../audio/26-7-masc.mp3"," ","","dia","","","",""
"","1941","audio-keyboard-response","648","1222113","0.0-3.0-1.543","../audio/26-8-masc.mp3"," ","","todo.","","","",""
"","null","html-keyboard-response","649","1223371","0.0-3.0-0.544-0.544","<span style= ""font-size:30px; font-family: monospace"">+</span>","null","fixation","","","","",""
"","4109","audio-keyboard-response","650","1227807","0.0-3.0-1.544","../audio/28-1-masc.mp3"," ","","O","","","",""
"","2821","audio-keyboard-response","651","1230989","0.0-3.0-1.545","../audio/28-2-masc.mp3"," ","","time","","","",""
"","1728","audio-keyboard-response","652","1233097","0.0-3.0-1.546","../audio/28-3-masc.mp3"," ","","quer","","","",""
"","920","audio-keyboard-response","653","1234390","0.0-3.0-1.547","../audio/28-4-masc.mp3"," ","","a","","","",""
"","1629","audio-keyboard-response","654","1236344","0.0-3.0-1.548","../audio/28-5-masc.mp3"," ","","vitória","","","",""
"","1549","audio-keyboard-response","655","1238219","0.0-3.0-1.549","../audio/28-6-masc.mp3"," ","","no","","","",""
"","1029","audio-keyboard-response","656","1239581","0.0-3.0-1.550","../audio/28-7-masc.mp3"," ","","jogo","","","",""
"","861","audio-keyboard-response","657","1240766","0.0-3.0-1.551","../audio/28-8-masc.mp3"," ","","de","","","",""
"","1160","audio-keyboard-response","658","1242265","0.0-3.0-1.552","../audio/28-9-masc.mp3"," ","","vôlei.","","","",""
"","null","html-keyboard-response","659","1243527","0.0-3.0-0.553-0.553","<span style= ""font-size:30px; font-family: monospace"">+</span>","null","fixation","","","","",""
"","752","audio-keyboard-response","660","1244638","0.0-3.0-1.553","../audio/27-1-masc.mp3"," ","","O","","","",""
"","869","audio-keyboard-response","661","1245848","0.0-3.0-1.554","../audio/27-2-masc.mp3"," ","","dinheiro","","","",""
"","931","audio-keyboard-response","662","1247115","0.0-3.0-1.555","../audio/27-3-masc.mp3"," ","","chegou","","","",""
"","872","audio-keyboard-response","663","1248317","0.0-3.0-1.556","../audio/27-4-masc.mp3"," ","","à","","","",""
"","1080","audio-keyboard-response","664","1249729","0.0-3.0-1.557","../audio/27-5-masc.mp3"," ","","elite","","","",""
"","941","audio-keyboard-response","665","1250987","0.0-3.0-1.558","../audio/27-6-masc.mp3"," ","","deste","","","",""
"","848","audio-keyboard-response","666","1252168","0.0-3.0-1.559","../audio/27-7-masc.mp3"," ","","país.","","","",""
"","null","html-keyboard-response","667","1253434","0.0-3.0-0.560-0.560","<span style= ""font-size:30px; font-family: monospace"">+</span>","null","fixation","","","","",""
"","1509","audio-keyboard-response","668","1255233","0.0-3.0-1.560","../audio/29-1-masc.mp3"," ","","Hoje","","","",""
"","1411","audio-keyboard-response","669","1256942","0.0-3.0-1.561","../audio/29-2-masc.mp3"," ","","vamos","","","",""
"","1088","audio-keyboard-response","670","1258331","0.0-3.0-1.562","../audio/29-3-masc.mp3"," ","","fazer","","","",""
"","1069","audio-keyboard-response","671","1259712","0.0-3.0-1.563","../audio/29-4-masc.mp3"," ","","uma","","","",""
"","1480","audio-keyboard-response","672","1261499","0.0-3.0-1.564","../audio/29-5-masc.mp3"," ","","atividade","","","",""
"","1099","audio-keyboard-response","673","1262891","0.0-3.0-1.565","../audio/29-6-masc.mp3"," ","","sobre","","","",""
"","1109","audio-keyboard-response","674","1264298","0.0-3.0-1.566","../audio/29-7-masc.mp3"," ","","fauna","","","",""
"","931","audio-keyboard-response","675","1265778","0.0-3.0-1.567","../audio/29-8-masc.mp3"," ","","marinha.","","","",""
"","null","html-keyboard-response","676","1267050","0.0-3.0-0.568-0.568","<span style= ""font-size:30px; font-family: monospace"">+</span>","null","fixation","","","","",""
"","880","audio-keyboard-response","677","1268300","0.0-3.0-1.568","../audio/30-1-fem.mp3"," ","","O","","","",""
"","1581","audio-keyboard-response","678","1270203","0.0-3.0-1.569","../audio/30-2-fem.mp3"," ","","funcionário","","","",""
"","1451","audio-keyboard-response","679","1271995","0.0-3.0-1.570","../audio/30-3-fem.mp3"," ","","entregou","","","",""
"","1048","audio-keyboard-response","680","1273367","0.0-3.0-1.571","../audio/30-4-fem.mp3"," ","","o","","","",""
"","1429","audio-keyboard-response","681","1275137","0.0-3.0-1.572","../audio/30-5-fem.mp3"," ","","restante","","","",""
"","1128","audio-keyboard-response","682","1276612","0.0-3.0-1.573","../audio/30-6-fem.mp3"," ","","do","","","",""
"","1229","audio-keyboard-response","683","1278193","0.0-3.0-1.574","../audio/30-7-fem.mp3"," ","","dinheiro.","","","",""
"","6309","html-keyboard-response","684","1284757","0.0-3.0-2.574-0.574","<span style=""font-size:25px; font-family: monospace"">O funcionário entregou o contrato?</span>","s","","","O funcionário entregou o contrato?","null","exp-sent","false"
"","null","html-keyboard-response","685","1286271","0.0-3.0-0.575-0.575","<span style= ""font-size:30px; font-family: monospace"">+</span>","null","fixation","","","","",""
"","688","audio-keyboard-response","686","1287254","0.0-3.0-1.575","../audio/31-1-masc.mp3"," ","","O","","","",""
"","61","audio-keyboard-response","687","1287635","0.0-3.0-1.576","../audio/31-2-masc.mp3"," ","","padeiro","","","",""
"","1531","audio-keyboard-response","688","1289444","0.0-3.0-1.577","../audio/31-3-masc.mp3"," ","","usou","","","",""
"","1248","audio-keyboard-response","689","1290973","0.0-3.0-1.578","../audio/31-4-masc.mp3"," ","","a","","","",""
"","1440","audio-keyboard-response","690","1292709","0.0-3.0-1.579","../audio/31-5-masc.mp3"," ","","balança","","","",""
"","1869","audio-keyboard-response","691","1294850","0.0-3.0-1.580","../audio/31-6-masc.mp3"," ","","o","","","",""
"","5709","audio-keyboard-response","692","1300849","0.0-3.0-1.581","../audio/31-7-masc.mp3"," ","","dia","","","",""
"","1491","audio-keyboard-response","693","1302636","0.0-3.0-1.582","../audio/31-8-masc.mp3"," ","","inteiro.","","","",""
"","null","html-keyboard-response","694","1303914","0.0-3.0-0.583-0.583","<span style= ""font-size:30px; font-family: monospace"">+</span>","null","fixation","","","","",""
"","1731","audio-keyboard-response","695","1305940","0.0-3.0-1.583","../audio/34-1-masc.mp3"," ","","Cobrança","","","",""
"","1688","audio-keyboard-response","696","1307929","0.0-3.0-1.584","../audio/34-2-masc.mp3"," ","","excessiva","","","",""
"","1400","audio-keyboard-response","697","1309616","0.0-3.0-1.585","../audio/34-3-masc.mp3"," ","","é","","","",""
"","1339","audio-keyboard-response","698","1311256","0.0-3.0-1.586","../audio/34-4-masc.mp3"," ","","um","","","",""
"","1811","audio-keyboard-response","699","1313358","0.0-3.0-1.587","../audio/34-5-masc.mp3"," ","","fardo","","","",""
"","1320","audio-keyboard-response","700","1314975","0.0-3.0-1.588","../audio/34-6-masc.mp3"," ","","para","","","",""
"","1501","audio-keyboard-response","701","1316764","0.0-3.0-1.589","../audio/34-7-masc.mp3"," ","","a","","","",""
"","1101","audio-keyboard-response","702","1318163","0.0-3.0-1.590","../audio/34-8-masc.mp3"," ","","cabeça.","","","",""
"","null","html-keyboard-response","703","1319431","0.0-3.0-0.591-0.591","<span style= ""font-size:30px; font-family: monospace"">+</span>","null","fixation","","","","",""
"","379","audio-keyboard-response","704","1320139","0.0-3.0-1.591","../audio/33-1-fem.mp3"," ","","Eles","","","",""
"","1251","audio-keyboard-response","705","1321722","0.0-3.0-1.592","../audio/33-2-fem.mp3"," ","","sabem","","","",""
"","1280","audio-keyboard-response","706","1323346","0.0-3.0-1.593","../audio/33-3-fem.mp3"," ","","do","","","",""
"","1280","audio-keyboard-response","707","1324957","0.0-3.0-1.594","../audio/33-4-fem.mp3"," ","","seu","","","",""
"","1728","audio-keyboard-response","708","1327009","0.0-3.0-1.595","../audio/33-5-fem.mp3"," ","","privilégio","","","",""
"","1659","audio-keyboard-response","709","1329066","0.0-3.0-1.596","../audio/33-6-fem.mp3"," ","","nessa","","","",""
"","3909","audio-keyboard-response","710","1333381","0.0-3.0-1.597","../audio/33-7-fem.mp3"," ","","confusão.","","","",""
"","null","html-keyboard-response","711","1334637","0.0-3.0-0.598-0.598","<span style= ""font-size:30px; font-family: monospace"">+</span>","null","fixation","","","","",""
"","1109","audio-keyboard-response","712","1336029","0.0-3.0-1.598","../audio/32-1-fem.mp3"," ","","A","","","",""
"","1568","audio-keyboard-response","713","1337890","0.0-3.0-1.599","../audio/32-2-fem.mp3"," ","","tia","","","",""
"","1251","audio-keyboard-response","714","1339429","0.0-3.0-1.600","../audio/32-3-fem.mp3"," ","","comprou","","","",""
"","1149","audio-keyboard-response","715","1340853","0.0-3.0-1.601","../audio/32-4-fem.mp3"," ","","um","","","",""
"","2101","audio-keyboard-response","716","1343242","0.0-3.0-1.602","../audio/32-5-fem.mp3"," ","","pilão","","","",""
"","1080","audio-keyboard-response","717","1344609","0.0-3.0-1.603","../audio/32-6-fem.mp3"," ","","para","","","",""
"","971","audio-keyboard-response","718","1345869","0.0-3.0-1.604","../audio/32-7-fem.mp3"," ","","a","","","",""
"","1509","audio-keyboard-response","719","1347668","0.0-3.0-1.605","../audio/32-8-fem.mp3"," ","","cozinha.","","","",""
"","null","html-keyboard-response","720","1348930","0.0-3.0-0.606-0.606","<span style= ""font-size:30px; font-family: monospace"">+</span>","null","fixation","","","","",""
"","832","audio-keyboard-response","721","1350121","0.0-3.0-1.606","../audio/35-1-fem.mp3"," ","","A","","","",""
"","1011","audio-keyboard-response","722","1351469","0.0-3.0-1.607","../audio/35-2-fem.mp3"," ","","receita","","","",""
"","1141","audio-keyboard-response","723","1352915","0.0-3.0-1.608","../audio/35-3-fem.mp3"," ","","para","","","",""
"","848","audio-keyboard-response","724","1354094","0.0-3.0-1.609","../audio/35-4-fem.mp3"," ","","a","","","",""
"","1611","audio-keyboard-response","725","1356038","0.0-3.0-1.610","../audio/35-5-fem.mp3"," ","","preparação","","","",""
"","1221","audio-keyboard-response","726","1357596","0.0-3.0-1.611","../audio/35-6-fem.mp3"," ","","do","","","",""
"","1269","audio-keyboard-response","727","1359196","0.0-3.0-1.612","../audio/35-7-fem.mp3"," ","","bolo","","","",""
"","619","audio-keyboard-response","728","1360140","0.0-3.0-1.613","../audio/35-8-fem.mp3"," ","","é","","","",""
"","269","audio-keyboard-response","729","1360817","0.0-3.0-1.614","../audio/35-9-fem.mp3"," ","","leve.","","","",""
"","3654","html-keyboard-response","730","1364727","0.0-3.0-2.614-0.614","<span style=""font-size:25px; font-family: monospace"">A receita do bolo é pesada?</span>","s","","","A receita do bolo é pesada?","null","exp-sent","false"
"[{""page_index"":0,""viewing_time"":9986}]","9987","instructions","731","1375218","0.0-4.0","","","","","","","",""
