[
	{
		"view_history": [
			{
				"page_index": 0,
				"viewing_time": 11944
			}
		],
		"rt": 11944,
		"trial_type": "instructions",
		"trial_index": 0,
		"time_elapsed": 11948,
		"internal_node_id": "0.0-0.0"
	},
	{
		"rt": 54039,
		"response": {
			"reading_habits_printed_magazines": "Alguns dias da semana",
			"reading_habits_printed_newspapers": "Raramente",
			"reading_habits_books": "Todos os dias",
			"reading_habits_printed_socialmedias": "Raramente"
		},
		"question_order": [
			0,
			1,
			2,
			3
		],
		"trial_type": "survey-multi-choice",
		"trial_index": 1,
		"time_elapsed": 66102,
		"internal_node_id": "0.0-1.0"
	},
	{
		"rt": 27453,
		"response": {
			"reading_habits_virtual_magazines": "Todos os dias",
			"reading_habits_virtual_newspapers": "Todos os dias",
			"reading_habits_books": "Alguns dias da semana",
			"reading_habits_virtual_socialmedias": "Raramente"
		},
		"question_order": [
			0,
			1,
			2,
			3
		],
		"trial_type": "survey-multi-choice",
		"trial_index": 2,
		"time_elapsed": 93666,
		"internal_node_id": "0.0-2.0"
	},
	{
		"rt": 68146,
		"response": {
			"reading_habits_other_which": "gosta muito de ler livros em pt",
			"reading_habits_other_frequency": "todos os dias, de noite"
		},
		"trial_type": "survey-text",
		"trial_index": 3,
		"time_elapsed": 161946,
		"internal_node_id": "0.0-3.0"
	}
]