[
	{
		"view_history": [
			{
				"page_index": 0,
				"viewing_time": 2017
			}
		],
		"rt": 2017,
		"trial_type": "instructions",
		"trial_index": 0,
		"time_elapsed": 2020,
		"internal_node_id": "0.0-0.0"
	},
	{
		"rt": 16404,
		"response": {
			"age": "18\n"
		},
		"trial_type": "survey-text",
		"trial_index": 1,
		"time_elapsed": 18537,
		"internal_node_id": "0.0-1.0"
	},
	{
		"rt": 11443,
		"response": {
			"sex": "Feminino"
		},
		"question_order": [
			0
		],
		"trial_type": "survey-multi-choice",
		"trial_index": 2,
		"time_elapsed": 30080,
		"internal_node_id": "0.0-2.0"
	},
	{
		"rt": 29263,
		"response": {
			"own_schooling": "Ensino Fundamental"
		},
		"question_order": [
			0
		],
		"trial_type": "survey-multi-choice",
		"trial_index": 3,
		"time_elapsed": 59453,
		"internal_node_id": "0.0-3.0"
	},
	{
		"rt": 67130,
		"response": {
			"mother_schooling": "Ensino Médio completo"
		},
		"question_order": [
			0
		],
		"trial_type": "survey-multi-choice",
		"trial_index": 4,
		"time_elapsed": 126693,
		"internal_node_id": "0.0-4.0"
	},
	{
		"rt": 12549,
		"response": {
			"father_schooling": "Ensino Médio completo"
		},
		"question_order": [
			0
		],
		"trial_type": "survey-multi-choice",
		"trial_index": 5,
		"time_elapsed": 139351,
		"internal_node_id": "0.0-5.0"
	},
	{
		"rt": 526986,
		"response": {
			"language_0": "crioulo haitiano",
			"listening_0": "2",
			"speaking_0": "2",
			"reading_0": "4",
			"writing_0": "4",
			"language_1": "frances",
			"listening_1": "10",
			"speaking_1": "10",
			"reading_1": "5",
			"writing_1": "5",
			"language_2": "portugues",
			"listening_2": "18",
			"speaking_2": "17",
			"reading_2": "18",
			"writing_2": "18",
			"language_3": "",
			"listening_3": "",
			"speaking_3": "",
			"reading_3": "",
			"writing_3": ""
		},
		"trial_type": "survey-html-form",
		"trial_index": 6,
		"time_elapsed": 666446,
		"internal_node_id": "0.0-6.0"
	},
	{
		"rt": 169272,
		"response": {
			"language_3": "",
			"listening_3": "",
			"speaking_3": "",
			"reading_3": "",
			"writing_3": "",
			"language_1": "F",
			"listening_1": "5",
			"speaking_1": "5",
			"reading_1": "5",
			"writing_1": "5",
			"language_2": "P",
			"listening_2": "1",
			"speaking_2": "1",
			"reading_2": "1",
			"writing_2": "1"
		},
		"trial_type": "survey-html-form",
		"trial_index": 7,
		"time_elapsed": 835826,
		"internal_node_id": "0.0-7.0"
	},
	{
		"rt": 11878,
		"response": {
			"country_of_origin": "Haiti"
		},
		"trial_type": "survey-text",
		"trial_index": 8,
		"time_elapsed": 847830,
		"internal_node_id": "0.0-8.0"
	},
	{
		"rt": 42468,
		"response": {
			"country_of_residence": "Brasil 2021 julho"
		},
		"trial_type": "survey-text",
		"trial_index": 9,
		"time_elapsed": 890420,
		"internal_node_id": "0.0-9.0"
	},
	{
		"rt": 44596,
		"response": {
			"country_0": "",
			"duration_0": "",
			"language_0": "",
			"frequency_0": "",
			"country_1": "",
			"duration_1": "",
			"language_1": "",
			"frequency_1": "",
			"country_2": "",
			"duration_2": "",
			"language_2": "",
			"frequency_2": "",
			"country_3": "",
			"duration_3": "",
			"language_3": "",
			"frequency_3": ""
		},
		"trial_type": "survey-html-form",
		"trial_index": 10,
		"time_elapsed": 935127,
		"internal_node_id": "0.0-10.0"
	},
	{
		"rt": 286991,
		"response": {
			"language_0": "C",
			"context_0": "1,3",
			"language_1": "F",
			"context_1": "2,1",
			"language_2": "P",
			"context_2": "2,1,3",
			"language_3": "",
			"context_3": ""
		},
		"trial_type": "survey-html-form",
		"trial_index": 11,
		"time_elapsed": 1222224,
		"internal_node_id": "0.0-11.0"
	},
	{
		"rt": 253827,
		"response": {
			"language_0": "C",
			"home_0": "1",
			"friends_0": "1",
			"school_0": "2",
			"work_0": "-",
			"computer_0": "-",
			"games_0": "-",
			"language_1": "F",
			"home_1": "-",
			"friends_1": "5",
			"school_1": "5",
			"work_1": "-",
			"computer_1": "-",
			"games_1": "-",
			"language_2": "P",
			"home_2": "17",
			"friends_2": "17",
			"school_2": "17",
			"work_2": "-",
			"computer_2": "17",
			"games_2": "17",
			"language_3": "",
			"home_3": "",
			"friends_3": "",
			"school_3": "",
			"work_3": "",
			"computer_3": "",
			"games_3": ""
		},
		"trial_type": "survey-html-form",
		"trial_index": 12,
		"time_elapsed": 1476165,
		"internal_node_id": "0.0-12.0"
	},
	{
		"rt": 63601,
		"response": {
			"new_languages": 3
		},
		"question_order": [
			0
		],
		"trial_type": "survey-likert",
		"trial_index": 13,
		"time_elapsed": 1539875,
		"internal_node_id": "0.0-13.0"
	},
	{
		"rt": 182109,
		"response": {
			"language_0": "C",
			"listen_0": "7",
			"talk_0": "6",
			"read_0": "6",
			"write_0": "7",
			"language_1": "F",
			"listen_1": "6",
			"talk_1": "5",
			"read_1": "7",
			"write_1": "6",
			"language_2": "P",
			"listen_2": "4",
			"talk_2": "2",
			"read_2": "7",
			"write_2": "4",
			"language_3": "",
			"listen_3": "",
			"talk_3": "",
			"read_3": "",
			"write_3": ""
		},
		"trial_type": "survey-html-form",
		"trial_index": 14,
		"time_elapsed": 1722096,
		"internal_node_id": "0.0-14.0"
	},
	{
		"rt": 240163,
		"response": {
			"language_0": "C",
			"tv_0": "-",
			"radio_0": "-",
			"read_fun_0": "-",
			"read_work_0": "-",
			"write_0": "-",
			"social_nets_0": "6",
			"language_1": "F",
			"tv_1": "6",
			"radio_1": "-",
			"read_fun_1": "-",
			"read_work_1": "-",
			"write_1": "-",
			"social_nets_1": "1",
			"language_2": "P",
			"tv_2": "12",
			"radio_2": "-",
			"read_fun_2": "12",
			"read_work_2": "12",
			"write_2": "12",
			"social_nets_2": "6",
			"language_3": "",
			"tv_3": "",
			"radio_3": "",
			"read_fun_3": "",
			"read_work_3": "",
			"write_3": "",
			"social_nets_3": ""
		},
		"trial_type": "survey-html-form",
		"trial_index": 15,
		"time_elapsed": 1962371,
		"internal_node_id": "0.0-15.0"
	},
	{
		"rt": 266499,
		"response": {
			"language_0": "C",
			"family_0": "10",
			"friends_0": "20",
			"work_0": "-",
			"school_0": "6",
			"language_1": "F",
			"family_1": "-",
			"friends_1": "20",
			"work_1": "-",
			"school_1": "-",
			"language_2": "P",
			"family_2": "2",
			"friends_2": "20",
			"work_2": "-",
			"school_2": "6",
			"language_3": "",
			"family_3": "",
			"friends_3": "",
			"work_3": "",
			"school_3": ""
		},
		"trial_type": "survey-html-form",
		"trial_index": 16,
		"time_elapsed": 2228974,
		"internal_node_id": "0.0-16.0"
	},
	{
		"rt": 139778,
		"response": {
			"language_0_0": "C",
			"language_0_1": "C",
			"language_0_2": "P",
			"language_0_3": "P, C",
			"language_1_0": "P, C",
			"language_1_1": "P, C",
			"language_1_2": "P, C",
			"language_1_3": "P, C",
			"language_2_0": "P",
			"language_2_1": "P",
			"language_2_2": "P",
			"language_2_3": "P",
			"language_3_0": "-",
			"language_3_1": "-",
			"language_3_2": "-",
			"language_3_3": "-"
		},
		"trial_type": "survey-html-form",
		"trial_index": 17,
		"time_elapsed": 2368855,
		"internal_node_id": "0.0-17.0"
	},
	{
		"rt": 252448,
		"response": {
			"language_2": "P",
			"think_2": "1",
			"selftalk_2": "2",
			"emotions_2": "1",
			"dream_2": "1",
			"math_2": "4",
			"remember_2": "4",
			"pray_2": "2",
			"language_1": "F",
			"think_1": "2",
			"selftalk_1": "2",
			"emotions_1": "2",
			"dream_1": "2",
			"math_1": "2",
			"remember_1": "2",
			"pray_1": "4",
			"language_3": "",
			"think_3": "",
			"selftalk_3": "",
			"emotions_3": "",
			"dream_3": "",
			"math_3": "",
			"remember_3": "",
			"pray_3": ""
		},
		"trial_type": "survey-html-form",
		"trial_index": 18,
		"time_elapsed": 2621411,
		"internal_node_id": "0.0-18.0"
	},
	{
		"rt": 50115,
		"response": {
			"dificuldade_visao_ou_audicao": "Sim"
		},
		"question_order": [
			0
		],
		"trial_type": "survey-multi-choice",
		"trial_index": 19,
		"time_elapsed": 2671640,
		"internal_node_id": "0.0-19.0"
	},
	{
		"rt": 64455,
		"response": {
			"detalhes_dificuldades_audicao_ou_visao": "LACRIMEJAR MUITO ASSISTINDO TV"
		},
		"trial_type": "survey-text",
		"trial_index": 20,
		"time_elapsed": 2736215,
		"internal_node_id": "0.0-20.0"
	},
	{
		"rt": 3567,
		"response": {
			"additional_info": ""
		},
		"trial_type": "survey-text",
		"trial_index": 21,
		"time_elapsed": 2739897,
		"internal_node_id": "0.0-21.0"
	}
]