"view_history","rt","trial_type","trial_index","time_elapsed","internal_node_id","stimulus","response","portuguese","kreyol"
"[{""page_index"":0,""viewing_time"":13317}]","13317","instructions","0","13319","0.0-0.0","","","",""
"","null","html-keyboard-response","1","13935","0.0-1.0-0.0","+","null","",""
"","4272","audio-keyboard-response","2","18507","0.0-1.0-1.0","../audio/teste-vocab--89.mp3","s","classificar","klasifika"
"","null","html-keyboard-response","3","19026","0.0-1.0-0.1","+","null","",""
"","2149","audio-keyboard-response","4","21215","0.0-1.0-1.1","../audio/teste-vocab--34.mp3","s","tronco","twon"
"","null","html-keyboard-response","5","21722","0.0-1.0-0.2","+","null","",""
"","2312","audio-keyboard-response","6","24071","0.0-1.0-1.2","../audio/teste-vocab--94.mp3","s","paralelo","paralèl"
"","null","html-keyboard-response","7","24579","0.0-1.0-0.3","+","null","",""
"","2059","audio-keyboard-response","8","26687","0.0-1.0-1.3","../audio/teste-vocab--50.mp3","s","artista","atis"
"","null","html-keyboard-response","9","27199","0.0-1.0-0.4","+","null","",""
"","1432","audio-keyboard-response","10","28670","0.0-1.0-1.4","../audio/teste-vocab--108.mp3","s","moradia","kay"
"","null","html-keyboard-response","11","29181","0.0-1.0-0.5","+","null","",""
"","2739","audio-keyboard-response","12","31960","0.0-1.0-1.5","../audio/teste-vocab--99.mp3","n","arqueólogo","akeyológ"
"","null","html-keyboard-response","13","32464","0.0-1.0-0.6","+","null","",""
"","2059","audio-keyboard-response","14","34569","0.0-1.0-1.6","../audio/teste-vocab--98.mp3","s","instruir","enstwi"
"","null","html-keyboard-response","15","35074","0.0-1.0-0.7","+","null","",""
"","1931","audio-keyboard-response","16","37046","0.0-1.0-1.7","../audio/teste-vocab--126.mp3","s","ambulante","promennen"
"","null","html-keyboard-response","17","37563","0.0-1.0-0.8","+","null","",""
"","1560","audio-keyboard-response","18","39161","0.0-1.0-1.8","../audio/teste-vocab--10.mp3","s","corneta","kòn"
"","null","html-keyboard-response","19","39663","0.0-1.0-0.9","+","null","",""
"","1549","audio-keyboard-response","20","41258","0.0-1.0-1.9","../audio/teste-vocab--92.mp3","s","esférico","won"
"","null","html-keyboard-response","21","41762","0.0-1.0-0.10","+","null","",""
"","1459","audio-keyboard-response","22","43247","0.0-1.0-1.10","../audio/teste-vocab--07.mp3","s","abajur","lanp"
"","null","html-keyboard-response","23","43756","0.0-1.0-0.11","+","null","",""
"","1848","audio-keyboard-response","24","45636","0.0-1.0-1.11","../audio/teste-vocab--86.mp3","s","pensar","panse"
"","null","html-keyboard-response","25","46144","0.0-1.0-0.12","+","null","",""
"","1571","audio-keyboard-response","26","47746","0.0-1.0-1.12","../audio/teste-vocab--46.mp3","s","ombro","zepòl"
"","null","html-keyboard-response","27","48264","0.0-1.0-0.13","+","null","",""
"","3189","audio-keyboard-response","28","51496","0.0-1.0-1.13","../audio/teste-vocab--70.mp3","n","funil","antónwa"
"","null","html-keyboard-response","29","52011","0.0-1.0-0.14","+","null","",""
"","2691","audio-keyboard-response","30","54755","0.0-1.0-1.14","../audio/teste-vocab--66.mp3","s","cooperação","koperasyon"
"","null","html-keyboard-response","31","55263","0.0-1.0-0.15","+","null","",""
"","2429","audio-keyboard-response","32","57760","0.0-1.0-1.15","../audio/teste-vocab--107.mp3","s","elo","emay"
"","null","html-keyboard-response","33","58263","0.0-1.0-0.16","+","null","",""
"","1669","audio-keyboard-response","34","59999","0.0-1.0-1.16","../audio/teste-vocab--02.mp3","s","homem","gason"
"","null","html-keyboard-response","35","60511","0.0-1.0-0.17","+","null","",""
"","1581","audio-keyboard-response","36","62150","0.0-1.0-1.17","../audio/teste-vocab--26.mp3","s","cotovelo","koud"
"","null","html-keyboard-response","37","62652","0.0-1.0-0.18","+","null","",""
"","1411","audio-keyboard-response","38","64101","0.0-1.0-1.18","../audio/teste-vocab--117.mp3","s","córnea","kòn"
"","null","html-keyboard-response","39","64602","0.0-1.0-0.19","+","null","",""
"","1560","audio-keyboard-response","40","66197","0.0-1.0-1.19","../audio/teste-vocab--20.mp3","s","medir","mezire"
"","null","html-keyboard-response","41","66710","0.0-1.0-0.20","+","null","",""
"","1360","audio-keyboard-response","42","68119","0.0-1.0-1.20","../audio/teste-vocab--21.mp3","s","baleia","balèn"
"","null","html-keyboard-response","43","68627","0.0-1.0-0.21","+","null","",""
"","3048","audio-keyboard-response","44","71720","0.0-1.0-1.21","../audio/teste-vocab--79.mp3","n","moldura"," chanbranl"
"","null","html-keyboard-response","45","72233","0.0-1.0-0.22","+","null","",""
"","2080","audio-keyboard-response","46","74356","0.0-1.0-1.22","../audio/teste-vocab--56.mp3","s","agricultura","agrikilti"
"","null","html-keyboard-response","47","74873","0.0-1.0-0.23","+","null","",""
"","1848","audio-keyboard-response","48","76761","0.0-1.0-1.23","../audio/teste-vocab--62.mp3","s","carretel","bobin"
"","null","html-keyboard-response","49","77266","0.0-1.0-0.24","+","null","",""
"","1528","audio-keyboard-response","50","78841","0.0-1.0-1.24","../audio/teste-vocab--104.mp3","s","ira","pwal"
"","null","html-keyboard-response","51","79343","0.0-1.0-0.25","+","null","",""
"","2472","audio-keyboard-response","52","81865","0.0-1.0-1.25","../audio/teste-vocab--65.mp3","s","discussão","diskisyon"
"","null","html-keyboard-response","53","82369","0.0-1.0-0.26","+","null","",""
"","2160","audio-keyboard-response","54","84576","0.0-1.0-1.26","../audio/teste-vocab--76.mp3","s","arquivar","achive"
"","null","html-keyboard-response","55","85088","0.0-1.0-0.27","+","null","",""
"","3141","audio-keyboard-response","56","88267","0.0-1.0-1.27","../audio/teste-vocab--101.mp3","n","incandescente","enkandesan"
"","null","html-keyboard-response","57","88770","0.0-1.0-0.28","+","null","",""
"","1760","audio-keyboard-response","58","90572","0.0-1.0-1.28","../audio/teste-vocab--57.mp3","s","raiz","rasin"
"","null","html-keyboard-response","59","91083","0.0-1.0-0.29","+","null","",""
"","2741","audio-keyboard-response","60","93866","0.0-1.0-1.29","../audio/teste-vocab--113.mp3","s","ascender","limen"
"","null","html-keyboard-response","61","94380","0.0-1.0-0.30","+","null","",""
"","2229","audio-keyboard-response","62","96655","0.0-1.0-1.30","../audio/teste-vocab--110.mp3","s","prodígio","pwodij"
"","null","html-keyboard-response","63","97159","0.0-1.0-0.31","+","null","",""
"","1560","audio-keyboard-response","64","98762","0.0-1.0-1.31","../audio/teste-vocab--30.mp3","s","pintor","pent"
"","null","html-keyboard-response","65","99269","0.0-1.0-0.32","+","null","",""
"","1960","audio-keyboard-response","66","101273","0.0-1.0-1.32","../audio/teste-vocab--27.mp3","s","rio","rivyè"
"","null","html-keyboard-response","67","101776","0.0-1.0-0.33","+","null","",""
"","2269","audio-keyboard-response","68","104083","0.0-1.0-1.33","../audio/teste-vocab--124.mp3","s","obelisco","obelisk"
"","null","html-keyboard-response","69","104597","0.0-1.0-0.34","+","null","",""
"","1952","audio-keyboard-response","70","106589","0.0-1.0-1.34","../audio/teste-vocab--36.mp3","s","grupo","gwoup"
"","null","html-keyboard-response","71","107093","0.0-1.0-0.35","+","null","",""
"","2251","audio-keyboard-response","72","109383","0.0-1.0-1.35","../audio/teste-vocab--116.mp3","n","vestuário","vestyè"
"","null","html-keyboard-response","73","109892","0.0-1.0-0.36","+","null","",""
"","3139","audio-keyboard-response","74","113081","0.0-1.0-1.36","../audio/teste-vocab--109.mp3","s","anfíbio","anfibyen"
"","null","html-keyboard-response","75","113585","0.0-1.0-0.37","+","null","",""
"","2779","audio-keyboard-response","76","116405","0.0-1.0-1.37","../audio/teste-vocab--68.mp3","s","surpreendido","sezi"
"","null","html-keyboard-response","77","116907","0.0-1.0-0.38","+","null","",""
"","1811","audio-keyboard-response","78","118769","0.0-1.0-1.38","../audio/teste-vocab--106.mp3","s","lubrificar","grese"
"","null","html-keyboard-response","79","119275","0.0-1.0-0.39","+","null","",""
"","2541","audio-keyboard-response","80","121860","0.0-1.0-1.39","../audio/teste-vocab--103.mp3","s","utensílio","istansil"
"","null","html-keyboard-response","81","122368","0.0-1.0-0.40","+","null","",""
"","1411","audio-keyboard-response","82","123819","0.0-1.0-1.40","../audio/teste-vocab--14.mp3","s","ler","li"
"","null","html-keyboard-response","83","124333","0.0-1.0-0.41","+","null","",""
"","1829","audio-keyboard-response","84","126198","0.0-1.0-1.41","../audio/teste-vocab--55.mp3","s","bosque","forè"
"","null","html-keyboard-response","85","126699","0.0-1.0-0.42","+","null","",""
"","2029","audio-keyboard-response","86","128769","0.0-1.0-1.42","../audio/teste-vocab--38.mp3","s","cerimônia","seremoni"
"","null","html-keyboard-response","87","129275","0.0-1.0-0.43","+","null","",""
"","2101","audio-keyboard-response","88","131416","0.0-1.0-1.43","../audio/teste-vocab--102.mp3","s","arrogante","arogan"
"","null","html-keyboard-response","89","131932","0.0-1.0-0.44","+","null","",""
"","1651","audio-keyboard-response","90","133626","0.0-1.0-1.44","../audio/teste-vocab--49.mp3","s","humano","moun"
"","null","html-keyboard-response","91","134138","0.0-1.0-0.45","+","null","",""
"","1648","audio-keyboard-response","92","135843","0.0-1.0-1.45","../audio/teste-vocab--18.mp3","s","abelha","myèl"
"","null","html-keyboard-response","93","136348","0.0-1.0-0.46","+","null","",""
"","3400","audio-keyboard-response","94","139793","0.0-1.0-1.46","../audio/teste-vocab--105.mp3","n","cítrico","sitrik"
"","null","html-keyboard-response","95","140308","0.0-1.0-0.47","+","null","",""
"","2061","audio-keyboard-response","96","142417","0.0-1.0-1.47","../audio/teste-vocab--125.mp3","s","lamaçal","labou"
"","null","html-keyboard-response","97","142921","0.0-1.0-0.48","+","null","",""
"","1749","audio-keyboard-response","98","144725","0.0-1.0-1.48","../audio/teste-vocab--47.mp3","s","envelope","anvlope"
"","null","html-keyboard-response","99","145228","0.0-1.0-0.49","+","null","",""
"","2061","audio-keyboard-response","100","147336","0.0-1.0-1.49","../audio/teste-vocab--120.mp3","s","induzir","pwovoke"
"","null","html-keyboard-response","101","147843","0.0-1.0-0.50","+","null","",""
"","2000","audio-keyboard-response","102","149900","0.0-1.0-1.50","../audio/teste-vocab--51.mp3","s","recolher","kolekte"
"","null","html-keyboard-response","103","150406","0.0-1.0-0.51","+","null","",""
"","1640","audio-keyboard-response","104","152076","0.0-1.0-1.51","../audio/teste-vocab--73.mp3","s","ângulo","ang"
"","null","html-keyboard-response","105","152582","0.0-1.0-0.52","+","null","",""
"","1960","audio-keyboard-response","106","154593","0.0-1.0-1.52","../audio/teste-vocab--96.mp3","s","árido","sechrès"
"","null","html-keyboard-response","107","155096","0.0-1.0-0.53","+","null","",""
"","2960","audio-keyboard-response","108","158110","0.0-1.0-1.53","../audio/teste-vocab--74.mp3","s","desilusão","dezilizyon"
"","null","html-keyboard-response","109","158617","0.0-1.0-0.54","+","null","",""
"","2099","audio-keyboard-response","110","160759","0.0-1.0-1.54","../audio/teste-vocab--121.mp3","s","atônito","sezi"
"","null","html-keyboard-response","111","161263","0.0-1.0-0.55","+","null","",""
"","1800","audio-keyboard-response","112","163105","0.0-1.0-1.55","../audio/teste-vocab--71.mp3","s","caule","tij"
"","null","html-keyboard-response","113","163619","0.0-1.0-0.56","+","null","",""
"","2120","audio-keyboard-response","114","165776","0.0-1.0-1.56","../audio/teste-vocab--64.mp3","s","colher","kiyè"
"","null","html-keyboard-response","115","166281","0.0-1.0-0.57","+","null","",""
"","2931","audio-keyboard-response","116","169256","0.0-1.0-1.57","../audio/teste-vocab--61.mp3","s","iluminação","iliminasyon"
"","null","html-keyboard-response","117","169759","0.0-1.0-0.58","+","null","",""
"","2189","audio-keyboard-response","118","171998","0.0-1.0-1.58","../audio/teste-vocab--32.mp3","s","descascar","dekale"
"","null","html-keyboard-response","119","172513","0.0-1.0-0.59","+","null","",""
"","1872","audio-keyboard-response","120","174431","0.0-1.0-1.59","../audio/teste-vocab--31.mp3","s","vazio","vid"
"","null","html-keyboard-response","121","174941","0.0-1.0-0.60","+","null","",""
"","1971","audio-keyboard-response","122","176930","0.0-1.0-1.60","../audio/teste-vocab--35.mp3","s","líquido","likid"
"","null","html-keyboard-response","123","177439","0.0-1.0-0.61","+","null","",""
"","2211","audio-keyboard-response","124","179686","0.0-1.0-1.61","../audio/teste-vocab--119.mp3","s","numeroso","anpil"
"","null","html-keyboard-response","125","180199","0.0-1.0-0.62","+","null","",""
"","1821","audio-keyboard-response","126","182066","0.0-1.0-1.62","../audio/teste-vocab--33.mp3","s","uniforme","inifòm"
"","null","html-keyboard-response","127","182570","0.0-1.0-0.63","+","null","",""
"","2771","audio-keyboard-response","128","185388","0.0-1.0-1.63","../audio/teste-vocab--115.mp3","s","perpendicular","pèpandikilè"
"","null","html-keyboard-response","129","185900","0.0-1.0-0.64","+","null","",""
"","1571","audio-keyboard-response","130","187514","0.0-1.0-1.64","../audio/teste-vocab--59.mp3","s","par","pè"
"","null","html-keyboard-response","131","188015","0.0-1.0-0.65","+","null","",""
"","2480","audio-keyboard-response","132","190527","0.0-1.0-1.65","../audio/teste-vocab--37.mp3","s","músico","mizisyen"
"","null","html-keyboard-response","133","191042","0.0-1.0-0.66","+","null","",""
"","2021","audio-keyboard-response","134","193107","0.0-1.0-1.66","../audio/teste-vocab--100.mp3","s","consumir","konsome"
"","null","html-keyboard-response","135","193612","0.0-1.0-0.67","+","null","",""
"","1600","audio-keyboard-response","136","195253","0.0-1.0-1.67","../audio/teste-vocab--39.mp3","s","cobra","koulèv"
"","null","html-keyboard-response","137","195762","0.0-1.0-0.68","+","null","",""
"","2331","audio-keyboard-response","138","198128","0.0-1.0-1.68","../audio/teste-vocab--83.mp3","s","morsa","mòs"
"","null","html-keyboard-response","139","198629","0.0-1.0-0.69","+","null","",""
"","2189","audio-keyboard-response","140","200864","0.0-1.0-1.69","../audio/teste-vocab--127.mp3","s","côncavo","konkav"
"","null","html-keyboard-response","141","201366","0.0-1.0-0.70","+","null","",""
"","2312","audio-keyboard-response","142","203713","0.0-1.0-1.70","../audio/teste-vocab--63.mp3","s","transparente","transparan"
"","null","html-keyboard-response","143","204220","0.0-1.0-0.71","+","null","",""
"","2560","audio-keyboard-response","144","206830","0.0-1.0-1.71","../audio/teste-vocab--25.mp3","s","canguru","kanguwou"
"","null","html-keyboard-response","145","207344","0.0-1.0-0.72","+","null","",""
"","2029","audio-keyboard-response","146","209423","0.0-1.0-1.72","../audio/teste-vocab--78.mp3","n","quarteto","qwatèt"
"","null","html-keyboard-response","147","209928","0.0-1.0-0.73","+","null","",""
"","1669","audio-keyboard-response","148","211636","0.0-1.0-1.73","../audio/teste-vocab--04.mp3","s","roda","wonn"
"","null","html-keyboard-response","149","212141","0.0-1.0-0.74","+","null","",""
"","1851","audio-keyboard-response","150","214030","0.0-1.0-1.74","../audio/teste-vocab--123.mp3","s","emissão","emisyon"
"","null","html-keyboard-response","151","214537","0.0-1.0-0.75","+","null","",""
"","1899","audio-keyboard-response","152","216477","0.0-1.0-1.75","../audio/teste-vocab--44.mp3","s","premiar","rekonpanse"
"","null","html-keyboard-response","153","216988","0.0-1.0-0.76","+","null","",""
"","1560","audio-keyboard-response","154","218605","0.0-1.0-1.76","../audio/teste-vocab--16.mp3","s","pescoço","kou"
"","null","html-keyboard-response","155","219107","0.0-1.0-0.77","+","null","",""
"","1669","audio-keyboard-response","156","220825","0.0-1.0-1.77","../audio/teste-vocab--24.mp3","s","acidente","aksidan"
"","null","html-keyboard-response","157","221334","0.0-1.0-0.78","+","null","",""
"","1899","audio-keyboard-response","158","223277","0.0-1.0-1.78","../audio/teste-vocab--05.mp3","s","limpar","netwaye"
"","null","html-keyboard-response","159","223784","0.0-1.0-0.79","+","null","",""
"","1829","audio-keyboard-response","160","225648","0.0-1.0-1.79","../audio/teste-vocab--42.mp3","s","isolamento","izòlman"
"","null","html-keyboard-response","161","226161","0.0-1.0-0.80","+","null","",""
"","1541","audio-keyboard-response","162","227745","0.0-1.0-1.80","../audio/teste-vocab--06.mp3","s","barco","bato"
"","null","html-keyboard-response","163","228248","0.0-1.0-0.81","+","null","",""
"","1600","audio-keyboard-response","164","229879","0.0-1.0-1.81","../audio/teste-vocab--29.mp3","s","rasgar","chire"
"","null","html-keyboard-response","165","230387","0.0-1.0-0.82","+","null","",""
"","1259","audio-keyboard-response","166","231677","0.0-1.0-1.82","../audio/teste-vocab--09.mp3","s","vela","bouji"
"","null","html-keyboard-response","167","232192","0.0-1.0-0.83","+","null","",""
"","1619","audio-keyboard-response","168","233852","0.0-1.0-1.83","../audio/teste-vocab--97.mp3","s","frágil","frajil"
"","null","html-keyboard-response","169","234353","0.0-1.0-0.84","+","null","",""
"","2512","audio-keyboard-response","170","236907","0.0-1.0-1.84","../audio/teste-vocab--112.mp3","s","aparição","aparisyon"
"","null","html-keyboard-response","171","237415","0.0-1.0-0.85","+","null","",""
"","819","audio-keyboard-response","172","238279","0.0-1.0-1.85","../audio/teste-vocab--81.mp3","s","judicial","jidisyè"
"","null","html-keyboard-response","173","238789","0.0-1.0-0.86","+","null","",""
"","1592","audio-keyboard-response","174","240429","0.0-1.0-1.86","../audio/teste-vocab--40.mp3","s","bebida","bwason"
"","null","html-keyboard-response","175","240945","0.0-1.0-0.87","+","null","",""
"","20019","audio-keyboard-response","176","260996","0.0-1.0-1.87","../audio/teste-vocab--122.mp3","s","transeunte","pasajè"
"","null","html-keyboard-response","177","261498","0.0-1.0-0.88","+","null","",""
"","2851","audio-keyboard-response","178","264387","0.0-1.0-1.88","../audio/teste-vocab--58.mp3","s","nutritivo","nourisan"
"","null","html-keyboard-response","179","264893","0.0-1.0-0.89","+","null","",""
"","2320","audio-keyboard-response","180","267262","0.0-1.0-1.89","../audio/teste-vocab--11.mp3","s","joelho","jenou"
"","null","html-keyboard-response","181","267768","0.0-1.0-0.90","+","null","",""
"","1581","audio-keyboard-response","182","269395","0.0-1.0-1.90","../audio/teste-vocab--03.mp3","s","balançar","balanse"
"","null","html-keyboard-response","183","269897","0.0-1.0-0.91","+","null","",""
"","2160","audio-keyboard-response","184","272115","0.0-1.0-1.91","../audio/teste-vocab--53.mp3","s","orientar","oryante"
"","null","html-keyboard-response","185","272629","0.0-1.0-0.92","+","null","",""
"","2021","audio-keyboard-response","186","274697","0.0-1.0-1.92","../audio/teste-vocab--48.mp3","s","joia","bijou"
"","null","html-keyboard-response","187","275202","0.0-1.0-0.93","+","null","",""
"","2131","audio-keyboard-response","188","277381","0.0-1.0-1.93","../audio/teste-vocab--67.mp3","s","corrimão","ranp"
"","null","html-keyboard-response","189","277885","0.0-1.0-0.94","+","null","",""
"","2000","audio-keyboard-response","190","279938","0.0-1.0-1.94","../audio/teste-vocab--82.mp3","s","roer","ronje"
"","null","html-keyboard-response","191","280448","0.0-1.0-0.95","+","null","",""
"","2379","audio-keyboard-response","192","282847","0.0-1.0-1.95","../audio/teste-vocab--128.mp3","s","incisivo","ensisiv"
"","null","html-keyboard-response","193","283352","0.0-1.0-0.96","+","null","",""
"","2211","audio-keyboard-response","194","285615","0.0-1.0-1.96","../audio/teste-vocab--85.mp3","s","trio","trio"
"","null","html-keyboard-response","195","286119","0.0-1.0-0.97","+","null","",""
"","1691","audio-keyboard-response","196","287863","0.0-1.0-1.97","../audio/teste-vocab--15.mp3","s","flecha","flèch"
"","null","html-keyboard-response","197","288374","0.0-1.0-0.98","+","null","",""
"","1600","audio-keyboard-response","198","290024","0.0-1.0-1.98","../audio/teste-vocab--28.mp3","s","águia","èg"
"","null","html-keyboard-response","199","290539","0.0-1.0-0.99","+","null","",""
"","1928","audio-keyboard-response","200","292516","0.0-1.0-1.99","../audio/teste-vocab--23.mp3","s","acariciar","karese"
"","null","html-keyboard-response","201","293020","0.0-1.0-0.100","+","null","",""
"","1771","audio-keyboard-response","202","294805","0.0-1.0-1.100","../audio/teste-vocab--13.mp3","s","ambulância","anbilans"
"","null","html-keyboard-response","203","295309","0.0-1.0-0.101","+","null","",""
"","1568","audio-keyboard-response","204","296915","0.0-1.0-1.101","../audio/teste-vocab--19.mp3","s","hora","è"
"","null","html-keyboard-response","205","297418","0.0-1.0-0.102","+","null","",""
"","1731","audio-keyboard-response","206","299185","0.0-1.0-1.102","../audio/teste-vocab--22.mp3","s","quebrado","kraze"
"","null","html-keyboard-response","207","299687","0.0-1.0-0.103","+","null","",""
"","1971","audio-keyboard-response","208","301696","0.0-1.0-1.103","../audio/teste-vocab--72.mp3","s","ilha","zile"
"","null","html-keyboard-response","209","302203","0.0-1.0-0.104","+","null","",""
"","2101","audio-keyboard-response","210","304336","0.0-1.0-1.104","../audio/teste-vocab--60.mp3","s","secretaria","sekretè"
"","null","html-keyboard-response","211","304841","0.0-1.0-0.105","+","null","",""
"","2240","audio-keyboard-response","212","307131","0.0-1.0-1.105","../audio/teste-vocab--77.mp3","s","comércio","komès"
"","null","html-keyboard-response","213","307635","0.0-1.0-0.106","+","null","",""
"","2339","audio-keyboard-response","214","310015","0.0-1.0-1.106","../audio/teste-vocab--52.mp3","s","construção","konstriksyon"
"","null","html-keyboard-response","215","310516","0.0-1.0-0.107","+","null","",""
"","2549","audio-keyboard-response","216","313092","0.0-1.0-1.107","../audio/teste-vocab--93.mp3","s","felino","leopa"
"","null","html-keyboard-response","217","313600","0.0-1.0-0.108","+","null","",""
"","1669","audio-keyboard-response","218","315325","0.0-1.0-1.108","../audio/teste-vocab--45.mp3","s","dentista","dantis"
"","null","html-keyboard-response","219","315840","0.0-1.0-0.109","+","null","",""
"","1589","audio-keyboard-response","220","317483","0.0-1.0-1.109","../audio/teste-vocab--43.mp3","s","mecânico","mekanisyen"
"","null","html-keyboard-response","221","317991","0.0-1.0-0.110","+","null","",""
"","2200","audio-keyboard-response","222","320237","0.0-1.0-1.110","../audio/teste-vocab--69.mp3","s","pingar","degoute"
"","null","html-keyboard-response","223","320743","0.0-1.0-0.111","+","null","",""
"","1829","audio-keyboard-response","224","322611","0.0-1.0-1.111","../audio/teste-vocab--130.mp3","s","gentil","dou"
"","null","html-keyboard-response","225","323118","0.0-1.0-0.112","+","null","",""
"","1792","audio-keyboard-response","226","324951","0.0-1.0-1.112","../audio/teste-vocab--08.mp3","s","vaca","vach"
"","null","html-keyboard-response","227","325456","0.0-1.0-0.113","+","null","",""
"","1989","audio-keyboard-response","228","327475","0.0-1.0-1.113","../audio/teste-vocab--95.mp3","s","submergir","plonje"
"","null","html-keyboard-response","229","327979","0.0-1.0-0.114","+","null","",""
"","1651","audio-keyboard-response","230","329674","0.0-1.0-1.114","../audio/teste-vocab--17.mp3","s","móvel","mobil"
"","null","html-keyboard-response","231","330179","0.0-1.0-0.115","+","null","",""
"","1659","audio-keyboard-response","232","331883","0.0-1.0-1.115","../audio/teste-vocab--12.mp3","s","jaula","kaj"
"","null","html-keyboard-response","233","332386","0.0-1.0-0.116","+","null","",""
"","1909","audio-keyboard-response","234","334342","0.0-1.0-1.116","../audio/teste-vocab--88.mp3","s","portátil","pòtab"
"","null","html-keyboard-response","235","334853","0.0-1.0-0.117","+","null","",""
"","1960","audio-keyboard-response","236","336847","0.0-1.0-1.117","../audio/teste-vocab--01.mp3","s","boneca","pope"
"","null","html-keyboard-response","237","337359","0.0-1.0-0.118","+","null","",""
"","2171","audio-keyboard-response","238","339570","0.0-1.0-1.118","../audio/teste-vocab--91.mp3","s","bússola","bousòl"
"","null","html-keyboard-response","239","340082","0.0-1.0-0.119","+","null","",""
"","2200","audio-keyboard-response","240","342315","0.0-1.0-1.119","../audio/teste-vocab--87.mp3","s","ave","zwazo"
"","null","html-keyboard-response","241","342818","0.0-1.0-0.120","+","null","",""
"","1939","audio-keyboard-response","242","344795","0.0-1.0-1.120","../audio/teste-vocab--54.mp3","s","arbusto","raje"
"","null","html-keyboard-response","243","345305","0.0-1.0-0.121","+","null","",""
"","3448","audio-keyboard-response","244","348800","0.0-1.0-1.121","../audio/teste-vocab--118.mp3","s","paralelogramo","paralelogram"
"","null","html-keyboard-response","245","349307","0.0-1.0-0.122","+","null","",""
"","2069","audio-keyboard-response","246","351416","0.0-1.0-1.122","../audio/teste-vocab--84.mp3","s","confiar","konfye"
"","null","html-keyboard-response","247","351924","0.0-1.0-0.123","+","null","",""
"","2149","audio-keyboard-response","248","354118","0.0-1.0-1.123","../audio/teste-vocab--90.mp3","s","carniça","kanivò"
"","null","html-keyboard-response","249","354625","0.0-1.0-0.124","+","null","",""
"","2051","audio-keyboard-response","250","356703","0.0-1.0-1.124","../audio/teste-vocab--114.mp3","s","fragmentar","dechire"
"","null","html-keyboard-response","251","357208","0.0-1.0-0.125","+","null","",""
"","2000","audio-keyboard-response","252","359238","0.0-1.0-1.125","../audio/teste-vocab--41.mp3","s","médico","doktè,"
"","null","html-keyboard-response","253","359741","0.0-1.0-0.126","+","null","",""
"","1819","audio-keyboard-response","254","361596","0.0-1.0-1.126","../audio/teste-vocab--129.mp3","s","elipse","elips"
"","null","html-keyboard-response","255","362101","0.0-1.0-0.127","+","null","",""
"","2368","audio-keyboard-response","256","364522","0.0-1.0-1.127","../audio/teste-vocab--80.mp3","s","binóculo","longvi"
"","null","html-keyboard-response","257","365033","0.0-1.0-0.128","+","null","",""
"","2520","audio-keyboard-response","258","367590","0.0-1.0-1.128","../audio/teste-vocab--75.mp3","s","carpinteiro","chapantye"
"","null","html-keyboard-response","259","368099","0.0-1.0-0.129","+","null","",""
"","2139","audio-keyboard-response","260","370276","0.0-1.0-1.129","../audio/teste-vocab--111.mp3","s","jubilosa","rejwisans"
