[
	{
		"view_history": [
			{
				"page_index": 0,
				"viewing_time": 76887
			},
			{
				"page_index": 1,
				"viewing_time": 1039
			}
		],
		"rt": 77926,
		"trial_type": "instructions",
		"trial_index": 0,
		"time_elapsed": 77928,
		"internal_node_id": "0.0-0.0"
	},
	{
		"rt": null,
		"stimulus": "<span style= \"font-size:30px; font-family: monospace\">+</span>",
		"response": null,
		"trial_part": "fixation",
		"trial_type": "html-keyboard-response",
		"trial_index": 1,
		"time_elapsed": 79049,
		"internal_node_id": "0.0-1.0-0.0-0.0"
	},
	{
		"rt": 6370,
		"stimulus": "<span style=\"font-size:30px; font-family: monospace\">O</span>",
		"response": " ",
		"trial": "prac-sent",
		"word": "O",
		"trial_type": "html-keyboard-response",
		"trial_index": 2,
		"time_elapsed": 85676,
		"internal_node_id": "0.0-1.0-1.0"
	},
	{
		"rt": 2411,
		"stimulus": "<span style=\"font-size:30px; font-family: monospace\">dia</span>",
		"response": " ",
		"trial": "prac-sent",
		"word": "dia",
		"trial_type": "html-keyboard-response",
		"trial_index": 3,
		"time_elapsed": 88344,
		"internal_node_id": "0.0-1.0-1.1"
	},
	{
		"rt": 2318,
		"stimulus": "<span style=\"font-size:30px; font-family: monospace\">estará</span>",
		"response": " ",
		"trial": "prac-sent",
		"word": "estará",
		"trial_type": "html-keyboard-response",
		"trial_index": 4,
		"time_elapsed": 90927,
		"internal_node_id": "0.0-1.0-1.2"
	},
	{
		"rt": 4513,
		"stimulus": "<span style=\"font-size:30px; font-family: monospace\">cheio</span>",
		"response": " ",
		"trial": "prac-sent",
		"word": "cheio",
		"trial_type": "html-keyboard-response",
		"trial_index": 5,
		"time_elapsed": 95696,
		"internal_node_id": "0.0-1.0-1.3"
	},
	{
		"rt": 1074,
		"stimulus": "<span style=\"font-size:30px; font-family: monospace\">de</span>",
		"response": " ",
		"trial": "prac-sent",
		"word": "de",
		"trial_type": "html-keyboard-response",
		"trial_index": 6,
		"time_elapsed": 97028,
		"internal_node_id": "0.0-1.0-1.4"
	},
	{
		"rt": 943,
		"stimulus": "<span style=\"font-size:30px; font-family: monospace\">nuvens</span>",
		"response": " ",
		"trial": "prac-sent",
		"word": "nuvens",
		"trial_type": "html-keyboard-response",
		"trial_index": 7,
		"time_elapsed": 98235,
		"internal_node_id": "0.0-1.0-1.5"
	},
	{
		"rt": 1060,
		"stimulus": "<span style=\"font-size:30px; font-family: monospace\">hoje.</span>",
		"response": " ",
		"trial": "prac-sent",
		"word": "hoje.",
		"trial_type": "html-keyboard-response",
		"trial_index": 8,
		"time_elapsed": 99550,
		"internal_node_id": "0.0-1.0-1.6"
	},
	{
		"rt": null,
		"stimulus": "<span style= \"font-size:30px; font-family: monospace\">+</span>",
		"response": null,
		"trial_part": "fixation",
		"trial_type": "html-keyboard-response",
		"trial_index": 9,
		"time_elapsed": 100810,
		"internal_node_id": "0.0-1.0-0.7-0.7"
	},
	{
		"rt": 1658,
		"stimulus": "<span style=\"font-size:30px; font-family: monospace\">A</span>",
		"response": " ",
		"trial": "prac-sent",
		"word": "A",
		"trial_type": "html-keyboard-response",
		"trial_index": 10,
		"time_elapsed": 102722,
		"internal_node_id": "0.0-1.0-1.7"
	},
	{
		"rt": 1225,
		"stimulus": "<span style=\"font-size:30px; font-family: monospace\">caneca</span>",
		"response": " ",
		"trial": "prac-sent",
		"word": "caneca",
		"trial_type": "html-keyboard-response",
		"trial_index": 11,
		"time_elapsed": 104201,
		"internal_node_id": "0.0-1.0-1.8"
	},
	{
		"rt": 807,
		"stimulus": "<span style=\"font-size:30px; font-family: monospace\">colorida</span>",
		"response": " ",
		"trial": "prac-sent",
		"word": "colorida",
		"trial_type": "html-keyboard-response",
		"trial_index": 12,
		"time_elapsed": 105262,
		"internal_node_id": "0.0-1.0-1.9"
	},
	{
		"rt": 1115,
		"stimulus": "<span style=\"font-size:30px; font-family: monospace\">caiu</span>",
		"response": " ",
		"trial": "prac-sent",
		"word": "caiu",
		"trial_type": "html-keyboard-response",
		"trial_index": 13,
		"time_elapsed": 106635,
		"internal_node_id": "0.0-1.0-1.10"
	},
	{
		"rt": 697,
		"stimulus": "<span style=\"font-size:30px; font-family: monospace\">da</span>",
		"response": " ",
		"trial": "prac-sent",
		"word": "da",
		"trial_type": "html-keyboard-response",
		"trial_index": 14,
		"time_elapsed": 107592,
		"internal_node_id": "0.0-1.0-1.11"
	},
	{
		"rt": 859,
		"stimulus": "<span style=\"font-size:30px; font-family: monospace\">mesa</span>",
		"response": " ",
		"trial": "prac-sent",
		"word": "mesa",
		"trial_type": "html-keyboard-response",
		"trial_index": 15,
		"time_elapsed": 108713,
		"internal_node_id": "0.0-1.0-1.12"
	},
	{
		"rt": 486,
		"stimulus": "<span style=\"font-size:30px; font-family: monospace\">de</span>",
		"response": " ",
		"trial": "prac-sent",
		"word": "de",
		"trial_type": "html-keyboard-response",
		"trial_index": 16,
		"time_elapsed": 109452,
		"internal_node_id": "0.0-1.0-1.13"
	},
	{
		"rt": 1157,
		"stimulus": "<span style=\"font-size:30px; font-family: monospace\">jantar.</span>",
		"response": " ",
		"trial": "prac-comp",
		"word": "jantar.",
		"trial_type": "html-keyboard-response",
		"trial_index": 17,
		"time_elapsed": 110874,
		"internal_node_id": "0.0-1.0-1.14"
	},
	{
		"rt": 69719,
		"stimulus": "<span style=\"font-size:30px; font-family: monospace\">A caneca permaneceu na mesa?</span>",
		"response": "n",
		"question": "A caneca permaneceu na mesa?",
		"answer": "não",
		"trial": "prac-comp",
		"trial_type": "html-keyboard-response",
		"trial_index": 18,
		"time_elapsed": 180850,
		"internal_node_id": "0.0-1.0-2.14-0.14",
		"accuracy": false
	},
	{
		"view_history": [
			{
				"page_index": 0,
				"viewing_time": 53393
			}
		],
		"rt": 53394,
		"trial_type": "instructions",
		"trial_index": 19,
		"time_elapsed": 234754,
		"internal_node_id": "0.0-2.0"
	},
	{
		"rt": null,
		"stimulus": "<span style= \"font-size:30px; font-family: monospace\">+</span>",
		"response": null,
		"trial_part": "fixation",
		"trial_type": "html-keyboard-response",
		"trial_index": 20,
		"time_elapsed": 235881,
		"internal_node_id": "0.0-3.0-0.0-0.0"
	},
	{
		"rt": 983,
		"stimulus": "<span style=\"font-size:30px; font-family: monospace\">A</span>",
		"response": " ",
		"trial": "exp-sent",
		"word": "A",
		"trial_type": "html-keyboard-response",
		"trial_index": 21,
		"time_elapsed": 237124,
		"internal_node_id": "0.0-3.0-1.0"
	},
	{
		"rt": 1396,
		"stimulus": "<span style=\"font-size:30px; font-family: monospace\">força</span>",
		"response": " ",
		"trial": "exp-sent",
		"word": "força",
		"trial_type": "html-keyboard-response",
		"trial_index": 22,
		"time_elapsed": 238779,
		"internal_node_id": "0.0-3.0-1.1"
	},
	{
		"rt": 1289,
		"stimulus": "<span style=\"font-size:30px; font-family: monospace\">d'água</span>",
		"response": " ",
		"trial": "exp-sent",
		"word": "d'água",
		"trial_type": "html-keyboard-response",
		"trial_index": 23,
		"time_elapsed": 240333,
		"internal_node_id": "0.0-3.0-1.2"
	},
	{
		"rt": 1270,
		"stimulus": "<span style=\"font-size:30px; font-family: monospace\">estava</span>",
		"response": " ",
		"trial": "exp-sent",
		"word": "estava",
		"trial_type": "html-keyboard-response",
		"trial_index": 24,
		"time_elapsed": 241867,
		"internal_node_id": "0.0-3.0-1.3"
	},
	{
		"rt": 2568,
		"stimulus": "<span style=\"font-size:30px; font-family: monospace\">normal</span>",
		"response": " ",
		"trial": "exp-sent",
		"word": "normal",
		"trial_type": "html-keyboard-response",
		"trial_index": 25,
		"time_elapsed": 244698,
		"internal_node_id": "0.0-3.0-1.4"
	},
	{
		"rt": 6246,
		"stimulus": "<span style=\"font-size:30px; font-family: monospace\">naquele</span>",
		"response": " ",
		"trial": "exp-sent",
		"word": "naquele",
		"trial_type": "html-keyboard-response",
		"trial_index": 26,
		"time_elapsed": 251202,
		"internal_node_id": "0.0-3.0-1.5"
	},
	{
		"rt": 450,
		"stimulus": "<span style=\"font-size:30px; font-family: monospace\">dia.</span>",
		"response": " ",
		"trial": "exp-sent",
		"word": "dia.",
		"trial_type": "html-keyboard-response",
		"trial_index": 27,
		"time_elapsed": 251903,
		"internal_node_id": "0.0-3.0-1.6"
	},
	{
		"rt": null,
		"stimulus": "<span style= \"font-size:30px; font-family: monospace\">+</span>",
		"response": null,
		"trial_part": "fixation",
		"trial_type": "html-keyboard-response",
		"trial_index": 28,
		"time_elapsed": 253167,
		"internal_node_id": "0.0-3.0-0.7-0.7"
	},
	{
		"rt": 7153,
		"stimulus": "<span style=\"font-size:30px; font-family: monospace\">A</span>",
		"response": " ",
		"trial": "exp-sent",
		"word": "A",
		"trial_type": "html-keyboard-response",
		"trial_index": 29,
		"time_elapsed": 260578,
		"internal_node_id": "0.0-3.0-1.7"
	},
	{
		"rt": 1630,
		"stimulus": "<span style=\"font-size:30px; font-family: monospace\">médica</span>",
		"response": " ",
		"trial": "exp-sent",
		"word": "médica",
		"trial_type": "html-keyboard-response",
		"trial_index": 30,
		"time_elapsed": 262461,
		"internal_node_id": "0.0-3.0-1.8"
	},
	{
		"rt": 844,
		"stimulus": "<span style=\"font-size:30px; font-family: monospace\">ofereceu</span>",
		"response": " ",
		"trial": "exp-sent",
		"word": "ofereceu",
		"trial_type": "html-keyboard-response",
		"trial_index": 31,
		"time_elapsed": 263557,
		"internal_node_id": "0.0-3.0-1.9"
	},
	{
		"rt": 501,
		"stimulus": "<span style=\"font-size:30px; font-family: monospace\">a</span>",
		"response": " ",
		"trial": "exp-sent",
		"word": "a",
		"trial_type": "html-keyboard-response",
		"trial_index": 32,
		"time_elapsed": 264314,
		"internal_node_id": "0.0-3.0-1.10"
	},
	{
		"rt": 807,
		"stimulus": "<span style=\"font-size:30px; font-family: monospace\">pomada</span>",
		"response": " ",
		"trial": "exp-sent",
		"word": "pomada",
		"trial_type": "html-keyboard-response",
		"trial_index": 33,
		"time_elapsed": 265380,
		"internal_node_id": "0.0-3.0-1.11"
	},
	{
		"rt": 550,
		"stimulus": "<span style=\"font-size:30px; font-family: monospace\">para</span>",
		"response": " ",
		"trial": "exp-sent",
		"word": "para",
		"trial_type": "html-keyboard-response",
		"trial_index": 34,
		"time_elapsed": 266193,
		"internal_node_id": "0.0-3.0-1.12"
	},
	{
		"rt": 747,
		"stimulus": "<span style=\"font-size:30px; font-family: monospace\">o</span>",
		"response": " ",
		"trial": "exp-sent",
		"word": "o",
		"trial_type": "html-keyboard-response",
		"trial_index": 35,
		"time_elapsed": 267191,
		"internal_node_id": "0.0-3.0-1.13"
	},
	{
		"rt": 683,
		"stimulus": "<span style=\"font-size:30px; font-family: monospace\">avô.</span>",
		"response": " ",
		"trial": "exp-sent",
		"word": "avô.",
		"trial_type": "html-keyboard-response",
		"trial_index": 36,
		"time_elapsed": 268134,
		"internal_node_id": "0.0-3.0-1.14"
	},
	{
		"rt": null,
		"stimulus": "<span style= \"font-size:30px; font-family: monospace\">+</span>",
		"response": null,
		"trial_part": "fixation",
		"trial_type": "html-keyboard-response",
		"trial_index": 37,
		"time_elapsed": 269390,
		"internal_node_id": "0.0-3.0-0.15-0.15"
	},
	{
		"rt": 1299,
		"stimulus": "<span style=\"font-size:30px; font-family: monospace\">Ele</span>",
		"response": " ",
		"trial": "exp-sent",
		"word": "Ele",
		"trial_type": "html-keyboard-response",
		"trial_index": 38,
		"time_elapsed": 270945,
		"internal_node_id": "0.0-3.0-1.15"
	},
	{
		"rt": 1979,
		"stimulus": "<span style=\"font-size:30px; font-family: monospace\">conversou</span>",
		"response": " ",
		"trial": "exp-sent",
		"word": "conversou",
		"trial_type": "html-keyboard-response",
		"trial_index": 39,
		"time_elapsed": 273176,
		"internal_node_id": "0.0-3.0-1.16"
	},
	{
		"rt": 1653,
		"stimulus": "<span style=\"font-size:30px; font-family: monospace\">com</span>",
		"response": " ",
		"trial": "exp-sent",
		"word": "com",
		"trial_type": "html-keyboard-response",
		"trial_index": 40,
		"time_elapsed": 275085,
		"internal_node_id": "0.0-3.0-1.17"
	},
	{
		"rt": 1550,
		"stimulus": "<span style=\"font-size:30px; font-family: monospace\">o</span>",
		"response": " ",
		"trial": "exp-sent",
		"word": "o",
		"trial_type": "html-keyboard-response",
		"trial_index": 41,
		"time_elapsed": 276897,
		"internal_node_id": "0.0-3.0-1.18"
	},
	{
		"rt": 1118,
		"stimulus": "<span style=\"font-size:30px; font-family: monospace\">patrão</span>",
		"response": " ",
		"trial": "exp-sent",
		"word": "patrão",
		"trial_type": "html-keyboard-response",
		"trial_index": 42,
		"time_elapsed": 278276,
		"internal_node_id": "0.0-3.0-1.19"
	},
	{
		"rt": 1263,
		"stimulus": "<span style=\"font-size:30px; font-family: monospace\">durante</span>",
		"response": " ",
		"trial": "exp-sent",
		"word": "durante",
		"trial_type": "html-keyboard-response",
		"trial_index": 43,
		"time_elapsed": 279802,
		"internal_node_id": "0.0-3.0-1.20"
	},
	{
		"rt": 1115,
		"stimulus": "<span style=\"font-size:30px; font-family: monospace\">a</span>",
		"response": " ",
		"trial": "exp-sent",
		"word": "a",
		"trial_type": "html-keyboard-response",
		"trial_index": 44,
		"time_elapsed": 281173,
		"internal_node_id": "0.0-3.0-1.21"
	},
	{
		"rt": 1040,
		"stimulus": "<span style=\"font-size:30px; font-family: monospace\">tarde.</span>",
		"response": " ",
		"trial": "exp-sent",
		"word": "tarde.",
		"trial_type": "html-keyboard-response",
		"trial_index": 45,
		"time_elapsed": 282470,
		"internal_node_id": "0.0-3.0-1.22"
	},
	{
		"rt": null,
		"stimulus": "<span style= \"font-size:30px; font-family: monospace\">+</span>",
		"response": null,
		"trial_part": "fixation",
		"trial_type": "html-keyboard-response",
		"trial_index": 46,
		"time_elapsed": 283735,
		"internal_node_id": "0.0-3.0-0.23-0.23"
	},
	{
		"rt": 864,
		"stimulus": "<span style=\"font-size:30px; font-family: monospace\">Algumas</span>",
		"response": " ",
		"trial": "exp-sent",
		"word": "Algumas",
		"trial_type": "html-keyboard-response",
		"trial_index": 47,
		"time_elapsed": 284852,
		"internal_node_id": "0.0-3.0-1.23"
	},
	{
		"rt": 472,
		"stimulus": "<span style=\"font-size:30px; font-family: monospace\">pessoas</span>",
		"response": " ",
		"trial": "exp-sent",
		"word": "pessoas",
		"trial_type": "html-keyboard-response",
		"trial_index": 48,
		"time_elapsed": 285585,
		"internal_node_id": "0.0-3.0-1.24"
	},
	{
		"rt": 742,
		"stimulus": "<span style=\"font-size:30px; font-family: monospace\">acreditam</span>",
		"response": " ",
		"trial": "exp-sent",
		"word": "acreditam",
		"trial_type": "html-keyboard-response",
		"trial_index": 49,
		"time_elapsed": 286582,
		"internal_node_id": "0.0-3.0-1.25"
	},
	{
		"rt": 335,
		"stimulus": "<span style=\"font-size:30px; font-family: monospace\">em</span>",
		"response": " ",
		"trial": "exp-sent",
		"word": "em",
		"trial_type": "html-keyboard-response",
		"trial_index": 50,
		"time_elapsed": 287180,
		"internal_node_id": "0.0-3.0-1.26"
	},
	{
		"rt": 720,
		"stimulus": "<span style=\"font-size:30px; font-family: monospace\">espíritos</span>",
		"response": " ",
		"trial": "exp-sent",
		"word": "espíritos",
		"trial_type": "html-keyboard-response",
		"trial_index": 51,
		"time_elapsed": 288160,
		"internal_node_id": "0.0-3.0-1.27"
	},
	{
		"rt": 394,
		"stimulus": "<span style=\"font-size:30px; font-family: monospace\">e</span>",
		"response": " ",
		"trial": "exp-sent",
		"word": "e",
		"trial_type": "html-keyboard-response",
		"trial_index": 52,
		"time_elapsed": 288807,
		"internal_node_id": "0.0-3.0-1.28"
	},
	{
		"rt": 620,
		"stimulus": "<span style=\"font-size:30px; font-family: monospace\">em</span>",
		"response": " ",
		"trial": "exp-sent",
		"word": "em",
		"trial_type": "html-keyboard-response",
		"trial_index": 53,
		"time_elapsed": 289690,
		"internal_node_id": "0.0-3.0-1.29"
	},
	{
		"rt": 481,
		"stimulus": "<span style=\"font-size:30px; font-family: monospace\">outras</span>",
		"response": " ",
		"trial": "exp-sent",
		"word": "outras",
		"trial_type": "html-keyboard-response",
		"trial_index": 54,
		"time_elapsed": 290428,
		"internal_node_id": "0.0-3.0-1.30"
	},
	{
		"rt": 509,
		"stimulus": "<span style=\"font-size:30px; font-family: monospace\">vidas.</span>",
		"response": " ",
		"trial": "exp-sent",
		"word": "vidas.",
		"trial_type": "html-keyboard-response",
		"trial_index": 55,
		"time_elapsed": 291191,
		"internal_node_id": "0.0-3.0-1.31"
	},
	{
		"rt": null,
		"stimulus": "<span style= \"font-size:30px; font-family: monospace\">+</span>",
		"response": null,
		"trial_part": "fixation",
		"trial_type": "html-keyboard-response",
		"trial_index": 56,
		"time_elapsed": 292462,
		"internal_node_id": "0.0-3.0-0.32-0.32"
	},
	{
		"rt": 553,
		"stimulus": "<span style=\"font-size:30px; font-family: monospace\">Ela</span>",
		"response": " ",
		"trial": "exp-sent",
		"word": "Ela",
		"trial_type": "html-keyboard-response",
		"trial_index": 57,
		"time_elapsed": 293272,
		"internal_node_id": "0.0-3.0-1.32"
	},
	{
		"rt": 604,
		"stimulus": "<span style=\"font-size:30px; font-family: monospace\">gosta</span>",
		"response": " ",
		"trial": "exp-sent",
		"word": "gosta",
		"trial_type": "html-keyboard-response",
		"trial_index": 58,
		"time_elapsed": 294140,
		"internal_node_id": "0.0-3.0-1.33"
	},
	{
		"rt": 415,
		"stimulus": "<span style=\"font-size:30px; font-family: monospace\">de</span>",
		"response": " ",
		"trial": "exp-sent",
		"word": "de",
		"trial_type": "html-keyboard-response",
		"trial_index": 59,
		"time_elapsed": 294813,
		"internal_node_id": "0.0-3.0-1.34"
	},
	{
		"rt": 568,
		"stimulus": "<span style=\"font-size:30px; font-family: monospace\">estudar</span>",
		"response": " ",
		"trial": "exp-sent",
		"word": "estudar",
		"trial_type": "html-keyboard-response",
		"trial_index": 60,
		"time_elapsed": 295648,
		"internal_node_id": "0.0-3.0-1.35"
	},
	{
		"rt": 530,
		"stimulus": "<span style=\"font-size:30px; font-family: monospace\">matemática</span>",
		"response": " ",
		"trial": "exp-sent",
		"word": "matemática",
		"trial_type": "html-keyboard-response",
		"trial_index": 61,
		"time_elapsed": 296430,
		"internal_node_id": "0.0-3.0-1.36"
	},
	{
		"rt": 387,
		"stimulus": "<span style=\"font-size:30px; font-family: monospace\">com</span>",
		"response": " ",
		"trial": "exp-sent",
		"word": "com",
		"trial_type": "html-keyboard-response",
		"trial_index": 62,
		"time_elapsed": 297081,
		"internal_node_id": "0.0-3.0-1.37"
	},
	{
		"rt": 440,
		"stimulus": "<span style=\"font-size:30px; font-family: monospace\">colegas.</span>",
		"response": " ",
		"trial": "comp",
		"word": "colegas.",
		"trial_type": "html-keyboard-response",
		"trial_index": 63,
		"time_elapsed": 297772,
		"internal_node_id": "0.0-3.0-1.38"
	},
	{
		"rt": 42973,
		"stimulus": "<span style=\"font-size:30px; font-family: monospace\">Ela gosta de estudar física?</span>",
		"response": "n",
		"question": "Ela gosta de estudar física?",
		"answer": "não",
		"trial": "comp",
		"trial_type": "html-keyboard-response",
		"trial_index": 64,
		"time_elapsed": 341009,
		"internal_node_id": "0.0-3.0-2.38-0.38",
		"accuracy": false
	},
	{
		"rt": null,
		"stimulus": "<span style= \"font-size:30px; font-family: monospace\">+</span>",
		"response": null,
		"trial_part": "fixation",
		"trial_type": "html-keyboard-response",
		"trial_index": 65,
		"time_elapsed": 342520,
		"internal_node_id": "0.0-3.0-0.39-0.39"
	},
	{
		"rt": 2102,
		"stimulus": "<span style=\"font-size:30px; font-family: monospace\">Este</span>",
		"response": " ",
		"trial": "exp-sent",
		"word": "Este",
		"trial_type": "html-keyboard-response",
		"trial_index": 66,
		"time_elapsed": 344879,
		"internal_node_id": "0.0-3.0-1.39"
	},
	{
		"rt": 920,
		"stimulus": "<span style=\"font-size:30px; font-family: monospace\">conto</span>",
		"response": " ",
		"trial": "exp-sent",
		"word": "conto",
		"trial_type": "html-keyboard-response",
		"trial_index": 67,
		"time_elapsed": 346063,
		"internal_node_id": "0.0-3.0-1.40"
	},
	{
		"rt": 802,
		"stimulus": "<span style=\"font-size:30px; font-family: monospace\">tem</span>",
		"response": " ",
		"trial": "exp-sent",
		"word": "tem",
		"trial_type": "html-keyboard-response",
		"trial_index": 68,
		"time_elapsed": 347126,
		"internal_node_id": "0.0-3.0-1.41"
	},
	{
		"rt": 809,
		"stimulus": "<span style=\"font-size:30px; font-family: monospace\">um</span>",
		"response": " ",
		"trial": "exp-sent",
		"word": "um",
		"trial_type": "html-keyboard-response",
		"trial_index": 69,
		"time_elapsed": 348187,
		"internal_node_id": "0.0-3.0-1.42"
	},
	{
		"rt": 610,
		"stimulus": "<span style=\"font-size:30px; font-family: monospace\">final</span>",
		"response": " ",
		"trial": "exp-sent",
		"word": "final",
		"trial_type": "html-keyboard-response",
		"trial_index": 70,
		"time_elapsed": 349064,
		"internal_node_id": "0.0-3.0-1.43"
	},
	{
		"rt": 825,
		"stimulus": "<span style=\"font-size:30px; font-family: monospace\">perfeito.</span>",
		"response": " ",
		"trial": "exp-sent",
		"word": "perfeito.",
		"trial_type": "html-keyboard-response",
		"trial_index": 71,
		"time_elapsed": 350153,
		"internal_node_id": "0.0-3.0-1.44"
	},
	{
		"rt": null,
		"stimulus": "<span style= \"font-size:30px; font-family: monospace\">+</span>",
		"response": null,
		"trial_part": "fixation",
		"trial_type": "html-keyboard-response",
		"trial_index": 72,
		"time_elapsed": 351414,
		"internal_node_id": "0.0-3.0-0.45-0.45"
	},
	{
		"rt": 711,
		"stimulus": "<span style=\"font-size:30px; font-family: monospace\">Ele</span>",
		"response": " ",
		"trial": "exp-sent",
		"word": "Ele",
		"trial_type": "html-keyboard-response",
		"trial_index": 73,
		"time_elapsed": 352382,
		"internal_node_id": "0.0-3.0-1.45"
	},
	{
		"rt": 766,
		"stimulus": "<span style=\"font-size:30px; font-family: monospace\">precisa</span>",
		"response": " ",
		"trial": "exp-sent",
		"word": "precisa",
		"trial_type": "html-keyboard-response",
		"trial_index": 74,
		"time_elapsed": 353406,
		"internal_node_id": "0.0-3.0-1.46"
	},
	{
		"rt": 833,
		"stimulus": "<span style=\"font-size:30px; font-family: monospace\">de</span>",
		"response": " ",
		"trial": "exp-sent",
		"word": "de",
		"trial_type": "html-keyboard-response",
		"trial_index": 75,
		"time_elapsed": 354495,
		"internal_node_id": "0.0-3.0-1.47"
	},
	{
		"rt": 935,
		"stimulus": "<span style=\"font-size:30px; font-family: monospace\">um</span>",
		"response": " ",
		"trial": "exp-sent",
		"word": "um",
		"trial_type": "html-keyboard-response",
		"trial_index": 76,
		"time_elapsed": 355696,
		"internal_node_id": "0.0-3.0-1.48"
	},
	{
		"rt": 1096,
		"stimulus": "<span style=\"font-size:30px; font-family: monospace\">protetor</span>",
		"response": " ",
		"trial": "exp-sent",
		"word": "protetor",
		"trial_type": "html-keyboard-response",
		"trial_index": 77,
		"time_elapsed": 357054,
		"internal_node_id": "0.0-3.0-1.49"
	},
	{
		"rt": 528,
		"stimulus": "<span style=\"font-size:30px; font-family: monospace\">de</span>",
		"response": " ",
		"trial": "exp-sent",
		"word": "de",
		"trial_type": "html-keyboard-response",
		"trial_index": 78,
		"time_elapsed": 357833,
		"internal_node_id": "0.0-3.0-1.50"
	},
	{
		"rt": 573,
		"stimulus": "<span style=\"font-size:30px; font-family: monospace\">ouvido.</span>",
		"response": " ",
		"trial": "exp-sent",
		"word": "ouvido.",
		"trial_type": "html-keyboard-response",
		"trial_index": 79,
		"time_elapsed": 358660,
		"internal_node_id": "0.0-3.0-1.51"
	},
	{
		"rt": null,
		"stimulus": "<span style= \"font-size:30px; font-family: monospace\">+</span>",
		"response": null,
		"trial_part": "fixation",
		"trial_type": "html-keyboard-response",
		"trial_index": 80,
		"time_elapsed": 359931,
		"internal_node_id": "0.0-3.0-0.52-0.52"
	},
	{
		"rt": 805,
		"stimulus": "<span style=\"font-size:30px; font-family: monospace\">Os</span>",
		"response": " ",
		"trial": "exp-sent",
		"word": "Os",
		"trial_type": "html-keyboard-response",
		"trial_index": 81,
		"time_elapsed": 360992,
		"internal_node_id": "0.0-3.0-1.52"
	},
	{
		"rt": 588,
		"stimulus": "<span style=\"font-size:30px; font-family: monospace\">hábitos</span>",
		"response": " ",
		"trial": "exp-sent",
		"word": "hábitos",
		"trial_type": "html-keyboard-response",
		"trial_index": 82,
		"time_elapsed": 361832,
		"internal_node_id": "0.0-3.0-1.53"
	},
	{
		"rt": 309,
		"stimulus": "<span style=\"font-size:30px; font-family: monospace\">de</span>",
		"response": " ",
		"trial": "exp-sent",
		"word": "de",
		"trial_type": "html-keyboard-response",
		"trial_index": 83,
		"time_elapsed": 362407,
		"internal_node_id": "0.0-3.0-1.54"
	},
	{
		"rt": 664,
		"stimulus": "<span style=\"font-size:30px; font-family: monospace\">lugares</span>",
		"response": " ",
		"trial": "exp-sent",
		"word": "lugares",
		"trial_type": "html-keyboard-response",
		"trial_index": 84,
		"time_elapsed": 363337,
		"internal_node_id": "0.0-3.0-1.55"
	},
	{
		"rt": 578,
		"stimulus": "<span style=\"font-size:30px; font-family: monospace\">diferentes</span>",
		"response": " ",
		"trial": "exp-sent",
		"word": "diferentes",
		"trial_type": "html-keyboard-response",
		"trial_index": 85,
		"time_elapsed": 364172,
		"internal_node_id": "0.0-3.0-1.56"
	},
	{
		"rt": 576,
		"stimulus": "<span style=\"font-size:30px; font-family: monospace\">são</span>",
		"response": " ",
		"trial": "exp-sent",
		"word": "são",
		"trial_type": "html-keyboard-response",
		"trial_index": 86,
		"time_elapsed": 365003,
		"internal_node_id": "0.0-3.0-1.57"
	},
	{
		"rt": 490,
		"stimulus": "<span style=\"font-size:30px; font-family: monospace\">muito</span>",
		"response": " ",
		"trial": "exp-sent",
		"word": "muito",
		"trial_type": "html-keyboard-response",
		"trial_index": 87,
		"time_elapsed": 365751,
		"internal_node_id": "0.0-3.0-1.58"
	},
	{
		"rt": 498,
		"stimulus": "<span style=\"font-size:30px; font-family: monospace\">lindos.</span>",
		"response": " ",
		"trial": "exp-sent",
		"word": "lindos.",
		"trial_type": "html-keyboard-response",
		"trial_index": 88,
		"time_elapsed": 366515,
		"internal_node_id": "0.0-3.0-1.59"
	},
	{
		"rt": null,
		"stimulus": "<span style= \"font-size:30px; font-family: monospace\">+</span>",
		"response": null,
		"trial_part": "fixation",
		"trial_type": "html-keyboard-response",
		"trial_index": 89,
		"time_elapsed": 367775,
		"internal_node_id": "0.0-3.0-0.60-0.60"
	},
	{
		"rt": 251,
		"stimulus": "<span style=\"font-size:30px; font-family: monospace\">O</span>",
		"response": " ",
		"trial": "exp-sent",
		"word": "O",
		"trial_type": "html-keyboard-response",
		"trial_index": 90,
		"time_elapsed": 368282,
		"internal_node_id": "0.0-3.0-1.60"
	},
	{
		"rt": 495,
		"stimulus": "<span style=\"font-size:30px; font-family: monospace\">médico</span>",
		"response": " ",
		"trial": "exp-sent",
		"word": "médico",
		"trial_type": "html-keyboard-response",
		"trial_index": 91,
		"time_elapsed": 369034,
		"internal_node_id": "0.0-3.0-1.61"
	},
	{
		"rt": 454,
		"stimulus": "<span style=\"font-size:30px; font-family: monospace\">corrigiu</span>",
		"response": " ",
		"trial": "exp-sent",
		"word": "corrigiu",
		"trial_type": "html-keyboard-response",
		"trial_index": 92,
		"time_elapsed": 369744,
		"internal_node_id": "0.0-3.0-1.62"
	},
	{
		"rt": 553,
		"stimulus": "<span style=\"font-size:30px; font-family: monospace\">a</span>",
		"response": " ",
		"trial": "exp-sent",
		"word": "a",
		"trial_type": "html-keyboard-response",
		"trial_index": 93,
		"time_elapsed": 370562,
		"internal_node_id": "0.0-3.0-1.63"
	},
	{
		"rt": 481,
		"stimulus": "<span style=\"font-size:30px; font-family: monospace\">postura</span>",
		"response": " ",
		"trial": "exp-sent",
		"word": "postura",
		"trial_type": "html-keyboard-response",
		"trial_index": 94,
		"time_elapsed": 371308,
		"internal_node_id": "0.0-3.0-1.64"
	},
	{
		"rt": 367,
		"stimulus": "<span style=\"font-size:30px; font-family: monospace\">das</span>",
		"response": " ",
		"trial": "exp-sent",
		"word": "das",
		"trial_type": "html-keyboard-response",
		"trial_index": 95,
		"time_elapsed": 371930,
		"internal_node_id": "0.0-3.0-1.65"
	},
	{
		"rt": 386,
		"stimulus": "<span style=\"font-size:30px; font-family: monospace\">costas</span>",
		"response": " ",
		"trial": "exp-sent",
		"word": "costas",
		"trial_type": "html-keyboard-response",
		"trial_index": 96,
		"time_elapsed": 372581,
		"internal_node_id": "0.0-3.0-1.66"
	},
	{
		"rt": 431,
		"stimulus": "<span style=\"font-size:30px; font-family: monospace\">da</span>",
		"response": " ",
		"trial": "exp-sent",
		"word": "da",
		"trial_type": "html-keyboard-response",
		"trial_index": 97,
		"time_elapsed": 373266,
		"internal_node_id": "0.0-3.0-1.67"
	},
	{
		"rt": 431,
		"stimulus": "<span style=\"font-size:30px; font-family: monospace\">pessoa.</span>",
		"response": " ",
		"trial": "exp-sent",
		"word": "pessoa.",
		"trial_type": "html-keyboard-response",
		"trial_index": 98,
		"time_elapsed": 373953,
		"internal_node_id": "0.0-3.0-1.68"
	},
	{
		"rt": null,
		"stimulus": "<span style= \"font-size:30px; font-family: monospace\">+</span>",
		"response": null,
		"trial_part": "fixation",
		"trial_type": "html-keyboard-response",
		"trial_index": 99,
		"time_elapsed": 375213,
		"internal_node_id": "0.0-3.0-0.69-0.69"
	},
	{
		"rt": 383,
		"stimulus": "<span style=\"font-size:30px; font-family: monospace\">Aquele</span>",
		"response": " ",
		"trial": "exp-sent",
		"word": "Aquele",
		"trial_type": "html-keyboard-response",
		"trial_index": 100,
		"time_elapsed": 375853,
		"internal_node_id": "0.0-3.0-1.69"
	},
	{
		"rt": 326,
		"stimulus": "<span style=\"font-size:30px; font-family: monospace\">era</span>",
		"response": " ",
		"trial": "exp-sent",
		"word": "era",
		"trial_type": "html-keyboard-response",
		"trial_index": 101,
		"time_elapsed": 376437,
		"internal_node_id": "0.0-3.0-1.70"
	},
	{
		"rt": 297,
		"stimulus": "<span style=\"font-size:30px; font-family: monospace\">um</span>",
		"response": " ",
		"trial": "exp-sent",
		"word": "um",
		"trial_type": "html-keyboard-response",
		"trial_index": 102,
		"time_elapsed": 377000,
		"internal_node_id": "0.0-3.0-1.71"
	},
	{
		"rt": 340,
		"stimulus": "<span style=\"font-size:30px; font-family: monospace\">caso</span>",
		"response": " ",
		"trial": "exp-sent",
		"word": "caso",
		"trial_type": "html-keyboard-response",
		"trial_index": 103,
		"time_elapsed": 377592,
		"internal_node_id": "0.0-3.0-1.72"
	},
	{
		"rt": 343,
		"stimulus": "<span style=\"font-size:30px; font-family: monospace\">real</span>",
		"response": " ",
		"trial": "exp-sent",
		"word": "real",
		"trial_type": "html-keyboard-response",
		"trial_index": 104,
		"time_elapsed": 378199,
		"internal_node_id": "0.0-3.0-1.73"
	},
	{
		"rt": 425,
		"stimulus": "<span style=\"font-size:30px; font-family: monospace\">de</span>",
		"response": " ",
		"trial": "exp-sent",
		"word": "de",
		"trial_type": "html-keyboard-response",
		"trial_index": 105,
		"time_elapsed": 378878,
		"internal_node_id": "0.0-3.0-1.74"
	},
	{
		"rt": 478,
		"stimulus": "<span style=\"font-size:30px; font-family: monospace\">sequestro</span>",
		"response": " ",
		"trial": "exp-sent",
		"word": "sequestro",
		"trial_type": "html-keyboard-response",
		"trial_index": 106,
		"time_elapsed": 379617,
		"internal_node_id": "0.0-3.0-1.75"
	},
	{
		"rt": 455,
		"stimulus": "<span style=\"font-size:30px; font-family: monospace\">premeditado.</span>",
		"response": " ",
		"trial": "comp",
		"word": "premeditado.",
		"trial_type": "html-keyboard-response",
		"trial_index": 107,
		"time_elapsed": 380327,
		"internal_node_id": "0.0-3.0-1.76"
	},
	{
		"rt": 15282,
		"stimulus": "<span style=\"font-size:30px; font-family: monospace\">Aquele era um caso real de roubo?</span>",
		"response": "s",
		"question": "Aquele era um caso real de roubo?",
		"answer": "não",
		"trial": "comp",
		"trial_type": "html-keyboard-response",
		"trial_index": 108,
		"time_elapsed": 395870,
		"internal_node_id": "0.0-3.0-2.76-0.76",
		"accuracy": false
	},
	{
		"rt": null,
		"stimulus": "<span style= \"font-size:30px; font-family: monospace\">+</span>",
		"response": null,
		"trial_part": "fixation",
		"trial_type": "html-keyboard-response",
		"trial_index": 109,
		"time_elapsed": 397376,
		"internal_node_id": "0.0-3.0-0.77-0.77"
	},
	{
		"rt": 2486,
		"stimulus": "<span style=\"font-size:30px; font-family: monospace\">A</span>",
		"response": " ",
		"trial": "exp-sent",
		"word": "A",
		"trial_type": "html-keyboard-response",
		"trial_index": 110,
		"time_elapsed": 400122,
		"internal_node_id": "0.0-3.0-1.77"
	},
	{
		"rt": 951,
		"stimulus": "<span style=\"font-size:30px; font-family: monospace\">senhora</span>",
		"response": " ",
		"trial": "exp-sent",
		"word": "senhora",
		"trial_type": "html-keyboard-response",
		"trial_index": 111,
		"time_elapsed": 401331,
		"internal_node_id": "0.0-3.0-1.78"
	},
	{
		"rt": 1089,
		"stimulus": "<span style=\"font-size:30px; font-family: monospace\">cumprimentou</span>",
		"response": " ",
		"trial": "exp-sent",
		"word": "cumprimentou",
		"trial_type": "html-keyboard-response",
		"trial_index": 112,
		"time_elapsed": 402680,
		"internal_node_id": "0.0-3.0-1.79"
	},
	{
		"rt": 756,
		"stimulus": "<span style=\"font-size:30px; font-family: monospace\">o</span>",
		"response": " ",
		"trial": "exp-sent",
		"word": "o",
		"trial_type": "html-keyboard-response",
		"trial_index": 113,
		"time_elapsed": 403697,
		"internal_node_id": "0.0-3.0-1.80"
	},
	{
		"rt": 948,
		"stimulus": "<span style=\"font-size:30px; font-family: monospace\">operador</span>",
		"response": " ",
		"trial": "exp-sent",
		"word": "operador",
		"trial_type": "html-keyboard-response",
		"trial_index": 114,
		"time_elapsed": 404899,
		"internal_node_id": "0.0-3.0-1.81"
	},
	{
		"rt": 653,
		"stimulus": "<span style=\"font-size:30px; font-family: monospace\">de</span>",
		"response": " ",
		"trial": "exp-sent",
		"word": "de",
		"trial_type": "html-keyboard-response",
		"trial_index": 115,
		"time_elapsed": 405816,
		"internal_node_id": "0.0-3.0-1.82"
	},
	{
		"rt": 557,
		"stimulus": "<span style=\"font-size:30px; font-family: monospace\">caixa.</span>",
		"response": " ",
		"trial": "exp-sent",
		"word": "caixa.",
		"trial_type": "html-keyboard-response",
		"trial_index": 116,
		"time_elapsed": 406640,
		"internal_node_id": "0.0-3.0-1.83"
	},
	{
		"rt": null,
		"stimulus": "<span style= \"font-size:30px; font-family: monospace\">+</span>",
		"response": null,
		"trial_part": "fixation",
		"trial_type": "html-keyboard-response",
		"trial_index": 117,
		"time_elapsed": 407901,
		"internal_node_id": "0.0-3.0-0.84-0.84"
	},
	{
		"rt": 431,
		"stimulus": "<span style=\"font-size:30px; font-family: monospace\">A</span>",
		"response": " ",
		"trial": "exp-sent",
		"word": "A",
		"trial_type": "html-keyboard-response",
		"trial_index": 118,
		"time_elapsed": 408589,
		"internal_node_id": "0.0-3.0-1.84"
	},
	{
		"rt": 653,
		"stimulus": "<span style=\"font-size:30px; font-family: monospace\">gente</span>",
		"response": " ",
		"trial": "exp-sent",
		"word": "gente",
		"trial_type": "html-keyboard-response",
		"trial_index": 119,
		"time_elapsed": 409498,
		"internal_node_id": "0.0-3.0-1.85"
	},
	{
		"rt": 375,
		"stimulus": "<span style=\"font-size:30px; font-family: monospace\">viu</span>",
		"response": " ",
		"trial": "exp-sent",
		"word": "viu",
		"trial_type": "html-keyboard-response",
		"trial_index": 120,
		"time_elapsed": 410131,
		"internal_node_id": "0.0-3.0-1.86"
	},
	{
		"rt": 650,
		"stimulus": "<span style=\"font-size:30px; font-family: monospace\">o</span>",
		"response": " ",
		"trial": "exp-sent",
		"word": "o",
		"trial_type": "html-keyboard-response",
		"trial_index": 121,
		"time_elapsed": 411046,
		"internal_node_id": "0.0-3.0-1.87"
	},
	{
		"rt": 709,
		"stimulus": "<span style=\"font-size:30px; font-family: monospace\">eclipse</span>",
		"response": " ",
		"trial": "exp-sent",
		"word": "eclipse",
		"trial_type": "html-keyboard-response",
		"trial_index": 122,
		"time_elapsed": 412019,
		"internal_node_id": "0.0-3.0-1.88"
	},
	{
		"rt": 467,
		"stimulus": "<span style=\"font-size:30px; font-family: monospace\">lunar</span>",
		"response": " ",
		"trial": "exp-sent",
		"word": "lunar",
		"trial_type": "html-keyboard-response",
		"trial_index": 123,
		"time_elapsed": 412747,
		"internal_node_id": "0.0-3.0-1.89"
	},
	{
		"rt": 710,
		"stimulus": "<span style=\"font-size:30px; font-family: monospace\">durante</span>",
		"response": " ",
		"trial": "exp-sent",
		"word": "durante",
		"trial_type": "html-keyboard-response",
		"trial_index": 124,
		"time_elapsed": 413710,
		"internal_node_id": "0.0-3.0-1.90"
	},
	{
		"rt": 325,
		"stimulus": "<span style=\"font-size:30px; font-family: monospace\">o</span>",
		"response": " ",
		"trial": "exp-sent",
		"word": "o",
		"trial_type": "html-keyboard-response",
		"trial_index": 125,
		"time_elapsed": 414297,
		"internal_node_id": "0.0-3.0-1.91"
	},
	{
		"rt": 594,
		"stimulus": "<span style=\"font-size:30px; font-family: monospace\">dia.</span>",
		"response": " ",
		"trial": "exp-sent",
		"word": "dia.",
		"trial_type": "html-keyboard-response",
		"trial_index": 126,
		"time_elapsed": 415151,
		"internal_node_id": "0.0-3.0-1.92"
	},
	{
		"rt": null,
		"stimulus": "<span style= \"font-size:30px; font-family: monospace\">+</span>",
		"response": null,
		"trial_part": "fixation",
		"trial_type": "html-keyboard-response",
		"trial_index": 127,
		"time_elapsed": 416411,
		"internal_node_id": "0.0-3.0-0.93-0.93"
	},
	{
		"rt": 308,
		"stimulus": "<span style=\"font-size:30px; font-family: monospace\">A</span>",
		"response": " ",
		"trial": "exp-sent",
		"word": "A",
		"trial_type": "html-keyboard-response",
		"trial_index": 128,
		"time_elapsed": 416974,
		"internal_node_id": "0.0-3.0-1.93"
	},
	{
		"rt": 469,
		"stimulus": "<span style=\"font-size:30px; font-family: monospace\">mordida</span>",
		"response": " ",
		"trial": "exp-sent",
		"word": "mordida",
		"trial_type": "html-keyboard-response",
		"trial_index": 129,
		"time_elapsed": 417710,
		"internal_node_id": "0.0-3.0-1.94"
	},
	{
		"rt": 426,
		"stimulus": "<span style=\"font-size:30px; font-family: monospace\">do</span>",
		"response": " ",
		"trial": "exp-sent",
		"word": "do",
		"trial_type": "html-keyboard-response",
		"trial_index": 130,
		"time_elapsed": 418396,
		"internal_node_id": "0.0-3.0-1.95"
	},
	{
		"rt": 844,
		"stimulus": "<span style=\"font-size:30px; font-family: monospace\">cachorro</span>",
		"response": " ",
		"trial": "exp-sent",
		"word": "cachorro",
		"trial_type": "html-keyboard-response",
		"trial_index": 131,
		"time_elapsed": 419496,
		"internal_node_id": "0.0-3.0-1.96"
	},
	{
		"rt": 427,
		"stimulus": "<span style=\"font-size:30px; font-family: monospace\">voraz</span>",
		"response": " ",
		"trial": "exp-sent",
		"word": "voraz",
		"trial_type": "html-keyboard-response",
		"trial_index": 132,
		"time_elapsed": 420179,
		"internal_node_id": "0.0-3.0-1.97"
	},
	{
		"rt": 490,
		"stimulus": "<span style=\"font-size:30px; font-family: monospace\">causou</span>",
		"response": " ",
		"trial": "exp-sent",
		"word": "causou",
		"trial_type": "html-keyboard-response",
		"trial_index": 133,
		"time_elapsed": 420932,
		"internal_node_id": "0.0-3.0-1.98"
	},
	{
		"rt": 455,
		"stimulus": "<span style=\"font-size:30px; font-family: monospace\">uma</span>",
		"response": " ",
		"trial": "exp-sent",
		"word": "uma",
		"trial_type": "html-keyboard-response",
		"trial_index": 134,
		"time_elapsed": 421650,
		"internal_node_id": "0.0-3.0-1.99"
	},
	{
		"rt": 451,
		"stimulus": "<span style=\"font-size:30px; font-family: monospace\">cicatriz.</span>",
		"response": " ",
		"trial": "exp-sent",
		"word": "cicatriz.",
		"trial_type": "html-keyboard-response",
		"trial_index": 135,
		"time_elapsed": 422352,
		"internal_node_id": "0.0-3.0-1.100"
	},
	{
		"rt": null,
		"stimulus": "<span style= \"font-size:30px; font-family: monospace\">+</span>",
		"response": null,
		"trial_part": "fixation",
		"trial_type": "html-keyboard-response",
		"trial_index": 136,
		"time_elapsed": 423614,
		"internal_node_id": "0.0-3.0-0.101-0.101"
	},
	{
		"rt": 450,
		"stimulus": "<span style=\"font-size:30px; font-family: monospace\">Elas</span>",
		"response": " ",
		"trial": "exp-sent",
		"word": "Elas",
		"trial_type": "html-keyboard-response",
		"trial_index": 137,
		"time_elapsed": 424320,
		"internal_node_id": "0.0-3.0-1.101"
	},
	{
		"rt": 713,
		"stimulus": "<span style=\"font-size:30px; font-family: monospace\">não</span>",
		"response": " ",
		"trial": "exp-sent",
		"word": "não",
		"trial_type": "html-keyboard-response",
		"trial_index": 138,
		"time_elapsed": 425286,
		"internal_node_id": "0.0-3.0-1.102"
	},
	{
		"rt": 615,
		"stimulus": "<span style=\"font-size:30px; font-family: monospace\">viram</span>",
		"response": " ",
		"trial": "exp-sent",
		"word": "viram",
		"trial_type": "html-keyboard-response",
		"trial_index": 139,
		"time_elapsed": 426157,
		"internal_node_id": "0.0-3.0-1.103"
	},
	{
		"rt": 706,
		"stimulus": "<span style=\"font-size:30px; font-family: monospace\">nenhuma</span>",
		"response": " ",
		"trial": "exp-sent",
		"word": "nenhuma",
		"trial_type": "html-keyboard-response",
		"trial_index": 140,
		"time_elapsed": 427129,
		"internal_node_id": "0.0-3.0-1.104"
	},
	{
		"rt": 583,
		"stimulus": "<span style=\"font-size:30px; font-family: monospace\">diferença</span>",
		"response": " ",
		"trial": "exp-sent",
		"word": "diferença",
		"trial_type": "html-keyboard-response",
		"trial_index": 141,
		"time_elapsed": 427967,
		"internal_node_id": "0.0-3.0-1.105"
	},
	{
		"rt": 427,
		"stimulus": "<span style=\"font-size:30px; font-family: monospace\">entre</span>",
		"response": " ",
		"trial": "exp-sent",
		"word": "entre",
		"trial_type": "html-keyboard-response",
		"trial_index": 142,
		"time_elapsed": 428660,
		"internal_node_id": "0.0-3.0-1.106"
	},
	{
		"rt": 357,
		"stimulus": "<span style=\"font-size:30px; font-family: monospace\">os</span>",
		"response": " ",
		"trial": "exp-sent",
		"word": "os",
		"trial_type": "html-keyboard-response",
		"trial_index": 143,
		"time_elapsed": 429269,
		"internal_node_id": "0.0-3.0-1.107"
	},
	{
		"rt": 405,
		"stimulus": "<span style=\"font-size:30px; font-family: monospace\">textos.</span>",
		"response": " ",
		"trial": "exp-sent",
		"word": "textos.",
		"trial_type": "html-keyboard-response",
		"trial_index": 144,
		"time_elapsed": 429925,
		"internal_node_id": "0.0-3.0-1.108"
	},
	{
		"rt": null,
		"stimulus": "<span style= \"font-size:30px; font-family: monospace\">+</span>",
		"response": null,
		"trial_part": "fixation",
		"trial_type": "html-keyboard-response",
		"trial_index": 145,
		"time_elapsed": 431178,
		"internal_node_id": "0.0-3.0-0.109-0.109"
	},
	{
		"rt": 548,
		"stimulus": "<span style=\"font-size:30px; font-family: monospace\">Amanhã</span>",
		"response": " ",
		"trial": "exp-sent",
		"word": "Amanhã",
		"trial_type": "html-keyboard-response",
		"trial_index": 146,
		"time_elapsed": 431984,
		"internal_node_id": "0.0-3.0-1.109"
	},
	{
		"rt": 367,
		"stimulus": "<span style=\"font-size:30px; font-family: monospace\">vai</span>",
		"response": " ",
		"trial": "exp-sent",
		"word": "vai",
		"trial_type": "html-keyboard-response",
		"trial_index": 147,
		"time_elapsed": 432606,
		"internal_node_id": "0.0-3.0-1.110"
	},
	{
		"rt": 342,
		"stimulus": "<span style=\"font-size:30px; font-family: monospace\">ter</span>",
		"response": " ",
		"trial": "exp-sent",
		"word": "ter",
		"trial_type": "html-keyboard-response",
		"trial_index": 148,
		"time_elapsed": 433203,
		"internal_node_id": "0.0-3.0-1.111"
	},
	{
		"rt": 291,
		"stimulus": "<span style=\"font-size:30px; font-family: monospace\">um</span>",
		"response": " ",
		"trial": "exp-sent",
		"word": "um",
		"trial_type": "html-keyboard-response",
		"trial_index": 149,
		"time_elapsed": 433757,
		"internal_node_id": "0.0-3.0-1.112"
	},
	{
		"rt": 296,
		"stimulus": "<span style=\"font-size:30px; font-family: monospace\">bazar</span>",
		"response": " ",
		"trial": "exp-sent",
		"word": "bazar",
		"trial_type": "html-keyboard-response",
		"trial_index": 150,
		"time_elapsed": 434304,
		"internal_node_id": "0.0-3.0-1.113"
	},
	{
		"rt": 322,
		"stimulus": "<span style=\"font-size:30px; font-family: monospace\">no</span>",
		"response": " ",
		"trial": "exp-sent",
		"word": "no",
		"trial_type": "html-keyboard-response",
		"trial_index": 151,
		"time_elapsed": 434890,
		"internal_node_id": "0.0-3.0-1.114"
	},
	{
		"rt": 363,
		"stimulus": "<span style=\"font-size:30px; font-family: monospace\">bairro.</span>",
		"response": " ",
		"trial": "comp",
		"word": "bairro.",
		"trial_type": "html-keyboard-response",
		"trial_index": 152,
		"time_elapsed": 435511,
		"internal_node_id": "0.0-3.0-1.115"
	},
	{
		"rt": 5117,
		"stimulus": "<span style=\"font-size:30px; font-family: monospace\">Amanhã vai acontecer um bazar no bairro?</span>",
		"response": "s",
		"question": "Amanhã vai acontecer um bazar no bairro?",
		"answer": "sim",
		"trial": "comp",
		"trial_type": "html-keyboard-response",
		"trial_index": 153,
		"time_elapsed": 440890,
		"internal_node_id": "0.0-3.0-2.115-0.115",
		"accuracy": false
	},
	{
		"rt": null,
		"stimulus": "<span style= \"font-size:30px; font-family: monospace\">+</span>",
		"response": null,
		"trial_part": "fixation",
		"trial_type": "html-keyboard-response",
		"trial_index": 154,
		"time_elapsed": 442403,
		"internal_node_id": "0.0-3.0-0.116-0.116"
	},
	{
		"rt": 1259,
		"stimulus": "<span style=\"font-size:30px; font-family: monospace\">Barulho</span>",
		"response": " ",
		"trial": "exp-sent",
		"word": "Barulho",
		"trial_type": "html-keyboard-response",
		"trial_index": 155,
		"time_elapsed": 443922,
		"internal_node_id": "0.0-3.0-1.116"
	},
	{
		"rt": 549,
		"stimulus": "<span style=\"font-size:30px; font-family: monospace\">de</span>",
		"response": " ",
		"trial": "exp-sent",
		"word": "de",
		"trial_type": "html-keyboard-response",
		"trial_index": 156,
		"time_elapsed": 444736,
		"internal_node_id": "0.0-3.0-1.117"
	},
	{
		"rt": 793,
		"stimulus": "<span style=\"font-size:30px; font-family: monospace\">carros</span>",
		"response": " ",
		"trial": "exp-sent",
		"word": "carros",
		"trial_type": "html-keyboard-response",
		"trial_index": 157,
		"time_elapsed": 445789,
		"internal_node_id": "0.0-3.0-1.118"
	},
	{
		"rt": 407,
		"stimulus": "<span style=\"font-size:30px; font-family: monospace\">é</span>",
		"response": " ",
		"trial": "exp-sent",
		"word": "é",
		"trial_type": "html-keyboard-response",
		"trial_index": 158,
		"time_elapsed": 446457,
		"internal_node_id": "0.0-3.0-1.119"
	},
	{
		"rt": 851,
		"stimulus": "<span style=\"font-size:30px; font-family: monospace\">irritante</span>",
		"response": " ",
		"trial": "exp-sent",
		"word": "irritante",
		"trial_type": "html-keyboard-response",
		"trial_index": 159,
		"time_elapsed": 447570,
		"internal_node_id": "0.0-3.0-1.120"
	},
	{
		"rt": 504,
		"stimulus": "<span style=\"font-size:30px; font-family: monospace\">para</span>",
		"response": " ",
		"trial": "exp-sent",
		"word": "para",
		"trial_type": "html-keyboard-response",
		"trial_index": 160,
		"time_elapsed": 448327,
		"internal_node_id": "0.0-3.0-1.121"
	},
	{
		"rt": 384,
		"stimulus": "<span style=\"font-size:30px; font-family: monospace\">a</span>",
		"response": " ",
		"trial": "exp-sent",
		"word": "a",
		"trial_type": "html-keyboard-response",
		"trial_index": 161,
		"time_elapsed": 448970,
		"internal_node_id": "0.0-3.0-1.122"
	},
	{
		"rt": 480,
		"stimulus": "<span style=\"font-size:30px; font-family: monospace\">moça.</span>",
		"response": " ",
		"trial": "exp-sent",
		"word": "moça.",
		"trial_type": "html-keyboard-response",
		"trial_index": 162,
		"time_elapsed": 449699,
		"internal_node_id": "0.0-3.0-1.123"
	},
	{
		"rt": null,
		"stimulus": "<span style= \"font-size:30px; font-family: monospace\">+</span>",
		"response": null,
		"trial_part": "fixation",
		"trial_type": "html-keyboard-response",
		"trial_index": 163,
		"time_elapsed": 450981,
		"internal_node_id": "0.0-3.0-0.124-0.124"
	},
	{
		"rt": 478,
		"stimulus": "<span style=\"font-size:30px; font-family: monospace\">A</span>",
		"response": " ",
		"trial": "exp-sent",
		"word": "A",
		"trial_type": "html-keyboard-response",
		"trial_index": 164,
		"time_elapsed": 451715,
		"internal_node_id": "0.0-3.0-1.124"
	},
	{
		"rt": 642,
		"stimulus": "<span style=\"font-size:30px; font-family: monospace\">loja</span>",
		"response": " ",
		"trial": "exp-sent",
		"word": "loja",
		"trial_type": "html-keyboard-response",
		"trial_index": 165,
		"time_elapsed": 452614,
		"internal_node_id": "0.0-3.0-1.125"
	},
	{
		"rt": 537,
		"stimulus": "<span style=\"font-size:30px; font-family: monospace\">também</span>",
		"response": " ",
		"trial": "exp-sent",
		"word": "também",
		"trial_type": "html-keyboard-response",
		"trial_index": 166,
		"time_elapsed": 453416,
		"internal_node_id": "0.0-3.0-1.126"
	},
	{
		"rt": 673,
		"stimulus": "<span style=\"font-size:30px; font-family: monospace\">vende</span>",
		"response": " ",
		"trial": "exp-sent",
		"word": "vende",
		"trial_type": "html-keyboard-response",
		"trial_index": 167,
		"time_elapsed": 454342,
		"internal_node_id": "0.0-3.0-1.127"
	},
	{
		"rt": 581,
		"stimulus": "<span style=\"font-size:30px; font-family: monospace\">taça</span>",
		"response": " ",
		"trial": "exp-sent",
		"word": "taça",
		"trial_type": "html-keyboard-response",
		"trial_index": 168,
		"time_elapsed": 455177,
		"internal_node_id": "0.0-3.0-1.128"
	},
	{
		"rt": 340,
		"stimulus": "<span style=\"font-size:30px; font-family: monospace\">de</span>",
		"response": " ",
		"trial": "exp-sent",
		"word": "de",
		"trial_type": "html-keyboard-response",
		"trial_index": 169,
		"time_elapsed": 455768,
		"internal_node_id": "0.0-3.0-1.129"
	},
	{
		"rt": 932,
		"stimulus": "<span style=\"font-size:30px; font-family: monospace\">vinho</span>",
		"response": " ",
		"trial": "exp-sent",
		"word": "vinho",
		"trial_type": "html-keyboard-response",
		"trial_index": 170,
		"time_elapsed": 456965,
		"internal_node_id": "0.0-3.0-1.130"
	},
	{
		"rt": 375,
		"stimulus": "<span style=\"font-size:30px; font-family: monospace\">e</span>",
		"response": " ",
		"trial": "exp-sent",
		"word": "e",
		"trial_type": "html-keyboard-response",
		"trial_index": 171,
		"time_elapsed": 457607,
		"internal_node_id": "0.0-3.0-1.131"
	},
	{
		"rt": 702,
		"stimulus": "<span style=\"font-size:30px; font-family: monospace\">espumante.</span>",
		"response": " ",
		"trial": "exp-sent",
		"word": "espumante.",
		"trial_type": "html-keyboard-response",
		"trial_index": 172,
		"time_elapsed": 458561,
		"internal_node_id": "0.0-3.0-1.132"
	},
	{
		"rt": null,
		"stimulus": "<span style= \"font-size:30px; font-family: monospace\">+</span>",
		"response": null,
		"trial_part": "fixation",
		"trial_type": "html-keyboard-response",
		"trial_index": 173,
		"time_elapsed": 459828,
		"internal_node_id": "0.0-3.0-0.133-0.133"
	},
	{
		"rt": 465,
		"stimulus": "<span style=\"font-size:30px; font-family: monospace\">A</span>",
		"response": " ",
		"trial": "exp-sent",
		"word": "A",
		"trial_type": "html-keyboard-response",
		"trial_index": 174,
		"time_elapsed": 460549,
		"internal_node_id": "0.0-3.0-1.133"
	},
	{
		"rt": 495,
		"stimulus": "<span style=\"font-size:30px; font-family: monospace\">bruxa</span>",
		"response": " ",
		"trial": "exp-sent",
		"word": "bruxa",
		"trial_type": "html-keyboard-response",
		"trial_index": 175,
		"time_elapsed": 461294,
		"internal_node_id": "0.0-3.0-1.134"
	},
	{
		"rt": 689,
		"stimulus": "<span style=\"font-size:30px; font-family: monospace\">tinha</span>",
		"response": " ",
		"trial": "exp-sent",
		"word": "tinha",
		"trial_type": "html-keyboard-response",
		"trial_index": 176,
		"time_elapsed": 462242,
		"internal_node_id": "0.0-3.0-1.135"
	},
	{
		"rt": 412,
		"stimulus": "<span style=\"font-size:30px; font-family: monospace\">uma</span>",
		"response": " ",
		"trial": "exp-sent",
		"word": "uma",
		"trial_type": "html-keyboard-response",
		"trial_index": 177,
		"time_elapsed": 462906,
		"internal_node_id": "0.0-3.0-1.136"
	},
	{
		"rt": 538,
		"stimulus": "<span style=\"font-size:30px; font-family: monospace\">vassoura</span>",
		"response": " ",
		"trial": "exp-sent",
		"word": "vassoura",
		"trial_type": "html-keyboard-response",
		"trial_index": 178,
		"time_elapsed": 463700,
		"internal_node_id": "0.0-3.0-1.137"
	},
	{
		"rt": 562,
		"stimulus": "<span style=\"font-size:30px; font-family: monospace\">e</span>",
		"response": " ",
		"trial": "exp-sent",
		"word": "e",
		"trial_type": "html-keyboard-response",
		"trial_index": 179,
		"time_elapsed": 464524,
		"internal_node_id": "0.0-3.0-1.138"
	},
	{
		"rt": 1087,
		"stimulus": "<span style=\"font-size:30px; font-family: monospace\">um</span>",
		"response": " ",
		"trial": "exp-sent",
		"word": "um",
		"trial_type": "html-keyboard-response",
		"trial_index": 180,
		"time_elapsed": 465863,
		"internal_node_id": "0.0-3.0-1.139"
	},
	{
		"rt": 5817,
		"stimulus": "<span style=\"font-size:30px; font-family: monospace\">gato.</span>",
		"response": " ",
		"trial": "exp-sent",
		"word": "gato.",
		"trial_type": "html-keyboard-response",
		"trial_index": 181,
		"time_elapsed": 471932,
		"internal_node_id": "0.0-3.0-1.140"
	},
	{
		"rt": null,
		"stimulus": "<span style= \"font-size:30px; font-family: monospace\">+</span>",
		"response": null,
		"trial_part": "fixation",
		"trial_type": "html-keyboard-response",
		"trial_index": 182,
		"time_elapsed": 473204,
		"internal_node_id": "0.0-3.0-0.141-0.141"
	},
	{
		"rt": 543,
		"stimulus": "<span style=\"font-size:30px; font-family: monospace\">Eu</span>",
		"response": " ",
		"trial": "exp-sent",
		"word": "Eu",
		"trial_type": "html-keyboard-response",
		"trial_index": 183,
		"time_elapsed": 474003,
		"internal_node_id": "0.0-3.0-1.141"
	},
	{
		"rt": 856,
		"stimulus": "<span style=\"font-size:30px; font-family: monospace\">me</span>",
		"response": " ",
		"trial": "exp-sent",
		"word": "me",
		"trial_type": "html-keyboard-response",
		"trial_index": 184,
		"time_elapsed": 475112,
		"internal_node_id": "0.0-3.0-1.142"
	},
	{
		"rt": 609,
		"stimulus": "<span style=\"font-size:30px; font-family: monospace\">divirto</span>",
		"response": " ",
		"trial": "exp-sent",
		"word": "divirto",
		"trial_type": "html-keyboard-response",
		"trial_index": 185,
		"time_elapsed": 475986,
		"internal_node_id": "0.0-3.0-1.143"
	},
	{
		"rt": 560,
		"stimulus": "<span style=\"font-size:30px; font-family: monospace\">em</span>",
		"response": " ",
		"trial": "exp-sent",
		"word": "em",
		"trial_type": "html-keyboard-response",
		"trial_index": 186,
		"time_elapsed": 476801,
		"internal_node_id": "0.0-3.0-1.144"
	},
	{
		"rt": 408,
		"stimulus": "<span style=\"font-size:30px; font-family: monospace\">festas</span>",
		"response": " ",
		"trial": "exp-sent",
		"word": "festas",
		"trial_type": "html-keyboard-response",
		"trial_index": 187,
		"time_elapsed": 477465,
		"internal_node_id": "0.0-3.0-1.145"
	},
	{
		"rt": 1248,
		"stimulus": "<span style=\"font-size:30px; font-family: monospace\">de</span>",
		"response": " ",
		"trial": "exp-sent",
		"word": "de",
		"trial_type": "html-keyboard-response",
		"trial_index": 188,
		"time_elapsed": 478980,
		"internal_node_id": "0.0-3.0-1.146"
	},
	{
		"rt": 300,
		"stimulus": "<span style=\"font-size:30px; font-family: monospace\">criança.</span>",
		"response": " ",
		"trial": "exp-sent",
		"word": "criança.",
		"trial_type": "html-keyboard-response",
		"trial_index": 189,
		"time_elapsed": 479533,
		"internal_node_id": "0.0-3.0-1.147"
	},
	{
		"rt": null,
		"stimulus": "<span style= \"font-size:30px; font-family: monospace\">+</span>",
		"response": null,
		"trial_part": "fixation",
		"trial_type": "html-keyboard-response",
		"trial_index": 190,
		"time_elapsed": 480810,
		"internal_node_id": "0.0-3.0-0.148-0.148"
	},
	{
		"rt": 310,
		"stimulus": "<span style=\"font-size:30px; font-family: monospace\">A</span>",
		"response": " ",
		"trial": "exp-sent",
		"word": "A",
		"trial_type": "html-keyboard-response",
		"trial_index": 191,
		"time_elapsed": 481375,
		"internal_node_id": "0.0-3.0-1.148"
	},
	{
		"rt": 436,
		"stimulus": "<span style=\"font-size:30px; font-family: monospace\">janela</span>",
		"response": " ",
		"trial": "exp-sent",
		"word": "janela",
		"trial_type": "html-keyboard-response",
		"trial_index": 192,
		"time_elapsed": 482076,
		"internal_node_id": "0.0-3.0-1.149"
	},
	{
		"rt": 310,
		"stimulus": "<span style=\"font-size:30px; font-family: monospace\">alta</span>",
		"response": " ",
		"trial": "exp-sent",
		"word": "alta",
		"trial_type": "html-keyboard-response",
		"trial_index": 193,
		"time_elapsed": 482645,
		"internal_node_id": "0.0-3.0-1.150"
	},
	{
		"rt": 285,
		"stimulus": "<span style=\"font-size:30px; font-family: monospace\">estava</span>",
		"response": " ",
		"trial": "exp-sent",
		"word": "estava",
		"trial_type": "html-keyboard-response",
		"trial_index": 194,
		"time_elapsed": 483195,
		"internal_node_id": "0.0-3.0-1.151"
	},
	{
		"rt": 310,
		"stimulus": "<span style=\"font-size:30px; font-family: monospace\">quebrada</span>",
		"response": " ",
		"trial": "exp-sent",
		"word": "quebrada",
		"trial_type": "html-keyboard-response",
		"trial_index": 195,
		"time_elapsed": 483762,
		"internal_node_id": "0.0-3.0-1.152"
	},
	{
		"rt": 338,
		"stimulus": "<span style=\"font-size:30px; font-family: monospace\">desde</span>",
		"response": " ",
		"trial": "exp-sent",
		"word": "desde",
		"trial_type": "html-keyboard-response",
		"trial_index": 196,
		"time_elapsed": 484364,
		"internal_node_id": "0.0-3.0-1.153"
	},
	{
		"rt": 1251,
		"stimulus": "<span style=\"font-size:30px; font-family: monospace\">ontem.</span>",
		"response": " ",
		"trial": "comp",
		"word": "ontem.",
		"trial_type": "html-keyboard-response",
		"trial_index": 197,
		"time_elapsed": 485868,
		"internal_node_id": "0.0-3.0-1.154"
	},
	{
		"rt": 6231,
		"stimulus": "<span style=\"font-size:30px; font-family: monospace\">A janela alta estava quebrada?</span>",
		"response": "s",
		"question": "A janela alta estava quebrada?",
		"answer": "sim",
		"trial": "comp",
		"trial_type": "html-keyboard-response",
		"trial_index": 198,
		"time_elapsed": 492373,
		"internal_node_id": "0.0-3.0-2.154-0.154",
		"accuracy": false
	},
	{
		"rt": null,
		"stimulus": "<span style= \"font-size:30px; font-family: monospace\">+</span>",
		"response": null,
		"trial_part": "fixation",
		"trial_type": "html-keyboard-response",
		"trial_index": 199,
		"time_elapsed": 493876,
		"internal_node_id": "0.0-3.0-0.155-0.155"
	},
	{
		"rt": 1758,
		"stimulus": "<span style=\"font-size:30px; font-family: monospace\">A</span>",
		"response": " ",
		"trial": "exp-sent",
		"word": "A",
		"trial_type": "html-keyboard-response",
		"trial_index": 200,
		"time_elapsed": 495893,
		"internal_node_id": "0.0-3.0-1.155"
	},
	{
		"rt": 883,
		"stimulus": "<span style=\"font-size:30px; font-family: monospace\">motorista</span>",
		"response": " ",
		"trial": "exp-sent",
		"word": "motorista",
		"trial_type": "html-keyboard-response",
		"trial_index": 201,
		"time_elapsed": 497029,
		"internal_node_id": "0.0-3.0-1.156"
	},
	{
		"rt": 299,
		"stimulus": "<span style=\"font-size:30px; font-family: monospace\">fez</span>",
		"response": " ",
		"trial": "exp-sent",
		"word": "fez",
		"trial_type": "html-keyboard-response",
		"trial_index": 202,
		"time_elapsed": 497593,
		"internal_node_id": "0.0-3.0-1.157"
	},
	{
		"rt": 439,
		"stimulus": "<span style=\"font-size:30px; font-family: monospace\">o</span>",
		"response": " ",
		"trial": "exp-sent",
		"word": "o",
		"trial_type": "html-keyboard-response",
		"trial_index": 203,
		"time_elapsed": 498291,
		"internal_node_id": "0.0-3.0-1.158"
	},
	{
		"rt": 474,
		"stimulus": "<span style=\"font-size:30px; font-family: monospace\">retorno</span>",
		"response": " ",
		"trial": "exp-sent",
		"word": "retorno",
		"trial_type": "html-keyboard-response",
		"trial_index": 204,
		"time_elapsed": 499031,
		"internal_node_id": "0.0-3.0-1.159"
	},
	{
		"rt": 363,
		"stimulus": "<span style=\"font-size:30px; font-family: monospace\">com</span>",
		"response": " ",
		"trial": "exp-sent",
		"word": "com",
		"trial_type": "html-keyboard-response",
		"trial_index": 205,
		"time_elapsed": 499654,
		"internal_node_id": "0.0-3.0-1.160"
	},
	{
		"rt": 521,
		"stimulus": "<span style=\"font-size:30px; font-family: monospace\">cuidado.</span>",
		"response": " ",
		"trial": "exp-sent",
		"word": "cuidado.",
		"trial_type": "html-keyboard-response",
		"trial_index": 206,
		"time_elapsed": 500442,
		"internal_node_id": "0.0-3.0-1.161"
	},
	{
		"rt": null,
		"stimulus": "<span style= \"font-size:30px; font-family: monospace\">+</span>",
		"response": null,
		"trial_part": "fixation",
		"trial_type": "html-keyboard-response",
		"trial_index": 207,
		"time_elapsed": 501712,
		"internal_node_id": "0.0-3.0-0.162-0.162"
	},
	{
		"rt": 362,
		"stimulus": "<span style=\"font-size:30px; font-family: monospace\">Contos</span>",
		"response": " ",
		"trial": "exp-sent",
		"word": "Contos",
		"trial_type": "html-keyboard-response",
		"trial_index": 208,
		"time_elapsed": 502330,
		"internal_node_id": "0.0-3.0-1.162"
	},
	{
		"rt": 423,
		"stimulus": "<span style=\"font-size:30px; font-family: monospace\">de</span>",
		"response": " ",
		"trial": "exp-sent",
		"word": "de",
		"trial_type": "html-keyboard-response",
		"trial_index": 209,
		"time_elapsed": 503014,
		"internal_node_id": "0.0-3.0-1.163"
	},
	{
		"rt": 496,
		"stimulus": "<span style=\"font-size:30px; font-family: monospace\">ação</span>",
		"response": " ",
		"trial": "exp-sent",
		"word": "ação",
		"trial_type": "html-keyboard-response",
		"trial_index": 210,
		"time_elapsed": 503762,
		"internal_node_id": "0.0-3.0-1.164"
	},
	{
		"rt": 676,
		"stimulus": "<span style=\"font-size:30px; font-family: monospace\">têm</span>",
		"response": " ",
		"trial": "exp-sent",
		"word": "têm",
		"trial_type": "html-keyboard-response",
		"trial_index": 211,
		"time_elapsed": 504692,
		"internal_node_id": "0.0-3.0-1.165"
	},
	{
		"rt": 1183,
		"stimulus": "<span style=\"font-size:30px; font-family: monospace\">chantagem</span>",
		"response": " ",
		"trial": "exp-sent",
		"word": "chantagem",
		"trial_type": "html-keyboard-response",
		"trial_index": 212,
		"time_elapsed": 506140,
		"internal_node_id": "0.0-3.0-1.166"
	},
	{
		"rt": 495,
		"stimulus": "<span style=\"font-size:30px; font-family: monospace\">e</span>",
		"response": " ",
		"trial": "exp-sent",
		"word": "e",
		"trial_type": "html-keyboard-response",
		"trial_index": 213,
		"time_elapsed": 506898,
		"internal_node_id": "0.0-3.0-1.167"
	},
	{
		"rt": 559,
		"stimulus": "<span style=\"font-size:30px; font-family: monospace\">muita</span>",
		"response": " ",
		"trial": "exp-sent",
		"word": "muita",
		"trial_type": "html-keyboard-response",
		"trial_index": 214,
		"time_elapsed": 507710,
		"internal_node_id": "0.0-3.0-1.168"
	},
	{
		"rt": 797,
		"stimulus": "<span style=\"font-size:30px; font-family: monospace\">luta.</span>",
		"response": " ",
		"trial": "exp-sent",
		"word": "luta.",
		"trial_type": "html-keyboard-response",
		"trial_index": 215,
		"time_elapsed": 508764,
		"internal_node_id": "0.0-3.0-1.169"
	},
	{
		"rt": null,
		"stimulus": "<span style= \"font-size:30px; font-family: monospace\">+</span>",
		"response": null,
		"trial_part": "fixation",
		"trial_type": "html-keyboard-response",
		"trial_index": 216,
		"time_elapsed": 510022,
		"internal_node_id": "0.0-3.0-0.170-0.170"
	},
	{
		"rt": 372,
		"stimulus": "<span style=\"font-size:30px; font-family: monospace\">A</span>",
		"response": " ",
		"trial": "exp-sent",
		"word": "A",
		"trial_type": "html-keyboard-response",
		"trial_index": 217,
		"time_elapsed": 510650,
		"internal_node_id": "0.0-3.0-1.170"
	},
	{
		"rt": 720,
		"stimulus": "<span style=\"font-size:30px; font-family: monospace\">bisavó</span>",
		"response": " ",
		"trial": "exp-sent",
		"word": "bisavó",
		"trial_type": "html-keyboard-response",
		"trial_index": 218,
		"time_elapsed": 511631,
		"internal_node_id": "0.0-3.0-1.171"
	},
	{
		"rt": 720,
		"stimulus": "<span style=\"font-size:30px; font-family: monospace\">recebeu</span>",
		"response": " ",
		"trial": "exp-sent",
		"word": "recebeu",
		"trial_type": "html-keyboard-response",
		"trial_index": 219,
		"time_elapsed": 512611,
		"internal_node_id": "0.0-3.0-1.172"
	},
	{
		"rt": 351,
		"stimulus": "<span style=\"font-size:30px; font-family: monospace\">um</span>",
		"response": " ",
		"trial": "exp-sent",
		"word": "um",
		"trial_type": "html-keyboard-response",
		"trial_index": 220,
		"time_elapsed": 513221,
		"internal_node_id": "0.0-3.0-1.173"
	},
	{
		"rt": 660,
		"stimulus": "<span style=\"font-size:30px; font-family: monospace\">benefício</span>",
		"response": " ",
		"trial": "exp-sent",
		"word": "benefício",
		"trial_type": "html-keyboard-response",
		"trial_index": 221,
		"time_elapsed": 514138,
		"internal_node_id": "0.0-3.0-1.174"
	},
	{
		"rt": 2608,
		"stimulus": "<span style=\"font-size:30px; font-family: monospace\">temporário</span>",
		"response": " ",
		"trial": "exp-sent",
		"word": "temporário",
		"trial_type": "html-keyboard-response",
		"trial_index": 222,
		"time_elapsed": 517007,
		"internal_node_id": "0.0-3.0-1.175"
	},
	{
		"rt": 382,
		"stimulus": "<span style=\"font-size:30px; font-family: monospace\">do</span>",
		"response": " ",
		"trial": "exp-sent",
		"word": "do",
		"trial_type": "html-keyboard-response",
		"trial_index": 223,
		"time_elapsed": 517648,
		"internal_node_id": "0.0-3.0-1.176"
	},
	{
		"rt": 528,
		"stimulus": "<span style=\"font-size:30px; font-family: monospace\">governo.</span>",
		"response": " ",
		"trial": "exp-sent",
		"word": "governo.",
		"trial_type": "html-keyboard-response",
		"trial_index": 224,
		"time_elapsed": 518436,
		"internal_node_id": "0.0-3.0-1.177"
	},
	{
		"rt": null,
		"stimulus": "<span style= \"font-size:30px; font-family: monospace\">+</span>",
		"response": null,
		"trial_part": "fixation",
		"trial_type": "html-keyboard-response",
		"trial_index": 225,
		"time_elapsed": 519699,
		"internal_node_id": "0.0-3.0-0.178-0.178"
	},
	{
		"rt": 325,
		"stimulus": "<span style=\"font-size:30px; font-family: monospace\">As</span>",
		"response": " ",
		"trial": "exp-sent",
		"word": "As",
		"trial_type": "html-keyboard-response",
		"trial_index": 226,
		"time_elapsed": 520281,
		"internal_node_id": "0.0-3.0-1.178"
	},
	{
		"rt": 596,
		"stimulus": "<span style=\"font-size:30px; font-family: monospace\">crianças</span>",
		"response": " ",
		"trial": "exp-sent",
		"word": "crianças",
		"trial_type": "html-keyboard-response",
		"trial_index": 227,
		"time_elapsed": 521134,
		"internal_node_id": "0.0-3.0-1.179"
	},
	{
		"rt": 578,
		"stimulus": "<span style=\"font-size:30px; font-family: monospace\">brincaram</span>",
		"response": " ",
		"trial": "exp-sent",
		"word": "brincaram",
		"trial_type": "html-keyboard-response",
		"trial_index": 228,
		"time_elapsed": 521967,
		"internal_node_id": "0.0-3.0-1.180"
	},
	{
		"rt": 417,
		"stimulus": "<span style=\"font-size:30px; font-family: monospace\">no</span>",
		"response": " ",
		"trial": "exp-sent",
		"word": "no",
		"trial_type": "html-keyboard-response",
		"trial_index": 229,
		"time_elapsed": 522637,
		"internal_node_id": "0.0-3.0-1.181"
	},
	{
		"rt": 545,
		"stimulus": "<span style=\"font-size:30px; font-family: monospace\">balanço</span>",
		"response": " ",
		"trial": "exp-sent",
		"word": "balanço",
		"trial_type": "html-keyboard-response",
		"trial_index": 230,
		"time_elapsed": 523438,
		"internal_node_id": "0.0-3.0-1.182"
	},
	{
		"rt": 485,
		"stimulus": "<span style=\"font-size:30px; font-family: monospace\">a</span>",
		"response": " ",
		"trial": "exp-sent",
		"word": "a",
		"trial_type": "html-keyboard-response",
		"trial_index": 231,
		"time_elapsed": 524178,
		"internal_node_id": "0.0-3.0-1.183"
	},
	{
		"rt": 541,
		"stimulus": "<span style=\"font-size:30px; font-family: monospace\">tarde</span>",
		"response": " ",
		"trial": "exp-sent",
		"word": "tarde",
		"trial_type": "html-keyboard-response",
		"trial_index": 232,
		"time_elapsed": 524973,
		"internal_node_id": "0.0-3.0-1.184"
	},
	{
		"rt": 433,
		"stimulus": "<span style=\"font-size:30px; font-family: monospace\">toda.</span>",
		"response": " ",
		"trial": "exp-sent",
		"word": "toda.",
		"trial_type": "html-keyboard-response",
		"trial_index": 233,
		"time_elapsed": 525663,
		"internal_node_id": "0.0-3.0-1.185"
	},
	{
		"rt": null,
		"stimulus": "<span style= \"font-size:30px; font-family: monospace\">+</span>",
		"response": null,
		"trial_part": "fixation",
		"trial_type": "html-keyboard-response",
		"trial_index": 234,
		"time_elapsed": 526935,
		"internal_node_id": "0.0-3.0-0.186-0.186"
	},
	{
		"rt": 390,
		"stimulus": "<span style=\"font-size:30px; font-family: monospace\">Ela</span>",
		"response": " ",
		"trial": "exp-sent",
		"word": "Ela",
		"trial_type": "html-keyboard-response",
		"trial_index": 235,
		"time_elapsed": 527577,
		"internal_node_id": "0.0-3.0-1.186"
	},
	{
		"rt": 495,
		"stimulus": "<span style=\"font-size:30px; font-family: monospace\">gosta</span>",
		"response": " ",
		"trial": "exp-sent",
		"word": "gosta",
		"trial_type": "html-keyboard-response",
		"trial_index": 236,
		"time_elapsed": 528322,
		"internal_node_id": "0.0-3.0-1.187"
	},
	{
		"rt": 441,
		"stimulus": "<span style=\"font-size:30px; font-family: monospace\">de</span>",
		"response": " ",
		"trial": "exp-sent",
		"word": "de",
		"trial_type": "html-keyboard-response",
		"trial_index": 237,
		"time_elapsed": 529016,
		"internal_node_id": "0.0-3.0-1.188"
	},
	{
		"rt": 358,
		"stimulus": "<span style=\"font-size:30px; font-family: monospace\">comida</span>",
		"response": " ",
		"trial": "exp-sent",
		"word": "comida",
		"trial_type": "html-keyboard-response",
		"trial_index": 238,
		"time_elapsed": 529639,
		"internal_node_id": "0.0-3.0-1.189"
	},
	{
		"rt": 443,
		"stimulus": "<span style=\"font-size:30px; font-family: monospace\">natural</span>",
		"response": " ",
		"trial": "exp-sent",
		"word": "natural",
		"trial_type": "html-keyboard-response",
		"trial_index": 239,
		"time_elapsed": 530349,
		"internal_node_id": "0.0-3.0-1.190"
	},
	{
		"rt": 435,
		"stimulus": "<span style=\"font-size:30px; font-family: monospace\">no</span>",
		"response": " ",
		"trial": "exp-sent",
		"word": "no",
		"trial_type": "html-keyboard-response",
		"trial_index": 240,
		"time_elapsed": 531043,
		"internal_node_id": "0.0-3.0-1.191"
	},
	{
		"rt": 629,
		"stimulus": "<span style=\"font-size:30px; font-family: monospace\">almoço.</span>",
		"response": " ",
		"trial": "comp",
		"word": "almoço.",
		"trial_type": "html-keyboard-response",
		"trial_index": 241,
		"time_elapsed": 531926,
		"internal_node_id": "0.0-3.0-1.192"
	},
	{
		"rt": 14580,
		"stimulus": "<span style=\"font-size:30px; font-family: monospace\">Ela gosta de comida natural no almoço?</span>",
		"response": "s",
		"question": "Ela gosta de comida natural no almoço?",
		"answer": "sim",
		"trial": "comp",
		"trial_type": "html-keyboard-response",
		"trial_index": 242,
		"time_elapsed": 546768,
		"internal_node_id": "0.0-3.0-2.192-0.192",
		"accuracy": false
	},
	{
		"rt": null,
		"stimulus": "<span style= \"font-size:30px; font-family: monospace\">+</span>",
		"response": null,
		"trial_part": "fixation",
		"trial_type": "html-keyboard-response",
		"trial_index": 243,
		"time_elapsed": 548288,
		"internal_node_id": "0.0-3.0-0.193-0.193"
	},
	{
		"rt": 855,
		"stimulus": "<span style=\"font-size:30px; font-family: monospace\">No</span>",
		"response": " ",
		"trial": "exp-sent",
		"word": "No",
		"trial_type": "html-keyboard-response",
		"trial_index": 244,
		"time_elapsed": 549398,
		"internal_node_id": "0.0-3.0-1.193"
	},
	{
		"rt": 635,
		"stimulus": "<span style=\"font-size:30px; font-family: monospace\">passado</span>",
		"response": " ",
		"trial": "exp-sent",
		"word": "passado",
		"trial_type": "html-keyboard-response",
		"trial_index": 245,
		"time_elapsed": 550293,
		"internal_node_id": "0.0-3.0-1.194"
	},
	{
		"rt": 462,
		"stimulus": "<span style=\"font-size:30px; font-family: monospace\">houve</span>",
		"response": " ",
		"trial": "exp-sent",
		"word": "houve",
		"trial_type": "html-keyboard-response",
		"trial_index": 246,
		"time_elapsed": 551008,
		"internal_node_id": "0.0-3.0-1.195"
	},
	{
		"rt": 354,
		"stimulus": "<span style=\"font-size:30px; font-family: monospace\">uma</span>",
		"response": " ",
		"trial": "exp-sent",
		"word": "uma",
		"trial_type": "html-keyboard-response",
		"trial_index": 247,
		"time_elapsed": 551614,
		"internal_node_id": "0.0-3.0-1.196"
	},
	{
		"rt": 698,
		"stimulus": "<span style=\"font-size:30px; font-family: monospace\">rebelião</span>",
		"response": " ",
		"trial": "exp-sent",
		"word": "rebelião",
		"trial_type": "html-keyboard-response",
		"trial_index": 248,
		"time_elapsed": 552574,
		"internal_node_id": "0.0-3.0-1.197"
	},
	{
		"rt": 336,
		"stimulus": "<span style=\"font-size:30px; font-family: monospace\">nesta</span>",
		"response": " ",
		"trial": "exp-sent",
		"word": "nesta",
		"trial_type": "html-keyboard-response",
		"trial_index": 249,
		"time_elapsed": 553175,
		"internal_node_id": "0.0-3.0-1.198"
	},
	{
		"rt": 435,
		"stimulus": "<span style=\"font-size:30px; font-family: monospace\">cidade.</span>",
		"response": " ",
		"trial": "exp-sent",
		"word": "cidade.",
		"trial_type": "html-keyboard-response",
		"trial_index": 250,
		"time_elapsed": 553865,
		"internal_node_id": "0.0-3.0-1.199"
	},
	{
		"rt": null,
		"stimulus": "<span style= \"font-size:30px; font-family: monospace\">+</span>",
		"response": null,
		"trial_part": "fixation",
		"trial_type": "html-keyboard-response",
		"trial_index": 251,
		"time_elapsed": 555119,
		"internal_node_id": "0.0-3.0-0.200-0.200"
	},
	{
		"rt": 454,
		"stimulus": "<span style=\"font-size:30px; font-family: monospace\">Ele</span>",
		"response": " ",
		"trial": "exp-sent",
		"word": "Ele",
		"trial_type": "html-keyboard-response",
		"trial_index": 252,
		"time_elapsed": 555833,
		"internal_node_id": "0.0-3.0-1.200"
	},
	{
		"rt": 636,
		"stimulus": "<span style=\"font-size:30px; font-family: monospace\">fundou</span>",
		"response": " ",
		"trial": "exp-sent",
		"word": "fundou",
		"trial_type": "html-keyboard-response",
		"trial_index": 253,
		"time_elapsed": 556726,
		"internal_node_id": "0.0-3.0-1.201"
	},
	{
		"rt": 489,
		"stimulus": "<span style=\"font-size:30px; font-family: monospace\">uma</span>",
		"response": " ",
		"trial": "exp-sent",
		"word": "uma",
		"trial_type": "html-keyboard-response",
		"trial_index": 254,
		"time_elapsed": 557469,
		"internal_node_id": "0.0-3.0-1.202"
	},
	{
		"rt": 522,
		"stimulus": "<span style=\"font-size:30px; font-family: monospace\">empresa</span>",
		"response": " ",
		"trial": "exp-sent",
		"word": "empresa",
		"trial_type": "html-keyboard-response",
		"trial_index": 255,
		"time_elapsed": 558255,
		"internal_node_id": "0.0-3.0-1.203"
	},
	{
		"rt": 638,
		"stimulus": "<span style=\"font-size:30px; font-family: monospace\">privada</span>",
		"response": " ",
		"trial": "exp-sent",
		"word": "privada",
		"trial_type": "html-keyboard-response",
		"trial_index": 256,
		"time_elapsed": 559154,
		"internal_node_id": "0.0-3.0-1.204"
	},
	{
		"rt": 554,
		"stimulus": "<span style=\"font-size:30px; font-family: monospace\">sem</span>",
		"response": " ",
		"trial": "exp-sent",
		"word": "sem",
		"trial_type": "html-keyboard-response",
		"trial_index": 257,
		"time_elapsed": 559965,
		"internal_node_id": "0.0-3.0-1.205"
	},
	{
		"rt": 472,
		"stimulus": "<span style=\"font-size:30px; font-family: monospace\">ajuda.</span>",
		"response": " ",
		"trial": "exp-sent",
		"word": "ajuda.",
		"trial_type": "html-keyboard-response",
		"trial_index": 258,
		"time_elapsed": 560698,
		"internal_node_id": "0.0-3.0-1.206"
	},
	{
		"rt": null,
		"stimulus": "<span style= \"font-size:30px; font-family: monospace\">+</span>",
		"response": null,
		"trial_part": "fixation",
		"trial_type": "html-keyboard-response",
		"trial_index": 259,
		"time_elapsed": 561970,
		"internal_node_id": "0.0-3.0-0.207-0.207"
	},
	{
		"rt": 649,
		"stimulus": "<span style=\"font-size:30px; font-family: monospace\">As</span>",
		"response": " ",
		"trial": "exp-sent",
		"word": "As",
		"trial_type": "html-keyboard-response",
		"trial_index": 260,
		"time_elapsed": 562874,
		"internal_node_id": "0.0-3.0-1.207"
	},
	{
		"rt": 493,
		"stimulus": "<span style=\"font-size:30px; font-family: monospace\">meninas</span>",
		"response": " ",
		"trial": "exp-sent",
		"word": "meninas",
		"trial_type": "html-keyboard-response",
		"trial_index": 261,
		"time_elapsed": 563631,
		"internal_node_id": "0.0-3.0-1.208"
	},
	{
		"rt": 1000,
		"stimulus": "<span style=\"font-size:30px; font-family: monospace\">encontraram</span>",
		"response": " ",
		"trial": "exp-sent",
		"word": "encontraram",
		"trial_type": "html-keyboard-response",
		"trial_index": 262,
		"time_elapsed": 564884,
		"internal_node_id": "0.0-3.0-1.209"
	},
	{
		"rt": 370,
		"stimulus": "<span style=\"font-size:30px; font-family: monospace\">um</span>",
		"response": " ",
		"trial": "exp-sent",
		"word": "um",
		"trial_type": "html-keyboard-response",
		"trial_index": 263,
		"time_elapsed": 565507,
		"internal_node_id": "0.0-3.0-1.210"
	},
	{
		"rt": 378,
		"stimulus": "<span style=\"font-size:30px; font-family: monospace\">rato</span>",
		"response": " ",
		"trial": "exp-sent",
		"word": "rato",
		"trial_type": "html-keyboard-response",
		"trial_index": 264,
		"time_elapsed": 566137,
		"internal_node_id": "0.0-3.0-1.211"
	},
	{
		"rt": 386,
		"stimulus": "<span style=\"font-size:30px; font-family: monospace\">dentro</span>",
		"response": " ",
		"trial": "exp-sent",
		"word": "dentro",
		"trial_type": "html-keyboard-response",
		"trial_index": 265,
		"time_elapsed": 566786,
		"internal_node_id": "0.0-3.0-1.212"
	},
	{
		"rt": 399,
		"stimulus": "<span style=\"font-size:30px; font-family: monospace\">de</span>",
		"response": " ",
		"trial": "exp-sent",
		"word": "de",
		"trial_type": "html-keyboard-response",
		"trial_index": 266,
		"time_elapsed": 567441,
		"internal_node_id": "0.0-3.0-1.213"
	},
	{
		"rt": 332,
		"stimulus": "<span style=\"font-size:30px; font-family: monospace\">casa.</span>",
		"response": " ",
		"trial": "exp-sent",
		"word": "casa.",
		"trial_type": "html-keyboard-response",
		"trial_index": 267,
		"time_elapsed": 568028,
		"internal_node_id": "0.0-3.0-1.214"
	},
	{
		"rt": null,
		"stimulus": "<span style= \"font-size:30px; font-family: monospace\">+</span>",
		"response": null,
		"trial_part": "fixation",
		"trial_type": "html-keyboard-response",
		"trial_index": 268,
		"time_elapsed": 569289,
		"internal_node_id": "0.0-3.0-0.215-0.215"
	},
	{
		"rt": 55,
		"stimulus": "<span style=\"font-size:30px; font-family: monospace\">O</span>",
		"response": " ",
		"trial": "exp-sent",
		"word": "O",
		"trial_type": "html-keyboard-response",
		"trial_index": 269,
		"time_elapsed": 569604,
		"internal_node_id": "0.0-3.0-1.215"
	},
	{
		"rt": 396,
		"stimulus": "<span style=\"font-size:30px; font-family: monospace\">texto</span>",
		"response": " ",
		"trial": "exp-sent",
		"word": "texto",
		"trial_type": "html-keyboard-response",
		"trial_index": 270,
		"time_elapsed": 570262,
		"internal_node_id": "0.0-3.0-1.216"
	},
	{
		"rt": 502,
		"stimulus": "<span style=\"font-size:30px; font-family: monospace\">tinha</span>",
		"response": " ",
		"trial": "exp-sent",
		"word": "tinha",
		"trial_type": "html-keyboard-response",
		"trial_index": 271,
		"time_elapsed": 571027,
		"internal_node_id": "0.0-3.0-1.217"
	},
	{
		"rt": 358,
		"stimulus": "<span style=\"font-size:30px; font-family: monospace\">ideias</span>",
		"response": " ",
		"trial": "exp-sent",
		"word": "ideias",
		"trial_type": "html-keyboard-response",
		"trial_index": 272,
		"time_elapsed": 571650,
		"internal_node_id": "0.0-3.0-1.218"
	},
	{
		"rt": 567,
		"stimulus": "<span style=\"font-size:30px; font-family: monospace\">vagas</span>",
		"response": " ",
		"trial": "exp-sent",
		"word": "vagas",
		"trial_type": "html-keyboard-response",
		"trial_index": 273,
		"time_elapsed": 572485,
		"internal_node_id": "0.0-3.0-1.219"
	},
	{
		"rt": 383,
		"stimulus": "<span style=\"font-size:30px; font-family: monospace\">e</span>",
		"response": " ",
		"trial": "exp-sent",
		"word": "e",
		"trial_type": "html-keyboard-response",
		"trial_index": 274,
		"time_elapsed": 573129,
		"internal_node_id": "0.0-3.0-1.220"
	},
	{
		"rt": 471,
		"stimulus": "<span style=\"font-size:30px; font-family: monospace\">confusas.</span>",
		"response": " ",
		"trial": "exp-sent",
		"word": "confusas.",
		"trial_type": "html-keyboard-response",
		"trial_index": 275,
		"time_elapsed": 573858,
		"internal_node_id": "0.0-3.0-1.221"
	},
	{
		"rt": null,
		"stimulus": "<span style= \"font-size:30px; font-family: monospace\">+</span>",
		"response": null,
		"trial_part": "fixation",
		"trial_type": "html-keyboard-response",
		"trial_index": 276,
		"time_elapsed": 575129,
		"internal_node_id": "0.0-3.0-0.222-0.222"
	},
	{
		"rt": 347,
		"stimulus": "<span style=\"font-size:30px; font-family: monospace\">As</span>",
		"response": " ",
		"trial": "exp-sent",
		"word": "As",
		"trial_type": "html-keyboard-response",
		"trial_index": 277,
		"time_elapsed": 575731,
		"internal_node_id": "0.0-3.0-1.222"
	},
	{
		"rt": 574,
		"stimulus": "<span style=\"font-size:30px; font-family: monospace\">crianças</span>",
		"response": " ",
		"trial": "exp-sent",
		"word": "crianças",
		"trial_type": "html-keyboard-response",
		"trial_index": 278,
		"time_elapsed": 576564,
		"internal_node_id": "0.0-3.0-1.223"
	},
	{
		"rt": 494,
		"stimulus": "<span style=\"font-size:30px; font-family: monospace\">viram</span>",
		"response": " ",
		"trial": "exp-sent",
		"word": "viram",
		"trial_type": "html-keyboard-response",
		"trial_index": 279,
		"time_elapsed": 577318,
		"internal_node_id": "0.0-3.0-1.224"
	},
	{
		"rt": 549,
		"stimulus": "<span style=\"font-size:30px; font-family: monospace\">a</span>",
		"response": " ",
		"trial": "exp-sent",
		"word": "a",
		"trial_type": "html-keyboard-response",
		"trial_index": 280,
		"time_elapsed": 578126,
		"internal_node_id": "0.0-3.0-1.225"
	},
	{
		"rt": 460,
		"stimulus": "<span style=\"font-size:30px; font-family: monospace\">acrobata</span>",
		"response": " ",
		"trial": "exp-sent",
		"word": "acrobata",
		"trial_type": "html-keyboard-response",
		"trial_index": 281,
		"time_elapsed": 578849,
		"internal_node_id": "0.0-3.0-1.226"
	},
	{
		"rt": 640,
		"stimulus": "<span style=\"font-size:30px; font-family: monospace\">talentosa</span>",
		"response": " ",
		"trial": "exp-sent",
		"word": "talentosa",
		"trial_type": "html-keyboard-response",
		"trial_index": 282,
		"time_elapsed": 579756,
		"internal_node_id": "0.0-3.0-1.227"
	},
	{
		"rt": 473,
		"stimulus": "<span style=\"font-size:30px; font-family: monospace\">no</span>",
		"response": " ",
		"trial": "exp-sent",
		"word": "no",
		"trial_type": "html-keyboard-response",
		"trial_index": 283,
		"time_elapsed": 580491,
		"internal_node_id": "0.0-3.0-1.228"
	},
	{
		"rt": 381,
		"stimulus": "<span style=\"font-size:30px; font-family: monospace\">circo.</span>",
		"response": " ",
		"trial": "comp",
		"word": "circo.",
		"trial_type": "html-keyboard-response",
		"trial_index": 284,
		"time_elapsed": 581127,
		"internal_node_id": "0.0-3.0-1.229"
	},
	{
		"rt": 7232,
		"stimulus": "<span style=\"font-size:30px; font-family: monospace\">As crianças viram o palhaço no circo?</span>",
		"response": "s",
		"question": "As crianças viram o palhaço no circo?",
		"answer": "não",
		"trial": "comp",
		"trial_type": "html-keyboard-response",
		"trial_index": 285,
		"time_elapsed": 588609,
		"internal_node_id": "0.0-3.0-2.229-0.229",
		"accuracy": false
	},
	{
		"rt": null,
		"stimulus": "<span style= \"font-size:30px; font-family: monospace\">+</span>",
		"response": null,
		"trial_part": "fixation",
		"trial_type": "html-keyboard-response",
		"trial_index": 286,
		"time_elapsed": 590123,
		"internal_node_id": "0.0-3.0-0.230-0.230"
	},
	{
		"rt": 1863,
		"stimulus": "<span style=\"font-size:30px; font-family: monospace\">Minha</span>",
		"response": " ",
		"trial": "exp-sent",
		"word": "Minha",
		"trial_type": "html-keyboard-response",
		"trial_index": 287,
		"time_elapsed": 592242,
		"internal_node_id": "0.0-3.0-1.230"
	},
	{
		"rt": 735,
		"stimulus": "<span style=\"font-size:30px; font-family: monospace\">prima</span>",
		"response": " ",
		"trial": "exp-sent",
		"word": "prima",
		"trial_type": "html-keyboard-response",
		"trial_index": 288,
		"time_elapsed": 593234,
		"internal_node_id": "0.0-3.0-1.231"
	},
	{
		"rt": 527,
		"stimulus": "<span style=\"font-size:30px; font-family: monospace\">trocou</span>",
		"response": " ",
		"trial": "exp-sent",
		"word": "trocou",
		"trial_type": "html-keyboard-response",
		"trial_index": 289,
		"time_elapsed": 594025,
		"internal_node_id": "0.0-3.0-1.232"
	},
	{
		"rt": 354,
		"stimulus": "<span style=\"font-size:30px; font-family: monospace\">a</span>",
		"response": " ",
		"trial": "exp-sent",
		"word": "a",
		"trial_type": "html-keyboard-response",
		"trial_index": 290,
		"time_elapsed": 594634,
		"internal_node_id": "0.0-3.0-1.233"
	},
	{
		"rt": 413,
		"stimulus": "<span style=\"font-size:30px; font-family: monospace\">tela</span>",
		"response": " ",
		"trial": "exp-sent",
		"word": "tela",
		"trial_type": "html-keyboard-response",
		"trial_index": 291,
		"time_elapsed": 595306,
		"internal_node_id": "0.0-3.0-1.234"
	},
	{
		"rt": 348,
		"stimulus": "<span style=\"font-size:30px; font-family: monospace\">do</span>",
		"response": " ",
		"trial": "exp-sent",
		"word": "do",
		"trial_type": "html-keyboard-response",
		"trial_index": 292,
		"time_elapsed": 595908,
		"internal_node_id": "0.0-3.0-1.235"
	},
	{
		"rt": 356,
		"stimulus": "<span style=\"font-size:30px; font-family: monospace\">celular</span>",
		"response": " ",
		"trial": "exp-sent",
		"word": "celular",
		"trial_type": "html-keyboard-response",
		"trial_index": 293,
		"time_elapsed": 596525,
		"internal_node_id": "0.0-3.0-1.236"
	},
	{
		"rt": 418,
		"stimulus": "<span style=\"font-size:30px; font-family: monospace\">duas</span>",
		"response": " ",
		"trial": "exp-sent",
		"word": "duas",
		"trial_type": "html-keyboard-response",
		"trial_index": 294,
		"time_elapsed": 597207,
		"internal_node_id": "0.0-3.0-1.237"
	},
	{
		"rt": 398,
		"stimulus": "<span style=\"font-size:30px; font-family: monospace\">vezes.</span>",
		"response": " ",
		"trial": "exp-sent",
		"word": "vezes.",
		"trial_type": "html-keyboard-response",
		"trial_index": 295,
		"time_elapsed": 597859,
		"internal_node_id": "0.0-3.0-1.238"
	},
	{
		"rt": null,
		"stimulus": "<span style= \"font-size:30px; font-family: monospace\">+</span>",
		"response": null,
		"trial_part": "fixation",
		"trial_type": "html-keyboard-response",
		"trial_index": 296,
		"time_elapsed": 599123,
		"internal_node_id": "0.0-3.0-0.239-0.239"
	},
	{
		"rt": 503,
		"stimulus": "<span style=\"font-size:30px; font-family: monospace\">Agora</span>",
		"response": " ",
		"trial": "exp-sent",
		"word": "Agora",
		"trial_type": "html-keyboard-response",
		"trial_index": 297,
		"time_elapsed": 599880,
		"internal_node_id": "0.0-3.0-1.239"
	},
	{
		"rt": 421,
		"stimulus": "<span style=\"font-size:30px; font-family: monospace\">a</span>",
		"response": " ",
		"trial": "exp-sent",
		"word": "a",
		"trial_type": "html-keyboard-response",
		"trial_index": 298,
		"time_elapsed": 600559,
		"internal_node_id": "0.0-3.0-1.240"
	},
	{
		"rt": 539,
		"stimulus": "<span style=\"font-size:30px; font-family: monospace\">minha</span>",
		"response": " ",
		"trial": "exp-sent",
		"word": "minha",
		"trial_type": "html-keyboard-response",
		"trial_index": 299,
		"time_elapsed": 601359,
		"internal_node_id": "0.0-3.0-1.241"
	},
	{
		"rt": 426,
		"stimulus": "<span style=\"font-size:30px; font-family: monospace\">única</span>",
		"response": " ",
		"trial": "exp-sent",
		"word": "única",
		"trial_type": "html-keyboard-response",
		"trial_index": 300,
		"time_elapsed": 602039,
		"internal_node_id": "0.0-3.0-1.242"
	},
	{
		"rt": 753,
		"stimulus": "<span style=\"font-size:30px; font-family: monospace\">preocupação</span>",
		"response": " ",
		"trial": "exp-sent",
		"word": "preocupação",
		"trial_type": "html-keyboard-response",
		"trial_index": 301,
		"time_elapsed": 603049,
		"internal_node_id": "0.0-3.0-1.243"
	},
	{
		"rt": 404,
		"stimulus": "<span style=\"font-size:30px; font-family: monospace\">é</span>",
		"response": " ",
		"trial": "exp-sent",
		"word": "é",
		"trial_type": "html-keyboard-response",
		"trial_index": 302,
		"time_elapsed": 603715,
		"internal_node_id": "0.0-3.0-1.244"
	},
	{
		"rt": 463,
		"stimulus": "<span style=\"font-size:30px; font-family: monospace\">um</span>",
		"response": " ",
		"trial": "exp-sent",
		"word": "um",
		"trial_type": "html-keyboard-response",
		"trial_index": 303,
		"time_elapsed": 604441,
		"internal_node_id": "0.0-3.0-1.245"
	},
	{
		"rt": 472,
		"stimulus": "<span style=\"font-size:30px; font-family: monospace\">descanso</span>",
		"response": " ",
		"trial": "exp-sent",
		"word": "descanso",
		"trial_type": "html-keyboard-response",
		"trial_index": 304,
		"time_elapsed": 605165,
		"internal_node_id": "0.0-3.0-1.246"
	},
	{
		"rt": 392,
		"stimulus": "<span style=\"font-size:30px; font-family: monospace\">tranquilo.</span>",
		"response": " ",
		"trial": "exp-sent",
		"word": "tranquilo.",
		"trial_type": "html-keyboard-response",
		"trial_index": 305,
		"time_elapsed": 605812,
		"internal_node_id": "0.0-3.0-1.247"
	},
	{
		"rt": null,
		"stimulus": "<span style= \"font-size:30px; font-family: monospace\">+</span>",
		"response": null,
		"trial_part": "fixation",
		"trial_type": "html-keyboard-response",
		"trial_index": 306,
		"time_elapsed": 607076,
		"internal_node_id": "0.0-3.0-0.248-0.248"
	},
	{
		"rt": 412,
		"stimulus": "<span style=\"font-size:30px; font-family: monospace\">A</span>",
		"response": " ",
		"trial": "exp-sent",
		"word": "A",
		"trial_type": "html-keyboard-response",
		"trial_index": 307,
		"time_elapsed": 607745,
		"internal_node_id": "0.0-3.0-1.248"
	},
	{
		"rt": 468,
		"stimulus": "<span style=\"font-size:30px; font-family: monospace\">criança</span>",
		"response": " ",
		"trial": "exp-sent",
		"word": "criança",
		"trial_type": "html-keyboard-response",
		"trial_index": 308,
		"time_elapsed": 608475,
		"internal_node_id": "0.0-3.0-1.249"
	},
	{
		"rt": 349,
		"stimulus": "<span style=\"font-size:30px; font-family: monospace\">ganhou</span>",
		"response": " ",
		"trial": "exp-sent",
		"word": "ganhou",
		"trial_type": "html-keyboard-response",
		"trial_index": 309,
		"time_elapsed": 609090,
		"internal_node_id": "0.0-3.0-1.250"
	},
	{
		"rt": 417,
		"stimulus": "<span style=\"font-size:30px; font-family: monospace\">um</span>",
		"response": " ",
		"trial": "exp-sent",
		"word": "um",
		"trial_type": "html-keyboard-response",
		"trial_index": 310,
		"time_elapsed": 609768,
		"internal_node_id": "0.0-3.0-1.251"
	},
	{
		"rt": 449,
		"stimulus": "<span style=\"font-size:30px; font-family: monospace\">presente</span>",
		"response": " ",
		"trial": "exp-sent",
		"word": "presente",
		"trial_type": "html-keyboard-response",
		"trial_index": 311,
		"time_elapsed": 610474,
		"internal_node_id": "0.0-3.0-1.252"
	},
	{
		"rt": 517,
		"stimulus": "<span style=\"font-size:30px; font-family: monospace\">maravilhoso.</span>",
		"response": " ",
		"trial": "exp-sent",
		"word": "maravilhoso.",
		"trial_type": "html-keyboard-response",
		"trial_index": 312,
		"time_elapsed": 611241,
		"internal_node_id": "0.0-3.0-1.253"
	},
	{
		"rt": null,
		"stimulus": "<span style= \"font-size:30px; font-family: monospace\">+</span>",
		"response": null,
		"trial_part": "fixation",
		"trial_type": "html-keyboard-response",
		"trial_index": 313,
		"time_elapsed": 612512,
		"internal_node_id": "0.0-3.0-0.254-0.254"
	},
	{
		"rt": 664,
		"stimulus": "<span style=\"font-size:30px; font-family: monospace\">Os</span>",
		"response": " ",
		"trial": "exp-sent",
		"word": "Os",
		"trial_type": "html-keyboard-response",
		"trial_index": 314,
		"time_elapsed": 613430,
		"internal_node_id": "0.0-3.0-1.254"
	},
	{
		"rt": 1252,
		"stimulus": "<span style=\"font-size:30px; font-family: monospace\">bichos</span>",
		"response": " ",
		"trial": "exp-sent",
		"word": "bichos",
		"trial_type": "html-keyboard-response",
		"trial_index": 315,
		"time_elapsed": 614947,
		"internal_node_id": "0.0-3.0-1.255"
	},
	{
		"rt": 411,
		"stimulus": "<span style=\"font-size:30px; font-family: monospace\">têm</span>",
		"response": " ",
		"trial": "exp-sent",
		"word": "têm",
		"trial_type": "html-keyboard-response",
		"trial_index": 316,
		"time_elapsed": 615624,
		"internal_node_id": "0.0-3.0-1.256"
	},
	{
		"rt": 532,
		"stimulus": "<span style=\"font-size:30px; font-family: monospace\">um</span>",
		"response": " ",
		"trial": "exp-sent",
		"word": "um",
		"trial_type": "html-keyboard-response",
		"trial_index": 317,
		"time_elapsed": 616417,
		"internal_node_id": "0.0-3.0-1.257"
	},
	{
		"rt": 607,
		"stimulus": "<span style=\"font-size:30px; font-family: monospace\">instinto</span>",
		"response": " ",
		"trial": "exp-sent",
		"word": "instinto",
		"trial_type": "html-keyboard-response",
		"trial_index": 318,
		"time_elapsed": 617289,
		"internal_node_id": "0.0-3.0-1.258"
	},
	{
		"rt": 359,
		"stimulus": "<span style=\"font-size:30px; font-family: monospace\">de</span>",
		"response": " ",
		"trial": "exp-sent",
		"word": "de",
		"trial_type": "html-keyboard-response",
		"trial_index": 319,
		"time_elapsed": 617904,
		"internal_node_id": "0.0-3.0-1.259"
	},
	{
		"rt": 318,
		"stimulus": "<span style=\"font-size:30px; font-family: monospace\">sobrevivência</span>",
		"response": " ",
		"trial": "exp-sent",
		"word": "sobrevivência",
		"trial_type": "html-keyboard-response",
		"trial_index": 320,
		"time_elapsed": 618490,
		"internal_node_id": "0.0-3.0-1.260"
	},
	{
		"rt": 309,
		"stimulus": "<span style=\"font-size:30px; font-family: monospace\">forte.</span>",
		"response": " ",
		"trial": "exp-sent",
		"word": "forte.",
		"trial_type": "html-keyboard-response",
		"trial_index": 321,
		"time_elapsed": 619056,
		"internal_node_id": "0.0-3.0-1.261"
	},
	{
		"rt": null,
		"stimulus": "<span style= \"font-size:30px; font-family: monospace\">+</span>",
		"response": null,
		"trial_part": "fixation",
		"trial_type": "html-keyboard-response",
		"trial_index": 322,
		"time_elapsed": 620320,
		"internal_node_id": "0.0-3.0-0.262-0.262"
	},
	{
		"rt": 212,
		"stimulus": "<span style=\"font-size:30px; font-family: monospace\">Aquele</span>",
		"response": " ",
		"trial": "exp-sent",
		"word": "Aquele",
		"trial_type": "html-keyboard-response",
		"trial_index": 323,
		"time_elapsed": 620787,
		"internal_node_id": "0.0-3.0-1.262"
	},
	{
		"rt": 427,
		"stimulus": "<span style=\"font-size:30px; font-family: monospace\">menino</span>",
		"response": " ",
		"trial": "exp-sent",
		"word": "menino",
		"trial_type": "html-keyboard-response",
		"trial_index": 324,
		"time_elapsed": 621466,
		"internal_node_id": "0.0-3.0-1.263"
	},
	{
		"rt": 387,
		"stimulus": "<span style=\"font-size:30px; font-family: monospace\">alto</span>",
		"response": " ",
		"trial": "exp-sent",
		"word": "alto",
		"trial_type": "html-keyboard-response",
		"trial_index": 325,
		"time_elapsed": 622114,
		"internal_node_id": "0.0-3.0-1.264"
	},
	{
		"rt": 378,
		"stimulus": "<span style=\"font-size:30px; font-family: monospace\">é</span>",
		"response": " ",
		"trial": "exp-sent",
		"word": "é",
		"trial_type": "html-keyboard-response",
		"trial_index": 326,
		"time_elapsed": 622757,
		"internal_node_id": "0.0-3.0-1.265"
	},
	{
		"rt": 384,
		"stimulus": "<span style=\"font-size:30px; font-family: monospace\">exibido</span>",
		"response": " ",
		"trial": "exp-sent",
		"word": "exibido",
		"trial_type": "html-keyboard-response",
		"trial_index": 327,
		"time_elapsed": 623401,
		"internal_node_id": "0.0-3.0-1.266"
	},
	{
		"rt": 380,
		"stimulus": "<span style=\"font-size:30px; font-family: monospace\">e</span>",
		"response": " ",
		"trial": "exp-sent",
		"word": "e",
		"trial_type": "html-keyboard-response",
		"trial_index": 328,
		"time_elapsed": 624038,
		"internal_node_id": "0.0-3.0-1.267"
	},
	{
		"rt": 905,
		"stimulus": "<span style=\"font-size:30px; font-family: monospace\">sovina.</span>",
		"response": " ",
		"trial": "comp",
		"word": "sovina.",
		"trial_type": "html-keyboard-response",
		"trial_index": 329,
		"time_elapsed": 625205,
		"internal_node_id": "0.0-3.0-1.268"
	},
	{
		"rt": 4519,
		"stimulus": "<span style=\"font-size:30px; font-family: monospace\">Aquele menino é humilde?</span>",
		"response": "n",
		"question": "Aquele menino é humilde?",
		"answer": "não",
		"trial": "comp",
		"trial_type": "html-keyboard-response",
		"trial_index": 330,
		"time_elapsed": 629975,
		"internal_node_id": "0.0-3.0-2.268-0.268",
		"accuracy": false
	},
	{
		"rt": null,
		"stimulus": "<span style= \"font-size:30px; font-family: monospace\">+</span>",
		"response": null,
		"trial_part": "fixation",
		"trial_type": "html-keyboard-response",
		"trial_index": 331,
		"time_elapsed": 631491,
		"internal_node_id": "0.0-3.0-0.269-0.269"
	},
	{
		"rt": 376,
		"stimulus": "<span style=\"font-size:30px; font-family: monospace\">As</span>",
		"response": " ",
		"trial": "exp-sent",
		"word": "As",
		"trial_type": "html-keyboard-response",
		"trial_index": 332,
		"time_elapsed": 632122,
		"internal_node_id": "0.0-3.0-1.269"
	},
	{
		"rt": 564,
		"stimulus": "<span style=\"font-size:30px; font-family: monospace\">crianças</span>",
		"response": " ",
		"trial": "exp-sent",
		"word": "crianças",
		"trial_type": "html-keyboard-response",
		"trial_index": 333,
		"time_elapsed": 632953,
		"internal_node_id": "0.0-3.0-1.270"
	},
	{
		"rt": 463,
		"stimulus": "<span style=\"font-size:30px; font-family: monospace\">viram</span>",
		"response": " ",
		"trial": "exp-sent",
		"word": "viram",
		"trial_type": "html-keyboard-response",
		"trial_index": 334,
		"time_elapsed": 633680,
		"internal_node_id": "0.0-3.0-1.271"
	},
	{
		"rt": 458,
		"stimulus": "<span style=\"font-size:30px; font-family: monospace\">um</span>",
		"response": " ",
		"trial": "exp-sent",
		"word": "um",
		"trial_type": "html-keyboard-response",
		"trial_index": 335,
		"time_elapsed": 634394,
		"internal_node_id": "0.0-3.0-1.272"
	},
	{
		"rt": 1075,
		"stimulus": "<span style=\"font-size:30px; font-family: monospace\">vaga-lume</span>",
		"response": " ",
		"trial": "exp-sent",
		"word": "vaga-lume",
		"trial_type": "html-keyboard-response",
		"trial_index": 336,
		"time_elapsed": 635735,
		"internal_node_id": "0.0-3.0-1.273"
	},
	{
		"rt": 392,
		"stimulus": "<span style=\"font-size:30px; font-family: monospace\">nos</span>",
		"response": " ",
		"trial": "exp-sent",
		"word": "nos",
		"trial_type": "html-keyboard-response",
		"trial_index": 337,
		"time_elapsed": 636387,
		"internal_node_id": "0.0-3.0-1.274"
	},
	{
		"rt": 740,
		"stimulus": "<span style=\"font-size:30px; font-family: monospace\">arbustos.</span>",
		"response": " ",
		"trial": "exp-sent",
		"word": "arbustos.",
		"trial_type": "html-keyboard-response",
		"trial_index": 338,
		"time_elapsed": 637379,
		"internal_node_id": "0.0-3.0-1.275"
	},
	{
		"rt": null,
		"stimulus": "<span style= \"font-size:30px; font-family: monospace\">+</span>",
		"response": null,
		"trial_part": "fixation",
		"trial_type": "html-keyboard-response",
		"trial_index": 339,
		"time_elapsed": 638637,
		"internal_node_id": "0.0-3.0-0.276-0.276"
	},
	{
		"rt": 770,
