"view_history","rt","trial_type","trial_index","time_elapsed","internal_node_id","stimulus","response","trial_part","trial","word","question","answer","accuracy"
"[{""page_index"":0,""viewing_time"":83842},{""page_index"":1,""viewing_time"":23888}]","107731","instructions","0","107731","0.0-0.0","","","","","","","",""
"","null","html-keyboard-response","1","108833","0.0-1.0-0.0-0.0","<span style= ""font-size:30px; font-family: monospace"">+</span>","null","fixation","","","","",""
"","3622","html-keyboard-response","2","112707","0.0-1.0-1.0","<span style=""font-size:30px; font-family: monospace"">O</span>"," ","","prac-sent","O","","",""
"","85171","html-keyboard-response","3","198129","0.0-1.0-1.1","<span style=""font-size:30px; font-family: monospace"">dia</span>"," ","","prac-sent","dia","","",""
"","453","html-keyboard-response","4","198833","0.0-1.0-1.2","<span style=""font-size:30px; font-family: monospace"">estará</span>"," ","","prac-sent","estará","","",""
"","421","html-keyboard-response","5","199505","0.0-1.0-1.3","<span style=""font-size:30px; font-family: monospace"">cheio</span>"," ","","prac-sent","cheio","","",""
"","453","html-keyboard-response","6","200209","0.0-1.0-1.4","<span style=""font-size:30px; font-family: monospace"">de</span>"," ","","prac-sent","de","","",""
"","724","html-keyboard-response","7","201185","0.0-1.0-1.5","<span style=""font-size:30px; font-family: monospace"">nuvens</span>"," ","","prac-sent","nuvens","","",""
"","533","html-keyboard-response","8","201969","0.0-1.0-1.6","<span style=""font-size:30px; font-family: monospace"">hoje.</span>"," ","","prac-sent","hoje.","","",""
"","null","html-keyboard-response","9","203222","0.0-1.0-0.7-0.7","<span style= ""font-size:30px; font-family: monospace"">+</span>","null","fixation","","","","",""
"","1488","html-keyboard-response","10","204961","0.0-1.0-1.7","<span style=""font-size:30px; font-family: monospace"">A</span>"," ","","prac-sent","A","","",""
"","9252","html-keyboard-response","11","214465","0.0-1.0-1.8","<span style=""font-size:30px; font-family: monospace"">caneca</span>"," ","","prac-sent","caneca","","",""
"","453","html-keyboard-response","12","215169","0.0-1.0-1.9","<span style=""font-size:30px; font-family: monospace"">colorida</span>"," ","","prac-sent","colorida","","",""
"","448","html-keyboard-response","13","215873","0.0-1.0-1.10","<span style=""font-size:30px; font-family: monospace"">caiu</span>"," ","","prac-sent","caiu","","",""
"","17957","html-keyboard-response","14","234081","0.0-1.0-1.11","<span style=""font-size:30px; font-family: monospace"">da</span>"," ","","prac-sent","da","","",""
"","4629","html-keyboard-response","15","238961","0.0-1.0-1.12","<span style=""font-size:30px; font-family: monospace"">mesa</span>"," ","","prac-sent","mesa","","",""
"","1877","html-keyboard-response","16","241089","0.0-1.0-1.13","<span style=""font-size:30px; font-family: monospace"">de</span>"," ","","prac-sent","de","","",""
"","532","html-keyboard-response","17","241873","0.0-1.0-1.14","<span style=""font-size:30px; font-family: monospace"">jantar.</span>"," ","","prac-comp","jantar.","","",""
"","42245","html-keyboard-response","18","284368","0.0-1.0-2.14-0.14","<span style=""font-size:30px; font-family: monospace"">A caneca permaneceu na mesa?</span>","s","","prac-comp","","A caneca permaneceu na mesa?","não","false"
"[{""page_index"":0,""viewing_time"":34481}]","34482","instructions","19","319361","0.0-2.0","","","","","","","",""
"","null","html-keyboard-response","20","320463","0.0-3.0-0.0-0.0","<span style= ""font-size:30px; font-family: monospace"">+</span>","null","fixation","","","","",""
"","2951","html-keyboard-response","21","323664","0.0-3.0-1.0","<span style=""font-size:30px; font-family: monospace"">O</span>"," ","","exp-sent","O","","",""
"","104052","html-keyboard-response","22","427968","0.0-3.0-1.1","<span style=""font-size:30px; font-family: monospace"">moço</span>"," ","","exp-sent","moço","","",""
"","6117","html-keyboard-response","23","434336","0.0-3.0-1.2","<span style=""font-size:30px; font-family: monospace"">usou</span>"," ","","exp-sent","usou","","",""
"","1253","html-keyboard-response","24","435840","0.0-3.0-1.3","<span style=""font-size:30px; font-family: monospace"">várias</span>"," ","","exp-sent","várias","","",""
"","852","html-keyboard-response","25","436944","0.0-3.0-1.4","<span style=""font-size:30px; font-family: monospace"">velas</span>"," ","","exp-sent","velas","","",""
"","452","html-keyboard-response","26","437648","0.0-3.0-1.5","<span style=""font-size:30px; font-family: monospace"">no</span>"," ","","exp-sent","no","","",""
"","1125","html-keyboard-response","27","439024","0.0-3.0-1.6","<span style=""font-size:30px; font-family: monospace"">enfeite</span>"," ","","exp-sent","enfeite","","",""
"","997","html-keyboard-response","28","440272","0.0-3.0-1.7","<span style=""font-size:30px; font-family: monospace"">de</span>"," ","","exp-sent","de","","",""
"","485","html-keyboard-response","29","441008","0.0-3.0-1.8","<span style=""font-size:30px; font-family: monospace"">mesa.</span>"," ","","exp-sent","mesa.","","",""
"","null","html-keyboard-response","30","442260","0.0-3.0-0.9-0.9","<span style= ""font-size:30px; font-family: monospace"">+</span>","null","fixation","","","","",""
"","2944","html-keyboard-response","31","445456","0.0-3.0-1.9","<span style=""font-size:30px; font-family: monospace"">Gostamos</span>"," ","","exp-sent","Gostamos","","",""
"","596","html-keyboard-response","32","446304","0.0-3.0-1.10","<span style=""font-size:30px; font-family: monospace"">de</span>"," ","","exp-sent","de","","",""
"","1013","html-keyboard-response","33","447568","0.0-3.0-1.11","<span style=""font-size:30px; font-family: monospace"">suco</span>"," ","","exp-sent","suco","","",""
"","420","html-keyboard-response","34","448240","0.0-3.0-1.12","<span style=""font-size:30px; font-family: monospace"">em</span>"," ","","exp-sent","em","","",""
"","9188","html-keyboard-response","35","457680","0.0-3.0-1.13","<span style=""font-size:30px; font-family: monospace"">garrafa</span>"," ","","exp-sent","garrafa","","",""
"","564","html-keyboard-response","36","458496","0.0-3.0-1.14","<span style=""font-size:30px; font-family: monospace"">de</span>"," ","","exp-sent","de","","",""
"","4037","html-keyboard-response","37","462784","0.0-3.0-1.15","<span style=""font-size:30px; font-family: monospace"">tamanho</span>"," ","","exp-sent","tamanho","","",""
"","2132","html-keyboard-response","38","465168","0.0-3.0-1.16","<span style=""font-size:30px; font-family: monospace"">pequeno.</span>"," ","","exp-sent","pequeno.","","",""
"","null","html-keyboard-response","39","466420","0.0-3.0-0.17-0.17","<span style= ""font-size:30px; font-family: monospace"">+</span>","null","fixation","","","","",""
"","1105","html-keyboard-response","40","467776","0.0-3.0-1.17","<span style=""font-size:30px; font-family: monospace"">Sua</span>"," ","","exp-sent","Sua","","",""
"","1157","html-keyboard-response","41","469184","0.0-3.0-1.18","<span style=""font-size:30px; font-family: monospace"">filha</span>"," ","","exp-sent","filha","","",""
"","533","html-keyboard-response","42","469968","0.0-3.0-1.19","<span style=""font-size:30px; font-family: monospace"">é</span>"," ","","exp-sent","é","","",""
"","757","html-keyboard-response","43","470976","0.0-3.0-1.20","<span style=""font-size:30px; font-family: monospace"">muito</span>"," ","","exp-sent","muito","","",""
"","1397","html-keyboard-response","44","472623","0.0-3.0-1.21","<span style=""font-size:30px; font-family: monospace"">capaz</span>"," ","","exp-sent","capaz","","",""
"","421","html-keyboard-response","45","473295","0.0-3.0-1.22","<span style=""font-size:30px; font-family: monospace"">e</span>"," ","","exp-sent","e","","",""
"","1541","html-keyboard-response","46","475087","0.0-3.0-1.23","<span style=""font-size:30px; font-family: monospace"">esforçada.</span>"," ","","exp-sent","esforçada.","","",""
"","null","html-keyboard-response","47","476340","0.0-3.0-0.24-0.24","<span style= ""font-size:30px; font-family: monospace"">+</span>","null","fixation","","","","",""
"","577","html-keyboard-response","48","477168","0.0-3.0-1.24","<span style=""font-size:30px; font-family: monospace"">A</span>"," ","","exp-sent","A","","",""
"","1173","html-keyboard-response","49","478592","0.0-3.0-1.25","<span style=""font-size:30px; font-family: monospace"">batida</span>"," ","","exp-sent","batida","","",""
"","660","html-keyboard-response","50","479504","0.0-3.0-1.26","<span style=""font-size:30px; font-family: monospace"">causou</span>"," ","","exp-sent","causou","","",""
"","805","html-keyboard-response","51","480559","0.0-3.0-1.27","<span style=""font-size:30px; font-family: monospace"">muita</span>"," ","","exp-sent","muita","","",""
"","1109","html-keyboard-response","52","481920","0.0-3.0-1.28","<span style=""font-size:30px; font-family: monospace"">confusão</span>"," ","","exp-sent","confusão","","",""
"","455","html-keyboard-response","53","482640","0.0-3.0-1.29","<span style=""font-size:30px; font-family: monospace"">na</span>"," ","","exp-sent","na","","",""
"","1055","html-keyboard-response","54","483952","0.0-3.0-1.30","<span style=""font-size:30px; font-family: monospace"">estrada.</span>"," ","","exp-sent","estrada.","","",""
"","null","html-keyboard-response","55","485204","0.0-3.0-0.31-0.31","<span style= ""font-size:30px; font-family: monospace"">+</span>","null","fixation","","","","",""
"","1617","html-keyboard-response","56","487071","0.0-3.0-1.31","<span style=""font-size:30px; font-family: monospace"">Eu</span>"," ","","exp-sent","Eu","","",""
"","2821","html-keyboard-response","57","490143","0.0-3.0-1.32","<span style=""font-size:30px; font-family: monospace"">cozinhei</span>"," ","","exp-sent","cozinhei","","",""
"","613","html-keyboard-response","58","491007","0.0-3.0-1.33","<span style=""font-size:30px; font-family: monospace"">um</span>"," ","","exp-sent","um","","",""
"","1012","html-keyboard-response","59","492271","0.0-3.0-1.34","<span style=""font-size:30px; font-family: monospace"">almoço</span>"," ","","exp-sent","almoço","","",""
"","1268","html-keyboard-response","60","493791","0.0-3.0-1.35","<span style=""font-size:30px; font-family: monospace"">nutritivo</span>"," ","","exp-sent","nutritivo","","",""
"","517","html-keyboard-response","61","494559","0.0-3.0-1.36","<span style=""font-size:30px; font-family: monospace"">para</span>"," ","","exp-sent","para","","",""
"","768","html-keyboard-response","62","495583","0.0-3.0-1.37","<span style=""font-size:30px; font-family: monospace"">hoje.</span>"," ","","comp","hoje.","","",""
"","34597","html-keyboard-response","63","530431","0.0-3.0-2.37-0.37","<span style=""font-size:30px; font-family: monospace"">O almoço era nutritivo?</span>","s","","comp","","O almoço era nutritivo?","sim","false"
"","null","html-keyboard-response","64","531933","0.0-3.0-0.38-0.38","<span style= ""font-size:30px; font-family: monospace"">+</span>","null","fixation","","","","",""
"","3126","html-keyboard-response","65","535311","0.0-3.0-1.38","<span style=""font-size:30px; font-family: monospace"">Preciso</span>"," ","","exp-sent","Preciso","","",""
"","884","html-keyboard-response","66","536447","0.0-3.0-1.39","<span style=""font-size:30px; font-family: monospace"">de</span>"," ","","exp-sent","de","","",""
"","501","html-keyboard-response","67","537199","0.0-3.0-1.40","<span style=""font-size:30px; font-family: monospace"">um</span>"," ","","exp-sent","um","","",""
"","5685","html-keyboard-response","68","543135","0.0-3.0-1.41","<span style=""font-size:30px; font-family: monospace"">relatório</span>"," ","","exp-sent","relatório","","",""
"","917","html-keyboard-response","69","544303","0.0-3.0-1.42","<span style=""font-size:30px; font-family: monospace"">oficial</span>"," ","","exp-sent","oficial","","",""
"","437","html-keyboard-response","70","544991","0.0-3.0-1.43","<span style=""font-size:30px; font-family: monospace"">para</span>"," ","","exp-sent","para","","",""
"","1317","html-keyboard-response","71","546559","0.0-3.0-1.44","<span style=""font-size:30px; font-family: monospace"">amanhã.</span>"," ","","exp-sent","amanhã.","","",""
"","null","html-keyboard-response","72","547811","0.0-3.0-0.45-0.45","<span style= ""font-size:30px; font-family: monospace"">+</span>","null","fixation","","","","",""
"","1793","html-keyboard-response","73","549854","0.0-3.0-1.45","<span style=""font-size:30px; font-family: monospace"">Ele</span>"," ","","exp-sent","Ele","","",""
"","1781","html-keyboard-response","74","551886","0.0-3.0-1.46","<span style=""font-size:30px; font-family: monospace"">viu</span>"," ","","exp-sent","viu","","",""
"","6501","html-keyboard-response","75","558639","0.0-3.0-1.47","<span style=""font-size:30px; font-family: monospace"">um</span>"," ","","exp-sent","um","","",""
"","1147","html-keyboard-response","76","560047","0.0-3.0-1.48","<span style=""font-size:30px; font-family: monospace"">inseto</span>"," ","","exp-sent","inseto","","",""
"","1509","html-keyboard-response","77","561807","0.0-3.0-1.49","<span style=""font-size:30px; font-family: monospace"">marrom</span>"," ","","exp-sent","marrom","","",""
"","2885","html-keyboard-response","78","564944","0.0-3.0-1.50","<span style=""font-size:30px; font-family: monospace"">na</span>"," ","","exp-sent","na","","",""
"","2820","html-keyboard-response","79","568015","0.0-3.0-1.51","<span style=""font-size:30px; font-family: monospace"">parede.</span>"," ","","exp-sent","parede.","","",""
"","null","html-keyboard-response","80","569266","0.0-3.0-0.52-0.52","<span style= ""font-size:30px; font-family: monospace"">+</span>","null","fixation","","","","",""
"","13489","html-keyboard-response","81","583006","0.0-3.0-1.52","<span style=""font-size:30px; font-family: monospace"">O</span>"," ","","exp-sent","O","","",""
"","533","html-keyboard-response","82","583790","0.0-3.0-1.53","<span style=""font-size:30px; font-family: monospace"">avô</span>"," ","","exp-sent","avô","","",""
"","693","html-keyboard-response","83","584734","0.0-3.0-1.54","<span style=""font-size:30px; font-family: monospace"">fez</span>"," ","","exp-sent","fez","","",""
"","2789","html-keyboard-response","84","587775","0.0-3.0-1.55","<span style=""font-size:30px; font-family: monospace"">uma</span>"," ","","exp-sent","uma","","",""
"","852","html-keyboard-response","85","588878","0.0-3.0-1.56","<span style=""font-size:30px; font-family: monospace"">lista</span>"," ","","exp-sent","lista","","",""
"","405","html-keyboard-response","86","589534","0.0-3.0-1.57","<span style=""font-size:30px; font-family: monospace"">de</span>"," ","","exp-sent","de","","",""
"","1253","html-keyboard-response","87","591039","0.0-3.0-1.58","<span style=""font-size:30px; font-family: monospace"">compras</span>"," ","","exp-sent","compras","","",""
"","436","html-keyboard-response","88","591726","0.0-3.0-1.59","<span style=""font-size:30px; font-family: monospace"">do</span>"," ","","exp-sent","do","","",""
"","1044","html-keyboard-response","89","593022","0.0-3.0-1.60","<span style=""font-size:30px; font-family: monospace"">mercado.</span>"," ","","exp-sent","mercado.","","",""
"","null","html-keyboard-response","90","594275","0.0-3.0-0.61-0.61","<span style= ""font-size:30px; font-family: monospace"">+</span>","null","fixation","","","","",""
"","6577","html-keyboard-response","91","601102","0.0-3.0-1.61","<span style=""font-size:30px; font-family: monospace"">As</span>"," ","","exp-sent","As","","",""
"","740","html-keyboard-response","92","602094","0.0-3.0-1.62","<span style=""font-size:30px; font-family: monospace"">pessoas</span>"," ","","exp-sent","pessoas","","",""
"","468","html-keyboard-response","93","602814","0.0-3.0-1.63","<span style=""font-size:30px; font-family: monospace"">não</span>"," ","","exp-sent","não","","",""
"","901","html-keyboard-response","94","603966","0.0-3.0-1.64","<span style=""font-size:30px; font-family: monospace"">enviam</span>"," ","","exp-sent","enviam","","",""
"","789","html-keyboard-response","95","605006","0.0-3.0-1.65","<span style=""font-size:30px; font-family: monospace"">telegrama</span>"," ","","exp-sent","telegrama","","",""
"","436","html-keyboard-response","96","605694","0.0-3.0-1.66","<span style=""font-size:30px; font-family: monospace"">nos</span>"," ","","exp-sent","nos","","",""
"","485","html-keyboard-response","97","606430","0.0-3.0-1.67","<span style=""font-size:30px; font-family: monospace"">dias</span>"," ","","exp-sent","dias","","",""
"","405","html-keyboard-response","98","607087","0.0-3.0-1.68","<span style=""font-size:30px; font-family: monospace"">de</span>"," ","","exp-sent","de","","",""
"","549","html-keyboard-response","99","607887","0.0-3.0-1.69","<span style=""font-size:30px; font-family: monospace"">hoje.</span>"," ","","exp-sent","hoje.","","",""
"","null","html-keyboard-response","100","609139","0.0-3.0-0.70-0.70","<span style= ""font-size:30px; font-family: monospace"">+</span>","null","fixation","","","","",""
"","21761","html-keyboard-response","101","631151","0.0-3.0-1.70","<span style=""font-size:30px; font-family: monospace"">Ele</span>"," ","","exp-sent","Ele","","",""
"","484","html-keyboard-response","102","631887","0.0-3.0-1.71","<span style=""font-size:30px; font-family: monospace"">não</span>"," ","","exp-sent","não","","",""
"","566","html-keyboard-response","103","632703","0.0-3.0-1.72","<span style=""font-size:30px; font-family: monospace"">gosta</span>"," ","","exp-sent","gosta","","",""
"","437","html-keyboard-response","104","633391","0.0-3.0-1.73","<span style=""font-size:30px; font-family: monospace"">de</span>"," ","","exp-sent","de","","",""
"","2485","html-keyboard-response","105","636127","0.0-3.0-1.74","<span style=""font-size:30px; font-family: monospace"">tomate</span>"," ","","exp-sent","tomate","","",""
"","4485","html-keyboard-response","106","640863","0.0-3.0-1.75","<span style=""font-size:30px; font-family: monospace"">misturado</span>"," ","","exp-sent","misturado","","",""
"","917","html-keyboard-response","107","642031","0.0-3.0-1.76","<span style=""font-size:30px; font-family: monospace"">na</span>"," ","","exp-sent","na","","",""
"","821","html-keyboard-response","108","643103","0.0-3.0-1.77","<span style=""font-size:30px; font-family: monospace"">comida.</span>"," ","","comp","comida.","","",""
"","35141","html-keyboard-response","109","678494","0.0-3.0-2.77-0.77","<span style=""font-size:30px; font-family: monospace"">Ele gosta de tomate na comida?</span>","n","","comp","","Ele gosta de tomate na comida?","não","false"
"","null","html-keyboard-response","110","679996","0.0-3.0-0.78-0.78","<span style= ""font-size:30px; font-family: monospace"">+</span>","null","fixation","","","","",""
"","1255","html-keyboard-response","111","681502","0.0-3.0-1.78","<span style=""font-size:30px; font-family: monospace"">Minha</span>"," ","","exp-sent","Minha","","",""
"","3285","html-keyboard-response","112","685038","0.0-3.0-1.79","<span style=""font-size:30px; font-family: monospace"">prima</span>"," ","","exp-sent","prima","","",""
"","3205","html-keyboard-response","113","688494","0.0-3.0-1.80","<span style=""font-size:30px; font-family: monospace"">trocou</span>"," ","","exp-sent","trocou","","",""
"","453","html-keyboard-response","114","689198","0.0-3.0-1.81","<span style=""font-size:30px; font-family: monospace"">a</span>"," ","","exp-sent","a","","",""
"","852","html-keyboard-response","115","690302","0.0-3.0-1.82","<span style=""font-size:30px; font-family: monospace"">tela</span>"," ","","exp-sent","tela","","",""
"","655","html-keyboard-response","116","691214","0.0-3.0-1.83","<span style=""font-size:30px; font-family: monospace"">do</span>"," ","","exp-sent","do","","",""
"","2181","html-keyboard-response","117","693646","0.0-3.0-1.84","<span style=""font-size:30px; font-family: monospace"">celular</span>"," ","","exp-sent","celular","","",""
"","933","html-keyboard-response","118","694830","0.0-3.0-1.85","<span style=""font-size:30px; font-family: monospace"">duas</span>"," ","","exp-sent","duas","","",""
"","3503","html-keyboard-response","119","698590","0.0-3.0-1.86","<span style=""font-size:30px; font-family: monospace"">vezes.</span>"," ","","exp-sent","vezes.","","",""
"","null","html-keyboard-response","120","699843","0.0-3.0-0.87-0.87","<span style= ""font-size:30px; font-family: monospace"">+</span>","null","fixation","","","","",""
"","1120","html-keyboard-response","121","701214","0.0-3.0-1.87","<span style=""font-size:30px; font-family: monospace"">Agora</span>"," ","","exp-sent","Agora","","",""
"","564","html-keyboard-response","122","702030","0.0-3.0-1.88","<span style=""font-size:30px; font-family: monospace"">a</span>"," ","","exp-sent","a","","",""
"","933","html-keyboard-response","123","703214","0.0-3.0-1.89","<span style=""font-size:30px; font-family: monospace"">minha</span>"," ","","exp-sent","minha","","",""
"","1061","html-keyboard-response","124","704526","0.0-3.0-1.90","<span style=""font-size:30px; font-family: monospace"">única</span>"," ","","exp-sent","única","","",""
"","2485","html-keyboard-response","125","707262","0.0-3.0-1.91","<span style=""font-size:30px; font-family: monospace"">preocupação</span>"," ","","exp-sent","preocupação","","",""
"","437","html-keyboard-response","126","707950","0.0-3.0-1.92","<span style=""font-size:30px; font-family: monospace"">é</span>"," ","","exp-sent","é","","",""
"","437","html-keyboard-response","127","708638","0.0-3.0-1.93","<span style=""font-size:30px; font-family: monospace"">um</span>"," ","","exp-sent","um","","",""
"","1253","html-keyboard-response","128","710142","0.0-3.0-1.94","<span style=""font-size:30px; font-family: monospace"">descanso</span>"," ","","exp-sent","descanso","","",""
"","1221","html-keyboard-response","129","711614","0.0-3.0-1.95","<span style=""font-size:30px; font-family: monospace"">tranquilo.</span>"," ","","exp-sent","tranquilo.","","",""
"","null","html-keyboard-response","130","712867","0.0-3.0-0.96-0.96","<span style= ""font-size:30px; font-family: monospace"">+</span>","null","fixation","","","","",""
"","7712","html-keyboard-response","131","720830","0.0-3.0-1.96","<span style=""font-size:30px; font-family: monospace"">A</span>"," ","","exp-sent","A","","",""
"","4565","html-keyboard-response","132","725645","0.0-3.0-1.97","<span style=""font-size:30px; font-family: monospace"">criança</span>"," ","","exp-sent","criança","","",""
"","3157","html-keyboard-response","133","729054","0.0-3.0-1.98","<span style=""font-size:30px; font-family: monospace"">ganhou</span>"," ","","exp-sent","ganhou","","",""
"","740","html-keyboard-response","134","730046","0.0-3.0-1.99","<span style=""font-size:30px; font-family: monospace"">um</span>"," ","","exp-sent","um","","",""
"","2997","html-keyboard-response","135","733294","0.0-3.0-1.100","<span style=""font-size:30px; font-family: monospace"">presente</span>"," ","","exp-sent","presente","","",""
"","4917","html-keyboard-response","136","738462","0.0-3.0-1.101","<span style=""font-size:30px; font-family: monospace"">maravilhoso.</span>"," ","","exp-sent","maravilhoso.","","",""
"","null","html-keyboard-response","137","739714","0.0-3.0-0.102-0.102","<span style= ""font-size:30px; font-family: monospace"">+</span>","null","fixation","","","","",""
"","2256","html-keyboard-response","138","742221","0.0-3.0-1.102","<span style=""font-size:30px; font-family: monospace"">Os</span>"," ","","exp-sent","Os","","",""
"","48805","html-keyboard-response","139","791277","0.0-3.0-1.103","<span style=""font-size:30px; font-family: monospace"">bichos</span>"," ","","exp-sent","bichos","","",""
"","2405","html-keyboard-response","140","793933","0.0-3.0-1.104","<span style=""font-size:30px; font-family: monospace"">têm</span>"," ","","exp-sent","têm","","",""
"","421","html-keyboard-response","141","794605","0.0-3.0-1.105","<span style=""font-size:30px; font-family: monospace"">um</span>"," ","","exp-sent","um","","",""
"","2485","html-keyboard-response","142","797341","0.0-3.0-1.106","<span style=""font-size:30px; font-family: monospace"">instinto</span>"," ","","exp-sent","instinto","","",""
"","36405","html-keyboard-response","143","833997","0.0-3.0-1.107","<span style=""font-size:30px; font-family: monospace"">de</span>"," ","","exp-sent","de","","",""
"","4757","html-keyboard-response","144","839005","0.0-3.0-1.108","<span style=""font-size:30px; font-family: monospace"">sobrevivência</span>"," ","","exp-sent","sobrevivência","","",""
"","548","html-keyboard-response","145","839804","0.0-3.0-1.109","<span style=""font-size:30px; font-family: monospace"">forte.</span>"," ","","exp-sent","forte.","","",""
"","null","html-keyboard-response","146","841057","0.0-3.0-0.110-0.110","<span style= ""font-size:30px; font-family: monospace"">+</span>","null","fixation","","","","",""
"","1520","html-keyboard-response","147","842828","0.0-3.0-1.110","<span style=""font-size:30px; font-family: monospace"">Aquele</span>"," ","","exp-sent","Aquele","","",""
"","421","html-keyboard-response","148","843500","0.0-3.0-1.111","<span style=""font-size:30px; font-family: monospace"">menino</span>"," ","","exp-sent","menino","","",""
"","2053","html-keyboard-response","149","845805","0.0-3.0-1.112","<span style=""font-size:30px; font-family: monospace"">alto</span>"," ","","exp-sent","alto","","",""
"","484","html-keyboard-response","150","846541","0.0-3.0-1.113","<span style=""font-size:30px; font-family: monospace"">é</span>"," ","","exp-sent","é","","",""
"","1477","html-keyboard-response","151","848268","0.0-3.0-1.114","<span style=""font-size:30px; font-family: monospace"">exibido</span>"," ","","exp-sent","exibido","","",""
"","389","html-keyboard-response","152","848908","0.0-3.0-1.115","<span style=""font-size:30px; font-family: monospace"">e</span>"," ","","exp-sent","e","","",""
"","1717","html-keyboard-response","153","850876","0.0-3.0-1.116","<span style=""font-size:30px; font-family: monospace"">sovina.</span>"," ","","comp","sovina.","","",""
"","33237","html-keyboard-response","154","884364","0.0-3.0-2.116-0.116","<span style=""font-size:30px; font-family: monospace"">Aquele menino é humilde?</span>","s","","comp","","Aquele menino é humilde?","não","false"
"","null","html-keyboard-response","155","885866","0.0-3.0-0.117-0.117","<span style= ""font-size:30px; font-family: monospace"">+</span>","null","fixation","","","","",""
"","8952","html-keyboard-response","156","895069","0.0-3.0-1.117","<span style=""font-size:30px; font-family: monospace"">O</span>"," ","","exp-sent","O","","",""
"","1493","html-keyboard-response","157","896813","0.0-3.0-1.118","<span style=""font-size:30px; font-family: monospace"">travesseiro</span>"," ","","exp-sent","travesseiro","","",""
"","501","html-keyboard-response","158","897565","0.0-3.0-1.119","<span style=""font-size:30px; font-family: monospace"">era</span>"," ","","exp-sent","era","","",""
"","3668","html-keyboard-response","159","901485","0.0-3.0-1.120","<span style=""font-size:30px; font-family: monospace"">muito</span>"," ","","exp-sent","muito","","",""
"","1461","html-keyboard-response","160","903197","0.0-3.0-1.121","<span style=""font-size:30px; font-family: monospace"">macio</span>"," ","","exp-sent","macio","","",""
"","372","html-keyboard-response","161","903821","0.0-3.0-1.122","<span style=""font-size:30px; font-family: monospace"">e</span>"," ","","exp-sent","e","","",""
"","3749","html-keyboard-response","162","907821","0.0-3.0-1.123","<span style=""font-size:30px; font-family: monospace"">confortável.</span>"," ","","exp-sent","confortável.","","",""
"","null","html-keyboard-response","163","909073","0.0-3.0-0.124-0.124","<span style= ""font-size:30px; font-family: monospace"">+</span>","null","fixation","","","","",""
"","544","html-keyboard-response","164","909869","0.0-3.0-1.124","<span style=""font-size:30px; font-family: monospace"">Hoje</span>"," ","","exp-sent","Hoje","","",""
"","389","html-keyboard-response","165","910509","0.0-3.0-1.125","<span style=""font-size:30px; font-family: monospace"">a</span>"," ","","exp-sent","a","","",""
"","1749","html-keyboard-response","166","912509","0.0-3.0-1.126","<span style=""font-size:30px; font-family: monospace"">atendente</span>"," ","","exp-sent","atendente","","",""
"","965","html-keyboard-response","167","913725","0.0-3.0-1.127","<span style=""font-size:30px; font-family: monospace"">estava</span>"," ","","exp-sent","estava","","",""
"","1877","html-keyboard-response","168","915853","0.0-3.0-1.128","<span style=""font-size:30px; font-family: monospace"">furiosa</span>"," ","","exp-sent","furiosa","","",""
"","514","html-keyboard-response","169","916621","0.0-3.0-1.129","<span style=""font-size:30px; font-family: monospace"">com</span>"," ","","exp-sent","com","","",""
"","517","html-keyboard-response","170","917389","0.0-3.0-1.130","<span style=""font-size:30px; font-family: monospace"">o</span>"," ","","exp-sent","o","","",""
"","709","html-keyboard-response","171","918349","0.0-3.0-1.131","<span style=""font-size:30px; font-family: monospace"">cliente.</span>"," ","","exp-sent","cliente.","","",""
"","null","html-keyboard-response","172","919607","0.0-3.0-0.132-0.132","<span style= ""font-size:30px; font-family: monospace"">+</span>","null","fixation","","","","",""
"","662","html-keyboard-response","173","920525","0.0-3.0-1.132","<span style=""font-size:30px; font-family: monospace"">O</span>"," ","","exp-sent","O","","",""
"","1029","html-keyboard-response","174","921805","0.0-3.0-1.133","<span style=""font-size:30px; font-family: monospace"">vizinho</span>"," ","","exp-sent","vizinho","","",""
"","405","html-keyboard-response","175","922461","0.0-3.0-1.134","<span style=""font-size:30px; font-family: monospace"">é</span>"," ","","exp-sent","é","","",""
"","4645","html-keyboard-response","176","927357","0.0-3.0-1.135","<span style=""font-size:30px; font-family: monospace"">um</span>"," ","","exp-sent","um","","",""
"","14437","html-keyboard-response","177","942045","0.0-3.0-1.136","<span style=""font-size:30px; font-family: monospace"">arquiteto</span>"," ","","exp-sent","arquiteto","","",""
"","1685","html-keyboard-response","178","943981","0.0-3.0-1.137","<span style=""font-size:30px; font-family: monospace"">muito</span>"," ","","exp-sent","muito","","",""
"","5717","html-keyboard-response","179","949949","0.0-3.0-1.138","<span style=""font-size:30px; font-family: monospace"">excêntrico.</span>"," ","","exp-sent","excêntrico.","","",""
"","null","html-keyboard-response","180","951201","0.0-3.0-0.139-0.139","<span style= ""font-size:30px; font-family: monospace"">+</span>","null","fixation","","","","",""
"","8593","html-keyboard-response","181","960045","0.0-3.0-1.139","<span style=""font-size:30px; font-family: monospace"">A</span>"," ","","exp-sent","A","","",""
"","500","html-keyboard-response","182","960796","0.0-3.0-1.140","<span style=""font-size:30px; font-family: monospace"">nossa</span>"," ","","exp-sent","nossa","","",""
"","1061","html-keyboard-response","183","962108","0.0-3.0-1.141","<span style=""font-size:30px; font-family: monospace"">colega</span>"," ","","exp-sent","colega","","",""
"","1093","html-keyboard-response","184","963452","0.0-3.0-1.142","<span style=""font-size:30px; font-family: monospace"">foi</span>"," ","","exp-sent","foi","","",""
"","853","html-keyboard-response","185","964556","0.0-3.0-1.143","<span style=""font-size:30px; font-family: monospace"">má</span>"," ","","exp-sent","má","","",""
"","1412","html-keyboard-response","186","966220","0.0-3.0-1.144","<span style=""font-size:30px; font-family: monospace"">com</span>"," ","","exp-sent","com","","",""
"","1077","html-keyboard-response","187","967548","0.0-3.0-1.145","<span style=""font-size:30px; font-family: monospace"">as</span>"," ","","exp-sent","as","","",""
"","2645","html-keyboard-response","188","970444","0.0-3.0-1.146","<span style=""font-size:30px; font-family: monospace"">crianças.</span>"," ","","exp-sent","crianças.","","",""
"","null","html-keyboard-response","189","971699","0.0-3.0-0.147-0.147","<span style= ""font-size:30px; font-family: monospace"">+</span>","null","fixation","","","","",""
"","3055","html-keyboard-response","190","975004","0.0-3.0-1.147","<span style=""font-size:30px; font-family: monospace"">Virtudes</span>"," ","","exp-sent","Virtudes","","",""
"","2853","html-keyboard-response","191","978108","0.0-3.0-1.148","<span style=""font-size:30px; font-family: monospace"">não</span>"," ","","exp-sent","não","","",""
"","4821","html-keyboard-response","192","983180","0.0-3.0-1.149","<span style=""font-size:30px; font-family: monospace"">são</span>"," ","","exp-sent","são","","",""
"","2452","html-keyboard-response","193","985884","0.0-3.0-1.150","<span style=""font-size:30px; font-family: monospace"">preguiça,</span>"," ","","exp-sent","preguiça,","","",""
"","916","html-keyboard-response","194","987052","0.0-3.0-1.151","<span style=""font-size:30px; font-family: monospace"">gula</span>"," ","","exp-sent","gula","","",""
"","628","html-keyboard-response","195","987932","0.0-3.0-1.152","<span style=""font-size:30px; font-family: monospace"">nem</span>"," ","","exp-sent","nem","","",""
"","16330","html-keyboard-response","196","1004524","0.0-3.0-1.153","<span style=""font-size:30px; font-family: monospace"">ganância.</span>"," ","","comp","ganância.","","",""
"","85973","html-keyboard-response","197","1090747","0.0-3.0-2.153-0.153","<span style=""font-size:30px; font-family: monospace"">Preguiça é uma virtude?</span>","n","","comp","","Preguiça é uma virtude?","não","false"
"","null","html-keyboard-response","198","1092249","0.0-3.0-0.154-0.154","<span style= ""font-size:30px; font-family: monospace"">+</span>","null","fixation","","","","",""
"","2039","html-keyboard-response","199","1094539","0.0-3.0-1.154","<span style=""font-size:30px; font-family: monospace"">A</span>"," ","","exp-sent","A","","",""
"","2725","html-keyboard-response","200","1097515","0.0-3.0-1.155","<span style=""font-size:30px; font-family: monospace"">motorista</span>"," ","","exp-sent","motorista","","",""
"","901","html-keyboard-response","201","1098666","0.0-3.0-1.156","<span style=""font-size:30px; font-family: monospace"">fez</span>"," ","","exp-sent","fez","","",""
"","453","html-keyboard-response","202","1099371","0.0-3.0-1.157","<span style=""font-size:30px; font-family: monospace"">o</span>"," ","","exp-sent","o","","",""
"","4997","html-keyboard-response","203","1104619","0.0-3.0-1.158","<span style=""font-size:30px; font-family: monospace"">retorno</span>"," ","","exp-sent","retorno","","",""
"","629","html-keyboard-response","204","1105499","0.0-3.0-1.159","<span style=""font-size:30px; font-family: monospace"">com</span>"," ","","exp-sent","com","","",""
"","2756","html-keyboard-response","205","1108506","0.0-3.0-1.160","<span style=""font-size:30px; font-family: monospace"">cuidado.</span>"," ","","exp-sent","cuidado.","","",""
"","null","html-keyboard-response","206","1109758","0.0-3.0-0.161-0.161","<span style= ""font-size:30px; font-family: monospace"">+</span>","null","fixation","","","","",""
"","3810","html-keyboard-response","207","1113819","0.0-3.0-1.161","<span style=""font-size:30px; font-family: monospace"">Contos</span>"," ","","exp-sent","Contos","","",""
"","565","html-keyboard-response","208","1114635","0.0-3.0-1.162","<span style=""font-size:30px; font-family: monospace"">de</span>"," ","","exp-sent","de","","",""
"","3699","html-keyboard-response","209","1118586","0.0-3.0-1.163","<span style=""font-size:30px; font-family: monospace"">ação</span>"," ","","exp-sent","ação","","",""
"","885","html-keyboard-response","210","1119723","0.0-3.0-1.164","<span style=""font-size:30px; font-family: monospace"">têm</span>"," ","","exp-sent","têm","","",""
"","3077","html-keyboard-response","211","1123051","0.0-3.0-1.165","<span style=""font-size:30px; font-family: monospace"">chantagem</span>"," ","","exp-sent","chantagem","","",""
"","612","html-keyboard-response","212","1123914","0.0-3.0-1.166","<span style=""font-size:30px; font-family: monospace"">e</span>"," ","","exp-sent","e","","",""
"","645","html-keyboard-response","213","1124811","0.0-3.0-1.167","<span style=""font-size:30px; font-family: monospace"">muita</span>"," ","","exp-sent","muita","","",""
"","501","html-keyboard-response","214","1125563","0.0-3.0-1.168","<span style=""font-size:30px; font-family: monospace"">luta.</span>"," ","","exp-sent","luta.","","",""
"","null","html-keyboard-response","215","1126815","0.0-3.0-0.169-0.169","<span style= ""font-size:30px; font-family: monospace"">+</span>","null","fixation","","","","",""
"","2416","html-keyboard-response","216","1129483","0.0-3.0-1.169","<span style=""font-size:30px; font-family: monospace"">A</span>"," ","","exp-sent","A","","",""
"","6661","html-keyboard-response","217","1136395","0.0-3.0-1.170","<span style=""font-size:30px; font-family: monospace"">bisavó</span>"," ","","exp-sent","bisavó","","",""
"","1252","html-keyboard-response","218","1137899","0.0-3.0-1.171","<span style=""font-size:30px; font-family: monospace"">recebeu</span>"," ","","exp-sent","recebeu","","",""
"","404","html-keyboard-response","219","1138555","0.0-3.0-1.172","<span style=""font-size:30px; font-family: monospace"">um</span>"," ","","exp-sent","um","","",""
"","1253","html-keyboard-response","220","1140058","0.0-3.0-1.173","<span style=""font-size:30px; font-family: monospace"">benefício</span>"," ","","exp-sent","benefício","","",""
"","1141","html-keyboard-response","221","1141451","0.0-3.0-1.174","<span style=""font-size:30px; font-family: monospace"">temporário</span>"," ","","exp-sent","temporário","","",""
"","837","html-keyboard-response","222","1142538","0.0-3.0-1.175","<span style=""font-size:30px; font-family: monospace"">do</span>"," ","","exp-sent","do","","",""
"","981","html-keyboard-response","223","1143771","0.0-3.0-1.176","<span style=""font-size:30px; font-family: monospace"">governo.</span>"," ","","exp-sent","governo.","","",""
"","null","html-keyboard-response","224","1145023","0.0-3.0-0.177-0.177","<span style= ""font-size:30px; font-family: monospace"">+</span>","null","fixation","","","","",""
"","1841","html-keyboard-response","225","1147115","0.0-3.0-1.177","<span style=""font-size:30px; font-family: monospace"">As</span>"," ","","exp-sent","As","","",""
"","695","html-keyboard-response","226","1148074","0.0-3.0-1.178","<span style=""font-size:30px; font-family: monospace"">crianças</span>"," ","","exp-sent","crianças","","",""
"","16821","html-keyboard-response","227","1165146","0.0-3.0-1.179","<span style=""font-size:30px; font-family: monospace"">brincaram</span>"," ","","exp-sent","brincaram","","",""
"","420","html-keyboard-response","228","1165818","0.0-3.0-1.180","<span style=""font-size:30px; font-family: monospace"">no</span>"," ","","exp-sent","no","","",""
"","1573","html-keyboard-response","229","1167642","0.0-3.0-1.181","<span style=""font-size:30px; font-family: monospace"">balanço</span>"," ","","exp-sent","balanço","","",""
"","500","html-keyboard-response","230","1168394","0.0-3.0-1.182","<span style=""font-size:30px; font-family: monospace"">a</span>"," ","","exp-sent","a","","",""
"","1096","html-keyboard-response","231","1169754","0.0-3.0-1.183","<span style=""font-size:30px; font-family: monospace"">tarde</span>"," ","","exp-sent","tarde","","",""
"","1173","html-keyboard-response","232","1171178","0.0-3.0-1.184","<span style=""font-size:30px; font-family: monospace"">toda.</span>"," ","","exp-sent","toda.","","",""
"","null","html-keyboard-response","233","1172430","0.0-3.0-0.185-0.185","<span style= ""font-size:30px; font-family: monospace"">+</span>","null","fixation","","","","",""
"","849","html-keyboard-response","234","1173530","0.0-3.0-1.185","<span style=""font-size:30px; font-family: monospace"">Ela</span>"," ","","exp-sent","Ela","","",""
"","1525","html-keyboard-response","235","1175306","0.0-3.0-1.186","<span style=""font-size:30px; font-family: monospace"">gosta</span>"," ","","exp-sent","gosta","","",""
"","517","html-keyboard-response","236","1176074","0.0-3.0-1.187","<span style=""font-size:30px; font-family: monospace"">de</span>"," ","","exp-sent","de","","",""
"","755","html-keyboard-response","237","1177082","0.0-3.0-1.188","<span style=""font-size:30px; font-family: monospace"">comida</span>"," ","","exp-sent","comida","","",""
"","676","html-keyboard-response","238","1178010","0.0-3.0-1.189","<span style=""font-size:30px; font-family: monospace"">natural</span>"," ","","exp-sent","natural","","",""
"","484","html-keyboard-response","239","1178746","0.0-3.0-1.190","<span style=""font-size:30px; font-family: monospace"">no</span>"," ","","exp-sent","no","","",""
"","677","html-keyboard-response","240","1179674","0.0-3.0-1.191","<span style=""font-size:30px; font-family: monospace"">almoço.</span>"," ","","comp","almoço.","","",""
"","6772","html-keyboard-response","241","1186698","0.0-3.0-2.191-0.191","<span style=""font-size:30px; font-family: monospace"">Ela gosta de comida natural no almoço?</span>","s","","comp","","Ela gosta de comida natural no almoço?","sim","false"
"","null","html-keyboard-response","242","1188200","0.0-3.0-0.192-0.192","<span style= ""font-size:30px; font-family: monospace"">+</span>","null","fixation","","","","",""
"","29175","html-keyboard-response","243","1217626","0.0-3.0-1.192","<span style=""font-size:30px; font-family: monospace"">No</span>"," ","","exp-sent","No","","",""
"","1733","html-keyboard-response","244","1219610","0.0-3.0-1.193","<span style=""font-size:30px; font-family: monospace"">passado</span>"," ","","exp-sent","passado","","",""
"","52","html-keyboard-response","245","1219914","0.0-3.0-1.194","<span style=""font-size:30px; font-family: monospace"">houve</span>"," ","","exp-sent","houve","","",""
"","149","html-keyboard-response","246","1220314","0.0-3.0-1.195","<span style=""font-size:30px; font-family: monospace"">uma</span>"," ","","exp-sent","uma","","",""
"","117","html-keyboard-response","247","1220682","0.0-3.0-1.196","<span style=""font-size:30px; font-family: monospace"">rebelião</span>"," ","","exp-sent","rebelião","","",""
"","85","html-keyboard-response","248","1221018","0.0-3.0-1.197","<span style=""font-size:30px; font-family: monospace"">nesta</span>"," ","","exp-sent","nesta","","",""
"","37","html-keyboard-response","249","1221306","0.0-3.0-1.198","<span style=""font-size:30px; font-family: monospace"">cidade.</span>"," ","","exp-sent","cidade.","","",""
"","null","html-keyboard-response","250","1222557","0.0-3.0-0.199-0.199","<span style= ""font-size:30px; font-family: monospace"">+</span>","null","fixation","","","","",""
"","3026","html-keyboard-response","251","1225835","0.0-3.0-1.199","<span style=""font-size:30px; font-family: monospace"">Ele</span>"," ","","exp-sent","Ele","","",""
"","389","html-keyboard-response","252","1226475","0.0-3.0-1.200","<span style=""font-size:30px; font-family: monospace"">fundou</span>"," ","","exp-sent","fundou","","",""
"","340","html-keyboard-response","253","1227066","0.0-3.0-1.201","<span style=""font-size:30px; font-family: monospace"">uma</span>"," ","","exp-sent","uma","","",""
"","645","html-keyboard-response","254","1227963","0.0-3.0-1.202","<span style=""font-size:30px; font-family: monospace"">empresa</span>"," ","","exp-sent","empresa","","",""
"","421","html-keyboard-response","255","1228635","0.0-3.0-1.203","<span style=""font-size:30px; font-family: monospace"">privada</span>"," ","","exp-sent","privada","","",""
"","421","html-keyboard-response","256","1229307","0.0-3.0-1.204","<span style=""font-size:30px; font-family: monospace"">sem</span>"," ","","exp-sent","sem","","",""
"","549","html-keyboard-response","257","1230107","0.0-3.0-1.205","<span style=""font-size:30px; font-family: monospace"">ajuda.</span>"," ","","exp-sent","ajuda.","","",""
"","null","html-keyboard-response","258","1231359","0.0-3.0-0.206-0.206","<span style= ""font-size:30px; font-family: monospace"">+</span>","null","fixation","","","","",""
"","21345","html-keyboard-response","259","1252954","0.0-3.0-1.206","<span style=""font-size:30px; font-family: monospace"">As</span>"," ","","exp-sent","As","","",""
"","1124","html-keyboard-response","260","1254331","0.0-3.0-1.207","<span style=""font-size:30px; font-family: monospace"">meninas</span>"," ","","exp-sent","meninas","","",""
"","5683","html-keyboard-response","261","1260266","0.0-3.0-1.208","<span style=""font-size:30px; font-family: monospace"">encontraram</span>"," ","","exp-sent","encontraram","","",""
"","405","html-keyboard-response","262","1260923","0.0-3.0-1.209","<span style=""font-size:30px; font-family: monospace"">um</span>"," ","","exp-sent","um","","",""
"","437","html-keyboard-response","263","1261611","0.0-3.0-1.210","<span style=""font-size:30px; font-family: monospace"">rato</span>"," ","","exp-sent","rato","","",""
"","597","html-keyboard-response","264","1262459","0.0-3.0-1.211","<span style=""font-size:30px; font-family: monospace"">dentro</span>"," ","","exp-sent","dentro","","",""
"","341","html-keyboard-response","265","1263051","0.0-3.0-1.212","<span style=""font-size:30px; font-family: monospace"">de</span>"," ","","exp-sent","de","","",""
"","404","html-keyboard-response","266","1263706","0.0-3.0-1.213","<span style=""font-size:30px; font-family: monospace"">casa.</span>"," ","","exp-sent","casa.","","",""
"","null","html-keyboard-response","267","1264958","0.0-3.0-0.214-0.214","<span style= ""font-size:30px; font-family: monospace"">+</span>","null","fixation","","","","",""
"","481","html-keyboard-response","268","1265691","0.0-3.0-1.214","<span style=""font-size:30px; font-family: monospace"">O</span>"," ","","exp-sent","O","","",""
"","964","html-keyboard-response","269","1266906","0.0-3.0-1.215","<span style=""font-size:30px; font-family: monospace"">texto</span>"," ","","exp-sent","texto","","",""
"","1045","html-keyboard-response","270","1268202","0.0-3.0-1.216","<span style=""font-size:30px; font-family: monospace"">tinha</span>"," ","","exp-sent","tinha","","",""
"","837","html-keyboard-response","271","1269291","0.0-3.0-1.217","<span style=""font-size:30px; font-family: monospace"">ideias</span>"," ","","exp-sent","ideias","","",""
"","532","html-keyboard-response","272","1270075","0.0-3.0-1.218","<span style=""font-size:30px; font-family: monospace"">vagas</span>"," ","","exp-sent","vagas","","",""
"","372","html-keyboard-response","273","1270699","0.0-3.0-1.219","<span style=""font-size:30px; font-family: monospace"">e</span>"," ","","exp-sent","e","","",""
"","676","html-keyboard-response","274","1271627","0.0-3.0-1.220","<span style=""font-size:30px; font-family: monospace"">confusas.</span>"," ","","exp-sent","confusas.","","",""
"","null","html-keyboard-response","275","1272877","0.0-3.0-0.221-0.221","<span style= ""font-size:30px; font-family: monospace"">+</span>","null","fixation","","","","",""
"","322","html-keyboard-response","276","1273451","0.0-3.0-1.221","<span style=""font-size:30px; font-family: monospace"">As</span>"," ","","exp-sent","As","","",""
"","644","html-keyboard-response","277","1274347","0.0-3.0-1.222","<span style=""font-size:30px; font-family: monospace"">crianças</span>"," ","","exp-sent","crianças","","",""
"","421","html-keyboard-response","278","1275019","0.0-3.0-1.223","<span style=""font-size:30px; font-family: monospace"">viram</span>"," ","","exp-sent","viram","","",""
"","372","html-keyboard-response","279","1275642","0.0-3.0-1.224","<span style=""font-size:30px; font-family: monospace"">a</span>"," ","","exp-sent","a","","",""
"","1093","html-keyboard-response","280","1276987","0.0-3.0-1.225","<span style=""font-size:30px; font-family: monospace"">acrobata</span>"," ","","exp-sent","acrobata","","",""
"","1237","html-keyboard-response","281","1278474","0.0-3.0-1.226","<span style=""font-size:30px; font-family: monospace"">talentosa</span>"," ","","exp-sent","talentosa","","",""
"","517","html-keyboard-response","282","1279243","0.0-3.0-1.227","<span style=""font-size:30px; font-family: monospace"">no</span>"," ","","exp-sent","no","","",""
"","533","html-keyboard-response","283","1280026","0.0-3.0-1.228","<span style=""font-size:30px; font-family: monospace"">circo.</span>"," ","","comp","circo.","","",""
"","68501","html-keyboard-response","284","1348777","0.0-3.0-2.228-0.228","<span style=""font-size:30px; font-family: monospace"">As crianças viram o palhaço no circo?</span>","s","","comp","","As crianças viram o palhaço no circo?","não","false"
"","null","html-keyboard-response","285","1350279","0.0-3.0-0.229-0.229","<span style= ""font-size:30px; font-family: monospace"">+</span>","null","fixation","","","","",""
"","998","html-keyboard-response","286","1351529","0.0-3.0-1.229","<span style=""font-size:30px; font-family: monospace"">O</span>"," ","","exp-sent","O","","",""
"","436","html-keyboard-response","287","1352216","0.0-3.0-1.230","<span style=""font-size:30px; font-family: monospace"">texto</span>"," ","","exp-sent","texto","","",""
"","325","html-keyboard-response","288","1352793","0.0-3.0-1.231","<span style=""font-size:30px; font-family: monospace"">trazia</span>"," ","","exp-sent","trazia","","",""
"","708","html-keyboard-response","289","1353753","0.0-3.0-1.232","<span style=""font-size:30px; font-family: monospace"">um</span>"," ","","exp-sent","um","","",""
"","853","html-keyboard-response","290","1354857","0.0-3.0-1.233","<span style=""font-size:30px; font-family: monospace"">argumento</span>"," ","","exp-sent","argumento","","",""
"","484","html-keyboard-response","291","1355593","0.0-3.0-1.234","<span style=""font-size:30px; font-family: monospace"">central</span>"," ","","exp-sent","central","","",""
"","404","html-keyboard-response","292","1356249","0.0-3.0-1.235","<span style=""font-size:30px; font-family: monospace"">para</span>"," ","","exp-sent","para","","",""
"","389","html-keyboard-response","293","1356889","0.0-3.0-1.236","<span style=""font-size:30px; font-family: monospace"">a</span>"," ","","exp-sent","a","","",""
"","789","html-keyboard-response","294","1357929","0.0-3.0-1.237","<span style=""font-size:30px; font-family: monospace"">conversa.</span>"," ","","exp-sent","conversa.","","",""
"","null","html-keyboard-response","295","1359182","0.0-3.0-0.238-0.238","<span style= ""font-size:30px; font-family: monospace"">+</span>","null","fixation","","","","",""
"","2768","html-keyboard-response","296","1362201","0.0-3.0-1.238","<span style=""font-size:30px; font-family: monospace"">Ontem</span>"," ","","exp-sent","Ontem","","",""
"","501","html-keyboard-response","297","1362953","0.0-3.0-1.239","<span style=""font-size:30px; font-family: monospace"">a</span>"," ","","exp-sent","a","","",""
"","965","html-keyboard-response","298","1364169","0.0-3.0-1.240","<span style=""font-size:30px; font-family: monospace"">temperatura</span>"," ","","exp-sent","temperatura","","",""
"","1941","html-keyboard-response","299","1366361","0.0-3.0-1.241","<span style=""font-size:30px; font-family: monospace"">estava</span>"," ","","exp-sent","estava","","",""
"","1878","html-keyboard-response","300","1368489","0.0-3.0-1.242","<span style=""font-size:30px; font-family: monospace"">amena</span>"," ","","exp-sent","amena","","",""
"","650","html-keyboard-response","301","1369401","0.0-3.0-1.243","<span style=""font-size:30px; font-family: monospace"">durante</span>"," ","","exp-sent","durante","","",""
"","869","html-keyboard-response","302","1370521","0.0-3.0-1.244","<span style=""font-size:30px; font-family: monospace"">o</span>"," ","","exp-sent","o","","",""
"","581","html-keyboard-response","303","1371353","0.0-3.0-1.245","<span style=""font-size:30px; font-family: monospace"">dia.</span>"," ","","exp-sent","dia.","","",""
"","null","html-keyboard-response","304","1372616","0.0-3.0-0.246-0.246","<span style= ""font-size:30px; font-family: monospace"">+</span>","null","fixation","","","","",""
"","1173","html-keyboard-response","305","1374041","0.0-3.0-1.246","<span style=""font-size:30px; font-family: monospace"">Havia</span>"," ","","exp-sent","Havia","","",""
"","1013","html-keyboard-response","306","1375305","0.0-3.0-1.247","<span style=""font-size:30px; font-family: monospace"">um</span>"," ","","exp-sent","um","","",""
"","1909","html-keyboard-response","307","1377465","0.0-3.0-1.248","<span style=""font-size:30px; font-family: monospace"">machucado</span>"," ","","exp-sent","machucado","","",""
"","1909","html-keyboard-response","308","1379625","0.0-3.0-1.249","<span style=""font-size:30px; font-family: monospace"">no</span>"," ","","exp-sent","no","","",""
"","517","html-keyboard-response","309","1380393","0.0-3.0-1.250","<span style=""font-size:30px; font-family: monospace"">dedo</span>"," ","","exp-sent","dedo","","",""
"","421","html-keyboard-response","310","1381065","0.0-3.0-1.251","<span style=""font-size:30px; font-family: monospace"">da</span>"," ","","exp-sent","da","","",""
"","916","html-keyboard-response","311","1382233","0.0-3.0-1.252","<span style=""font-size:30px; font-family: monospace"">criança.</span>"," ","","exp-sent","criança.","","",""
"","null","html-keyboard-response","312","1383485","0.0-3.0-0.253-0.253","<span style= ""font-size:30px; font-family: monospace"">+</span>","null","fixation","","","","",""
"","369","html-keyboard-response","313","1384105","0.0-3.0-1.253","<span style=""font-size:30px; font-family: monospace"">A</span>"," ","","exp-sent","A","","",""
"","2165","html-keyboard-response","314","1386521","0.0-3.0-1.254","<span style=""font-size:30px; font-family: monospace"">borboleta</span>"," ","","exp-sent","borboleta","","",""
"","629","html-keyboard-response","315","1387401","0.0-3.0-1.255","<span style=""font-size:30px; font-family: monospace"">pousou</span>"," ","","exp-sent","pousou","","",""
"","644","html-keyboard-response","316","1388297","0.0-3.0-1.256","<span style=""font-size:30px; font-family: monospace"">no</span>"," ","","exp-sent","no","","",""
"","484","html-keyboard-response","317","1389033","0.0-3.0-1.257","<span style=""font-size:30px; font-family: monospace"">ombro</span>"," ","","exp-sent","ombro","","",""
"","1093","html-keyboard-response","318","1390377","0.0-3.0-1.258","<span style=""font-size:30px; font-family: monospace"">daquela</span>"," ","","exp-sent","daquela","","",""
"","373","html-keyboard-response","319","1391001","0.0-3.0-1.259","<span style=""font-size:30px; font-family: monospace"">moça.</span>"," ","","exp-sent","moça.","","",""
"","null","html-keyboard-response","320","1392254","0.0-3.0-0.260-0.260","<span style= ""font-size:30px; font-family: monospace"">+</span>","null","fixation","","","","",""
"","528","html-keyboard-response","321","1393033","0.0-3.0-1.260","<span style=""font-size:30px; font-family: monospace"">Eu</span>"," ","","exp-sent","Eu","","",""
"","603","html-keyboard-response","322","1393897","0.0-3.0-1.261","<span style=""font-size:30px; font-family: monospace"">quero</span>"," ","","exp-sent","quero","","",""
"","437","html-keyboard-response","323","1394585","0.0-3.0-1.262","<span style=""font-size:30px; font-family: monospace"">um</span>"," ","","exp-sent","um","","",""
"","805","html-keyboard-response","324","1395641","0.0-3.0-1.263","<span style=""font-size:30px; font-family: monospace"">namorado</span>"," ","","exp-sent","namorado","","",""
"","1093","html-keyboard-response","325","1396985","0.0-3.0-1.264","<span style=""font-size:30px; font-family: monospace"">honesto</span>"," ","","exp-sent","honesto","","",""
"","2213","html-keyboard-response","326","1399449","0.0-3.0-1.265","<span style=""font-size:30px; font-family: monospace"">e</span>"," ","","exp-sent","e","","",""
"","885","html-keyboard-response","327","1400585","0.0-3.0-1.266","<span style=""font-size:30px; font-family: monospace"">compreensivo.</span>"," ","","comp","compreensivo.","","",""
"","6469","html-keyboard-response","328","1407305","0.0-3.0-2.266-0.266","<span style=""font-size:30px; font-family: monospace"">Eu quero um namorado honesto?</span>","s","","comp","","Eu quero um namorado honesto?","sim","false"
"","null","html-keyboard-response","329","1408808","0.0-3.0-0.267-0.267","<span style= ""font-size:30px; font-family: monospace"">+</span>","null","fixation","","","","",""
"","1174","html-keyboard-response","330","1410233","0.0-3.0-1.267","<span style=""font-size:30px; font-family: monospace"">Ele</span>"," ","","exp-sent","Ele","","",""
"","373","html-keyboard-response","331","1410857","0.0-3.0-1.268","<span style=""font-size:30px; font-family: monospace"">é</span>"," ","","exp-sent","é","","",""
"","405","html-keyboard-response","332","1411513","0.0-3.0-1.269","<span style=""font-size:30px; font-family: monospace"">um</span>"," ","","exp-sent","um","","",""
"","437","html-keyboard-response","333","1412201","0.0-3.0-1.270","<span style=""font-size:30px; font-family: monospace"">pai</span>"," ","","exp-sent","pai","","",""
"","1732","html-keyboard-response","334","1414185","0.0-3.0-1.271","<span style=""font-size:30px; font-family: monospace"">ausente</span>"," ","","exp-sent","ausente","","",""
"","405","html-keyboard-response","335","1414841","0.0-3.0-1.272","<span style=""font-size:30px; font-family: monospace"">e</span>"," ","","exp-sent","e","","",""
"","580","html-keyboard-response","336","1415673","0.0-3.0-1.273","<span style=""font-size:30px; font-family: monospace"">muito</span>"," ","","exp-sent","muito","","",""
"","3397","html-keyboard-response","337","1419321","0.0-3.0-1.274","<span style=""font-size:30px; font-family: monospace"">fofoqueiro.</span>"," ","","exp-sent","fofoqueiro.","","",""
"","null","html-keyboard-response","338","1420578","0.0-3.0-0.275-0.275","<span style= ""font-size:30px; font-family: monospace"">+</span>","null","fixation","","","","",""
"","6845","html-keyboard-response","339","1427673","0.0-3.0-1.275","<span style=""font-size:30px; font-family: monospace"">O</span>"," ","","exp-sent","O","","",""
"","2357","html-keyboard-response","340","1430281","0.0-3.0-1.276","<span style=""font-size:30px; font-family: monospace"">filho</span>"," ","","exp-sent","filho","","",""
"","389","html-keyboard-response","341","1430921","0.0-3.0-1.277","<span style=""font-size:30px; font-family: monospace"">lavou</span>"," ","","exp-sent","lavou","","",""
"","5093","html-keyboard-response","342","1436265","0.0-3.0-1.278","<span style=""font-size:30px; font-family: monospace"">a</span>"," ","","exp-sent","a","","",""
"","1189","html-keyboard-response","343","1437705","0.0-3.0-1.279","<span style=""font-size:30px; font-family: monospace"">roupa</span>"," ","","exp-sent","roupa","","",""
"","422","html-keyboard-response","344","1438377","0.0-3.0-1.280","<span style=""font-size:30px; font-family: monospace"">sem</span>"," ","","exp-sent","sem","","",""
"","3173","html-keyboard-response","345","1441801","0.0-3.0-1.281","<span style=""font-size:30px; font-family: monospace"">nenhuma</span>"," ","","exp-sent","nenhuma","","",""
"","678","html-keyboard-response","346","1442745","0.0-3.0-1.282","<span style=""font-size:30px; font-family: monospace"">ajuda.</span>"," ","","exp-sent","ajuda.","","",""
"","null","html-keyboard-response","347","1443998","0.0-3.0-0.283-0.283","<span style= ""font-size:30px; font-family: monospace"">+</span>","null","fixation","","","","",""
"","849","html-keyboard-response","348","1445097","0.0-3.0-1.283","<span style=""font-size:30px; font-family: monospace"">O</span>"," ","","exp-sent","O","","",""
"","549","html-keyboard-response","349","1445897","0.0-3.0-1.284","<span style=""font-size:30px; font-family: monospace"">menino</span>"," ","","exp-sent","menino","","",""
"","3397","html-keyboard-response","350","1449545","0.0-3.0-1.285","<span style=""font-size:30px; font-family: monospace"">quebrou</span>"," ","","exp-sent","quebrou","","",""
"","405","html-keyboard-response","351","1450201","0.0-3.0-1.286","<span style=""font-size:30px; font-family: monospace"">a</span>"," ","","exp-sent","a","","",""
"","1317","html-keyboard-response","352","1451769","0.0-3.0-1.287","<span style=""font-size:30px; font-family: monospace"">perna</span>"," ","","exp-sent","perna","","",""
"","485","html-keyboard-response","353","1452505","0.0-3.0-1.288","<span style=""font-size:30px; font-family: monospace"">nos</span>"," ","","exp-sent","nos","","",""
"","983","html-keyboard-response","354","1453753","0.0-3.0-1.289","<span style=""font-size:30px; font-family: monospace"">esportes.</span>"," ","","exp-sent","esportes.","","",""
"","null","html-keyboard-response","355","1455006","0.0-3.0-0.290-0.290","<span style= ""font-size:30px; font-family: monospace"">+</span>","null","fixation","","","","",""
"","479","html-keyboard-response","356","1455737","0.0-3.0-1.290","<span style=""font-size:30px; font-family: monospace"">Ela</span>"," ","","exp-sent","Ela","","",""
"","3269","html-keyboard-response","357","1459257","0.0-3.0-1.291","<span style=""font-size:30px; font-family: monospace"">brincou</span>"," ","","exp-sent","brincou","","",""
"","406","html-keyboard-response","358","1459913","0.0-3.0-1.292","<span style=""font-size:30px; font-family: monospace"">com</span>"," ","","exp-sent","com","","",""
"","35700","html-keyboard-response","359","1495865","0.0-3.0-1.293","<span style=""font-size:30px; font-family: monospace"">uma</span>"," ","","exp-sent","uma","","",""
"","1333","html-keyboard-response","360","1497449","0.0-3.0-1.294","<span style=""font-size:30px; font-family: monospace"">menina</span>"," ","","exp-sent","menina","","",""
"","340","html-keyboard-response","361","1498041","0.0-3.0-1.295","<span style=""font-size:30px; font-family: monospace"">da</span>"," ","","exp-sent","da","","",""
"","403","html-keyboard-response","362","1498697","0.0-3.0-1.296","<span style=""font-size:30px; font-family: monospace"">turma.</span>"," ","","exp-sent","turma.","","",""
"","null","html-keyboard-response","363","1499949","0.0-3.0-0.297-0.297","<span style= ""font-size:30px; font-family: monospace"">+</span>","null","fixation","","","","",""
"","417","html-keyboard-response","364","1500617","0.0-3.0-1.297","<span style=""font-size:30px; font-family: monospace"">Ele</span>"," ","","exp-sent","Ele","","",""
"","5253","html-keyboard-response","365","1506121","0.0-3.0-1.298","<span style=""font-size:30px; font-family: monospace"">esteve</span>"," ","","exp-sent","esteve","","",""
"","389","html-keyboard-response","366","1506761","0.0-3.0-1.299","<span style=""font-size:30px; font-family: monospace"">no</span>"," ","","exp-sent","no","","",""
"","2484","html-keyboard-response","367","1509497","0.0-3.0-1.300","<span style=""font-size:30px; font-family: monospace"">escritório</span>"," ","","exp-sent","escritório","","",""
"","341","html-keyboard-response","368","1510089","0.0-3.0-1.301","<span style=""font-size:30px; font-family: monospace"">o</span>"," ","","exp-sent","o","","",""
"","372","html-keyboard-response","369","1510713","0.0-3.0-1.302","<span style=""font-size:30px; font-family: monospace"">dia</span>"," ","","exp-sent","dia","","",""
"","661","html-keyboard-response","370","1511625","0.0-3.0-1.303","<span style=""font-size:30px; font-family: monospace"">inteiro.</span>"," ","","comp","inteiro.","","",""
"","25269","html-keyboard-response","371","1537145","0.0-3.0-2.303-0.303","<span style=""font-size:30px; font-family: monospace"">Ele esteve no parque o dia inteiro?</span>","s","","comp","","Ele esteve no parque o dia inteiro?","não","false"
"","null","html-keyboard-response","372","1538646","0.0-3.0-0.304-0.304","<span style= ""font-size:30px; font-family: monospace"">+</span>","null","fixation","","","","",""
"","1144","html-keyboard-response","373","1540041","0.0-3.0-1.304","<span style=""font-size:30px; font-family: monospace"">Este</span>"," ","","exp-sent","Este","","",""
"","1365","html-keyboard-response","374","1541657","0.0-3.0-1.305","<span style=""font-size:30px; font-family: monospace"">conto</span>"," ","","exp-sent","conto","","",""
"","2389","html-keyboard-response","375","1544297","0.0-3.0-1.306","<span style=""font-size:30px; font-family: monospace"">tem</span>"," ","","exp-sent","tem","","",""
"","1605","html-keyboard-response","376","1546153","0.0-3.0-1.307","<span style=""font-size:30px; font-family: monospace"">um</span>"," ","","exp-sent","um","","",""
"","629","html-keyboard-response","377","1547033","0.0-3.0-1.308","<span style=""font-size:30px; font-family: monospace"">final</span>"," ","","exp-sent","final","","",""
"","1381","html-keyboard-response","378","1548665","0.0-3.0-1.309","<span style=""font-size:30px; font-family: monospace"">perfeito.</span>"," ","","exp-sent","perfeito.","","",""
"","null","html-keyboard-response","379","1549917","0.0-3.0-0.310-0.310","<span style= ""font-size:30px; font-family: monospace"">+</span>","null","fixation","","","","",""
"","3569","html-keyboard-response","380","1553737","0.0-3.0-1.310","<span style=""font-size:30px; font-family: monospace"">Ele</span>"," ","","exp-sent","Ele","","",""
"","725","html-keyboard-response","381","1554713","0.0-3.0-1.311","<span style=""font-size:30px; font-family: monospace"">precisa</span>"," ","","exp-sent","precisa","","",""
"","356","html-keyboard-response","382","1555321","0.0-3.0-1.312","<span style=""font-size:30px; font-family: monospace"">de</span>"," ","","exp-sent","de","","",""
"","501","html-keyboard-response","383","1556072","0.0-3.0-1.313","<span style=""font-size:30px; font-family: monospace"">um</span>"," ","","exp-sent","um","","",""
"","2836","html-keyboard-response","384","1559159","0.0-3.0-1.314","<span style=""font-size:30px; font-family: monospace"">protetor</span>"," ","","exp-sent","protetor","","",""
"","565","html-keyboard-response","385","1559976","0.0-3.0-1.315","<span style=""font-size:30px; font-family: monospace"">de</span>"," ","","exp-sent","de","","",""
"","917","html-keyboard-response","386","1561144","0.0-3.0-1.316","<span style=""font-size:30px; font-family: monospace"">ouvido.</span>"," ","","exp-sent","ouvido.","","",""
"","null","html-keyboard-response","387","1562396","0.0-3.0-0.317-0.317","<span style= ""font-size:30px; font-family: monospace"">+</span>","null","fixation","","","","",""
"","913","html-keyboard-response","388","1563559","0.0-3.0-1.317","<span style=""font-size:30px; font-family: monospace"">Os</span>"," ","","exp-sent","Os","","",""
"","1140","html-keyboard-response","389","1564952","0.0-3.0-1.318","<span style=""font-size:30px; font-family: monospace"">hábitos</span>"," ","","exp-sent","hábitos","","",""
"","340","html-keyboard-response","390","1565544","0.0-3.0-1.319","<span style=""font-size:30px; font-family: monospace"">de</span>"," ","","exp-sent","de","","",""
"","675","html-keyboard-response","391","1566472","0.0-3.0-1.320","<span style=""font-size:30px; font-family: monospace"">lugares</span>"," ","","exp-sent","lugares","","",""
"","757","html-keyboard-response","392","1567480","0.0-3.0-1.321","<span style=""font-size:30px; font-family: monospace"">diferentes</span>"," ","","exp-sent","diferentes","","",""
"","404","html-keyboard-response","393","1568136","0.0-3.0-1.322","<span style=""font-size:30px; font-family: monospace"">são</span>"," ","","exp-sent","são","","",""
"","453","html-keyboard-response","394","1568840","0.0-3.0-1.323","<span style=""font-size:30px; font-family: monospace"">muito</span>"," ","","exp-sent","muito","","",""
"","645","html-keyboard-response","395","1569736","0.0-3.0-1.324","<span style=""font-size:30px; font-family: monospace"">lindos.</span>"," ","","exp-sent","lindos.","","",""
"","null","html-keyboard-response","396","1570989","0.0-3.0-0.325-0.325","<span style= ""font-size:30px; font-family: monospace"">+</span>","null","fixation","","","","",""
"","368","html-keyboard-response","397","1571608","0.0-3.0-1.325","<span style=""font-size:30px; font-family: monospace"">O</span>"," ","","exp-sent","O","","",""
"","1076","html-keyboard-response","398","1572935","0.0-3.0-1.326","<span style=""font-size:30px; font-family: monospace"">médico</span>"," ","","exp-sent","médico","","",""
"","1413","html-keyboard-response","399","1574600","0.0-3.0-1.327","<span style=""font-size:30px; font-family: monospace"">corrigiu</span>"," ","","exp-sent","corrigiu","","",""
"","389","html-keyboard-response","400","1575240","0.0-3.0-1.328","<span style=""font-size:30px; font-family: monospace"">a</span>"," ","","exp-sent","a","","",""
"","757","html-keyboard-response","401","1576247","0.0-3.0-1.329","<span style=""font-size:30px; font-family: monospace"">postura</span>"," ","","exp-sent","postura","","",""
"","357","html-keyboard-response","402","1576856","0.0-3.0-1.330","<span style=""font-size:30px; font-family: monospace"">das</span>"," ","","exp-sent","das","","",""
"","756","html-keyboard-response","403","1577864","0.0-3.0-1.331","<span style=""font-size:30px; font-family: monospace"">costas</span>"," ","","exp-sent","costas","","",""
"","356","html-keyboard-response","404","1578472","0.0-3.0-1.332","<span style=""font-size:30px; font-family: monospace"">da</span>"," ","","exp-sent","da","","",""
"","725","html-keyboard-response","405","1579448","0.0-3.0-1.333","<span style=""font-size:30px; font-family: monospace"">pessoa.</span>"," ","","exp-sent","pessoa.","","",""
"","null","html-keyboard-response","406","1580700","0.0-3.0-0.334-0.334","<span style= ""font-size:30px; font-family: monospace"">+</span>","null","fixation","","","","",""
"","833","html-keyboard-response","407","1581784","0.0-3.0-1.334","<span style=""font-size:30px; font-family: monospace"">Aquele</span>"," ","","exp-sent","Aquele","","",""
"","357","html-keyboard-response","408","1582392","0.0-3.0-1.335","<span style=""font-size:30px; font-family: monospace"">era</span>"," ","","exp-sent","era","","",""
"","373","html-keyboard-response","409","1583016","0.0-3.0-1.336","<span style=""font-size:30px; font-family: monospace"">um</span>"," ","","exp-sent","um","","",""
"","671","html-keyboard-response","410","1583944","0.0-3.0-1.337","<span style=""font-size:30px; font-family: monospace"">caso</span>"," ","","exp-sent","caso","","",""
"","708","html-keyboard-response","411","1584903","0.0-3.0-1.338","<span style=""font-size:30px; font-family: monospace"">real</span>"," ","","exp-sent","real","","",""
"","452","html-keyboard-response","412","1585608","0.0-3.0-1.339","<span style=""font-size:30px; font-family: monospace"">de</span>"," ","","exp-sent","de","","",""
"","1829","html-keyboard-response","413","1587688","0.0-3.0-1.340","<span style=""font-size:30px; font-family: monospace"">sequestro</span>"," ","","exp-sent","sequestro","","",""
"","1285","html-keyboard-response","414","1589224","0.0-3.0-1.341","<span style=""font-size:30px; font-family: monospace"">premeditado.</span>"," ","","comp","premeditado.","","",""
"","10055","html-keyboard-response","415","1599543","0.0-3.0-2.341-0.341","<span style=""font-size:30px; font-family: monospace"">Aquele era um caso real de roubo?</span>","n","","comp","","Aquele era um caso real de roubo?","não","false"
"","null","html-keyboard-response","416","1601045","0.0-3.0-0.342-0.342","<span style= ""font-size:30px; font-family: monospace"">+</span>","null","fixation","","","","",""
"","3095","html-keyboard-response","417","1604392","0.0-3.0-1.342","<span style=""font-size:30px; font-family: monospace"">A</span>"," ","","exp-sent","A","","",""
"","741","html-keyboard-response","418","1605384","0.0-3.0-1.343","<span style=""font-size:30px; font-family: monospace"">senhora</span>"," ","","exp-sent","senhora","","",""
"","1285","html-keyboard-response","419","1606919","0.0-3.0-1.344","<span style=""font-size:30px; font-family: monospace"">cumprimentou</span>"," ","","exp-sent","cumprimentou","","",""
"","612","html-keyboard-response","420","1607783","0.0-3.0-1.345","<span style=""font-size:30px; font-family: monospace"">o</span>"," ","","exp-sent","o","","",""
"","885","html-keyboard-response","421","1608920","0.0-3.0-1.346","<span style=""font-size:30px; font-family: monospace"">operador</span>"," ","","exp-sent","operador","","",""
"","373","html-keyboard-response","422","1609544","0.0-3.0-1.347","<span style=""font-size:30px; font-family: monospace"">de</span>"," ","","exp-sent","de","","",""
"","469","html-keyboard-response","423","1610264","0.0-3.0-1.348","<span style=""font-size:30px; font-family: monospace"">caixa.</span>"," ","","exp-sent","caixa.","","",""
"","null","html-keyboard-response","424","1611517","0.0-3.0-0.349-0.349","<span style= ""font-size:30px; font-family: monospace"">+</span>","null","fixation","","","","",""
"","303","html-keyboard-response","425","1612072","0.0-3.0-1.349","<span style=""font-size:30px; font-family: monospace"">A</span>"," ","","exp-sent","A","","",""
"","501","html-keyboard-response","426","1612824","0.0-3.0-1.350","<span style=""font-size:30px; font-family: monospace"">gente</span>"," ","","exp-sent","gente","","",""
"","1973","html-keyboard-response","427","1615047","0.0-3.0-1.351","<span style=""font-size:30px; font-family: monospace"">viu</span>"," ","","exp-sent","viu","","",""
"","405","html-keyboard-response","428","1615704","0.0-3.0-1.352","<span style=""font-size:30px; font-family: monospace"">o</span>"," ","","exp-sent","o","","",""
"","1333","html-keyboard-response","429","1617287","0.0-3.0-1.353","<span style=""font-size:30px; font-family: monospace"">eclipse</span>"," ","","exp-sent","eclipse","","",""
"","533","html-keyboard-response","430","1618071","0.0-3.0-1.354","<span style=""font-size:30px; font-family: monospace"">lunar</span>"," ","","exp-sent","lunar","","",""
"","661","html-keyboard-response","431","1618983","0.0-3.0-1.355","<span style=""font-size:30px; font-family: monospace"">durante</span>"," ","","exp-sent","durante","","",""
"","341","html-keyboard-response","432","1619575","0.0-3.0-1.356","<span style=""font-size:30px; font-family: monospace"">o</span>"," ","","exp-sent","o","","",""
"","469","html-keyboard-response","433","1620295","0.0-3.0-1.357","<span style=""font-size:30px; font-family: monospace"">dia.</span>"," ","","exp-sent","dia.","","",""
"","null","html-keyboard-response","434","1621547","0.0-3.0-0.358-0.358","<span style= ""font-size:30px; font-family: monospace"">+</span>","null","fixation","","","","",""
"","337","html-keyboard-response","435","1622135","0.0-3.0-1.358","<span style=""font-size:30px; font-family: monospace"">A</span>"," ","","exp-sent","A","","",""
"","1525","html-keyboard-response","436","1623911","0.0-3.0-1.359","<span style=""font-size:30px; font-family: monospace"">mordida</span>"," ","","exp-sent","mordida","","",""
"","292","html-keyboard-response","437","1624455","0.0-3.0-1.360","<span style=""font-size:30px; font-family: monospace"">do</span>"," ","","exp-sent","do","","",""
"","2581","html-keyboard-response","438","1627287","0.0-3.0-1.361","<span style=""font-size:30px; font-family: monospace"">cachorro</span>"," ","","exp-sent","cachorro","","",""
"","1317","html-keyboard-response","439","1628855","0.0-3.0-1.362","<span style=""font-size:30px; font-family: monospace"">voraz</span>"," ","","exp-sent","voraz","","",""
"","2133","html-keyboard-response","440","1631239","0.0-3.0-1.363","<span style=""font-size:30px; font-family: monospace"">causou</span>"," ","","exp-sent","causou","","",""
"","421","html-keyboard-response","441","1631911","0.0-3.0-1.364","<span style=""font-size:30px; font-family: monospace"">uma</span>"," ","","exp-sent","uma","","",""
"","2613","html-keyboard-response","442","1634775","0.0-3.0-1.365","<span style=""font-size:30px; font-family: monospace"">cicatriz.</span>"," ","","exp-sent","cicatriz.","","",""
"","null","html-keyboard-response","443","1636028","0.0-3.0-0.366-0.366","<span style= ""font-size:30px; font-family: monospace"">+</span>","null","fixation","","","","",""
"","3505","html-keyboard-response","444","1639783","0.0-3.0-1.366","<span style=""font-size:30px; font-family: monospace"">Elas</span>"," ","","exp-sent","Elas","","",""
"","421","html-keyboard-response","445","1640455","0.0-3.0-1.367","<span style=""font-size:30px; font-family: monospace"">não</span>"," ","","exp-sent","não","","",""
"","533","html-keyboard-response","446","1641239","0.0-3.0-1.368","<span style=""font-size:30px; font-family: monospace"">viram</span>"," ","","exp-sent","viram","","",""
"","1349","html-keyboard-response","447","1642839","0.0-3.0-1.369","<span style=""font-size:30px; font-family: monospace"">nenhuma</span>"," ","","exp-sent","nenhuma","","",""
"","821","html-keyboard-response","448","1643911","0.0-3.0-1.370","<span style=""font-size:30px; font-family: monospace"">diferença</span>"," ","","exp-sent","diferença","","",""
"","885","html-keyboard-response","449","1645047","0.0-3.0-1.371","<span style=""font-size:30px; font-family: monospace"">entre</span>"," ","","exp-sent","entre","","",""
"","597","html-keyboard-response","450","1645895","0.0-3.0-1.372","<span style=""font-size:30px; font-family: monospace"">os</span>"," ","","exp-sent","os","","",""
"","597","html-keyboard-response","451","1646743","0.0-3.0-1.373","<span style=""font-size:30px; font-family: monospace"">textos.</span>"," ","","exp-sent","textos.","","",""
"","null","html-keyboard-response","452","1647996","0.0-3.0-0.374-0.374","<span style= ""font-size:30px; font-family: monospace"">+</span>","null","fixation","","","","",""
"","1073","html-keyboard-response","453","1649319","0.0-3.0-1.374","<span style=""font-size:30px; font-family: monospace"">Amanhã</span>"," ","","exp-sent","Amanhã","","",""
"","437","html-keyboard-response","454","1650007","0.0-3.0-1.375","<span style=""font-size:30px; font-family: monospace"">vai</span>"," ","","exp-sent","vai","","",""
"","500","html-keyboard-response","455","1650759","0.0-3.0-1.376","<span style=""font-size:30px; font-family: monospace"">ter</span>"," ","","exp-sent","ter","","",""
"","803","html-keyboard-response","456","1651815","0.0-3.0-1.377","<span style=""font-size:30px; font-family: monospace"">um</span>"," ","","exp-sent","um","","",""
"","1413","html-keyboard-response","457","1653479","0.0-3.0-1.378","<span style=""font-size:30px; font-family: monospace"">bazar</span>"," ","","exp-sent","bazar","","",""
"","629","html-keyboard-response","458","1654359","0.0-3.0-1.379","<span style=""font-size:30px; font-family: monospace"">no</span>"," ","","exp-sent","no","","",""
"","2661","html-keyboard-response","459","1657271","0.0-3.0-1.380","<span style=""font-size:30px; font-family: monospace"">bairro.</span>"," ","","comp","bairro.","","",""
"","5733","html-keyboard-response","460","1663255","0.0-3.0-2.380-0.380","<span style=""font-size:30px; font-family: monospace"">Amanhã vai acontecer um bazar no bairro?</span>","s","","comp","","Amanhã vai acontecer um bazar no bairro?","sim","false"
"","null","html-keyboard-response","461","1664756","0.0-3.0-0.381-0.381","<span style= ""font-size:30px; font-family: monospace"">+</span>","null","fixation","","","","",""
"","1416","html-keyboard-response","462","1666423","0.0-3.0-1.381","<span style=""font-size:30px; font-family: monospace"">Eu</span>"," ","","exp-sent","Eu","","",""
"","517","html-keyboard-response","463","1667191","0.0-3.0-1.382","<span style=""font-size:30px; font-family: monospace"">gosto</span>"," ","","exp-sent","gosto","","",""
"","373","html-keyboard-response","464","1667815","0.0-3.0-1.383","<span style=""font-size:30px; font-family: monospace"">de</span>"," ","","exp-sent","de","","",""
"","1429","html-keyboard-response","465","1669495","0.0-3.0-1.384","<span style=""font-size:30px; font-family: monospace"">molho</span>"," ","","exp-sent","molho","","",""
"","1605","html-keyboard-response","466","1671351","0.0-3.0-1.385","<span style=""font-size:30px; font-family: monospace"">picante</span>"," ","","exp-sent","picante","","",""
"","437","html-keyboard-response","467","1672039","0.0-3.0-1.386","<span style=""font-size:30px; font-family: monospace"">nas</span>"," ","","exp-sent","nas","","",""
"","916","html-keyboard-response","468","1673207","0.0-3.0-1.387","<span style=""font-size:30px; font-family: monospace"">batatas.</span>"," ","","exp-sent","batatas.","","",""
"","null","html-keyboard-response","469","1674458","0.0-3.0-0.388-0.388","<span style= ""font-size:30px; font-family: monospace"">+</span>","null","fixation","","","","",""
"","946","html-keyboard-response","470","1675655","0.0-3.0-1.388","<span style=""font-size:30px; font-family: monospace"">As</span>"," ","","exp-sent","As","","",""
"","773","html-keyboard-response","471","1676679","0.0-3.0-1.389","<span style=""font-size:30px; font-family: monospace"">pessoas</span>"," ","","exp-sent","pessoas","","",""
"","427","html-keyboard-response","472","1677367","0.0-3.0-1.390","<span style=""font-size:30px; font-family: monospace"">têm</span>"," ","","exp-sent","têm","","",""
"","468","html-keyboard-response","473","1678087","0.0-3.0-1.391","<span style=""font-size:30px; font-family: monospace"">sua</span>"," ","","exp-sent","sua","","",""
"","3205","html-keyboard-response","474","1681543","0.0-3.0-1.392","<span style=""font-size:30px; font-family: monospace"">liberdade</span>"," ","","exp-sent","liberdade","","",""
"","452","html-keyboard-response","475","1682247","0.0-3.0-1.393","<span style=""font-size:30px; font-family: monospace"">até</span>"," ","","exp-sent","até","","",""
"","549","html-keyboard-response","476","1683047","0.0-3.0-1.394","<span style=""font-size:30px; font-family: monospace"">certo</span>"," ","","exp-sent","certo","","",""
"","869","html-keyboard-response","477","1684167","0.0-3.0-1.395","<span style=""font-size:30px; font-family: monospace"">ponto.</span>"," ","","exp-sent","ponto.","","",""
"","null","html-keyboard-response","478","1685419","0.0-3.0-0.396-0.396","<span style= ""font-size:30px; font-family: monospace"">+</span>","null","fixation","","","","",""
"","624","html-keyboard-response","479","1686295","0.0-3.0-1.396","<span style=""font-size:30px; font-family: monospace"">A</span>"," ","","exp-sent","A","","",""
"","2277","html-keyboard-response","480","1688823","0.0-3.0-1.397","<span style=""font-size:30px; font-family: monospace"">empresa</span>"," ","","exp-sent","empresa","","",""
"","1189","html-keyboard-response","481","1690263","0.0-3.0-1.398","<span style=""font-size:30px; font-family: monospace"">enviou</span>"," ","","exp-sent","enviou","","",""
"","341","html-keyboard-response","482","1690855","0.0-3.0-1.399","<span style=""font-size:30px; font-family: monospace"">o</span>"," ","","exp-sent","o","","",""
"","771","html-keyboard-response","483","1691879","0.0-3.0-1.400","<span style=""font-size:30px; font-family: monospace"">aviso</span>"," ","","exp-sent","aviso","","",""
"","604","html-keyboard-response","484","1692743","0.0-3.0-1.401","<span style=""font-size:30px; font-family: monospace"">hoje</span>"," ","","exp-sent","hoje","","",""
"","517","html-keyboard-response","485","1693511","0.0-3.0-1.402","<span style=""font-size:30px; font-family: monospace"">de</span>"," ","","exp-sent","de","","",""
"","547","html-keyboard-response","486","1694311","0.0-3.0-1.403","<span style=""font-size:30px; font-family: monospace"">tarde.</span>"," ","","exp-sent","tarde.","","",""
"","null","html-keyboard-response","487","1695563","0.0-3.0-0.404-0.404","<span style= ""font-size:30px; font-family: monospace"">+</span>","null","fixation","","","","",""
"","529","html-keyboard-response","488","1696343","0.0-3.0-1.404","<span style=""font-size:30px; font-family: monospace"">A</span>"," ","","exp-sent","A","","",""
"","517","html-keyboard-response","489","1697111","0.0-3.0-1.405","<span style=""font-size:30px; font-family: monospace"">loja</span>"," ","","exp-sent","loja","","",""
"","324","html-keyboard-response","490","1697687","0.0-3.0-1.406","<span style=""font-size:30px; font-family: monospace"">vende</span>"," ","","exp-sent","vende","","",""
"","453","html-keyboard-response","491","1698391","0.0-3.0-1.407","<span style=""font-size:30px; font-family: monospace"">tanto</span>"," ","","exp-sent","tanto","","",""
"","917","html-keyboard-response","492","1699559","0.0-3.0-1.408","<span style=""font-size:30px; font-family: monospace"">frituras</span>"," ","","exp-sent","frituras","","",""
"","613","html-keyboard-response","493","1700423","0.0-3.0-1.409","<span style=""font-size:30px; font-family: monospace"">quanto</span>"," ","","exp-sent","quanto","","",""
"","661","html-keyboard-response","494","1701335","0.0-3.0-1.410","<span style=""font-size:30px; font-family: monospace"">comidas</span>"," ","","exp-sent","comidas","","",""
"","597","html-keyboard-response","495","1702183","0.0-3.0-1.411","<span style=""font-size:30px; font-family: monospace"">leves.</span>"," ","","exp-sent","leves.","","",""
"","null","html-keyboard-response","496","1703435","0.0-3.0-0.412-0.412","<span style= ""font-size:30px; font-family: monospace"">+</span>","null","fixation","","","","",""
"","465","html-keyboard-response","497","1704151","0.0-3.0-1.412","<span style=""font-size:30px; font-family: monospace"">As</span>"," ","","exp-sent","As","","",""
"","3445","html-keyboard-response","498","1707847","0.0-3.0-1.413","<span style=""font-size:30px; font-family: monospace"">cadeiras</span>"," ","","exp-sent","cadeiras","","",""
"","693","html-keyboard-response","499","1708791","0.0-3.0-1.414","<span style=""font-size:30px; font-family: monospace"">azuis</span>"," ","","exp-sent","azuis","","",""
"","485","html-keyboard-response","500","1709527","0.0-3.0-1.415","<span style=""font-size:30px; font-family: monospace"">da</span>"," ","","exp-sent","da","","",""
"","517","html-keyboard-response","501","1710295","0.0-3.0-1.416","<span style=""font-size:30px; font-family: monospace"">sala</span>"," ","","exp-sent","sala","","",""
"","355","html-keyboard-response","502","1710903","0.0-3.0-1.417","<span style=""font-size:30px; font-family: monospace"">eram</span>"," ","","exp-sent","eram","","",""
"","420","html-keyboard-response","503","1711575","0.0-3.0-1.418","<span style=""font-size:30px; font-family: monospace"">da</span>"," ","","exp-sent","da","","",""
"","469","html-keyboard-response","504","1712295","0.0-3.0-1.419","<span style=""font-size:30px; font-family: monospace"">minha</span>"," ","","exp-sent","minha","","",""
"","420","html-keyboard-response","505","1712967","0.0-3.0-1.420","<span style=""font-size:30px; font-family: monospace"">vó.</span>"," ","","comp","vó.","","",""
"","3460","html-keyboard-response","506","1716679","0.0-3.0-2.420-0.420","<span style=""font-size:30px; font-family: monospace"">As cadeiras eram da avó?</span>","s","","comp","","As cadeiras eram da avó?","sim","false"
"","null","html-keyboard-response","507","1718188","0.0-3.0-0.421-0.421","<span style= ""font-size:30px; font-family: monospace"">+</span>","null","fixation","","","","",""
"","2127","html-keyboard-response","508","1720567","0.0-3.0-1.421","<span style=""font-size:30px; font-family: monospace"">Ursos</span>"," ","","exp-sent","Ursos","","",""
"","597","html-keyboard-response","509","1721415","0.0-3.0-1.422","<span style=""font-size:30px; font-family: monospace"">têm</span>"," ","","exp-sent","têm","","",""
"","421","html-keyboard-response","510","1722087","0.0-3.0-1.423","<span style=""font-size:30px; font-family: monospace"">uma</span>"," ","","exp-sent","uma","","",""
"","837","html-keyboard-response","511","1723175","0.0-3.0-1.424","<span style=""font-size:30px; font-family: monospace"">patada</span>"," ","","exp-sent","patada","","",""
"","500","html-keyboard-response","512","1723927","0.0-3.0-1.425","<span style=""font-size:30px; font-family: monospace"">brutal</span>"," ","","exp-sent","brutal","","",""
"","373","html-keyboard-response","513","1724551","0.0-3.0-1.426","<span style=""font-size:30px; font-family: monospace"">e</span>"," ","","exp-sent","e","","",""
"","1622","html-keyboard-response","514","1726423","0.0-3.0-1.427","<span style=""font-size:30px; font-family: monospace"">poderosa.</span>"," ","","exp-sent","poderosa.","","",""
"","null","html-keyboard-response","515","1727675","0.0-3.0-0.428-0.428","<span style= ""font-size:30px; font-family: monospace"">+</span>","null","fixation","","","","",""
"","481","html-keyboard-response","516","1728407","0.0-3.0-1.428","<span style=""font-size:30px; font-family: monospace"">Eu</span>"," ","","exp-sent","Eu","","",""
"","532","html-keyboard-response","517","1729191","0.0-3.0-1.429","<span style=""font-size:30px; font-family: monospace"">fiz</span>"," ","","exp-sent","fiz","","",""
"","693","html-keyboard-response","518","1730135","0.0-3.0-1.430","<span style=""font-size:30px; font-family: monospace"">aulas</span>"," ","","exp-sent","aulas","","",""
"","421","html-keyboard-response","519","1730807","0.0-3.0-1.431","<span style=""font-size:30px; font-family: monospace"">de</span>"," ","","exp-sent","de","","",""
"","821","html-keyboard-response","520","1731879","0.0-3.0-1.432","<span style=""font-size:30px; font-family: monospace"">espanhol</span>"," ","","exp-sent","espanhol","","",""
"","405","html-keyboard-response","521","1732535","0.0-3.0-1.433","<span style=""font-size:30px; font-family: monospace"">nesta</span>"," ","","exp-sent","nesta","","",""
"","805","html-keyboard-response","522","1733591","0.0-3.0-1.434","<span style=""font-size:30px; font-family: monospace"">cidade.</span>"," ","","exp-sent","cidade.","","",""
"","null","html-keyboard-response","523","1734843","0.0-3.0-0.435-0.435","<span style= ""font-size:30px; font-family: monospace"">+</span>","null","fixation","","","","",""
"","577","html-keyboard-response","524","1735671","0.0-3.0-1.435","<span style=""font-size:30px; font-family: monospace"">Ele</span>"," ","","exp-sent","Ele","","",""
"","3572","html-keyboard-response","525","1739494","0.0-3.0-1.436","<span style=""font-size:30px; font-family: monospace"">comprou</span>"," ","","exp-sent","comprou","","",""
"","453","html-keyboard-response","526","1740199","0.0-3.0-1.437","<span style=""font-size:30px; font-family: monospace"">mais</span>"," ","","exp-sent","mais","","",""
"","516","html-keyboard-response","527","1740966","0.0-3.0-1.438","<span style=""font-size:30px; font-family: monospace"">uma</span>"," ","","exp-sent","uma","","",""
"","1396","html-keyboard-response","528","1742615","0.0-3.0-1.439","<span style=""font-size:30px; font-family: monospace"">esponja</span>"," ","","exp-sent","esponja","","",""
"","581","html-keyboard-response","529","1743446","0.0-3.0-1.440","<span style=""font-size:30px; font-family: monospace"">para</span>"," ","","exp-sent","para","","",""
"","373","html-keyboard-response","530","1744071","0.0-3.0-1.441","<span style=""font-size:30px; font-family: monospace"">a</span>"," ","","exp-sent","a","","",""
"","717","html-keyboard-response","531","1745046","0.0-3.0-1.442","<span style=""font-size:30px; font-family: monospace"">cozinha.</span>"," ","","exp-sent","cozinha.","","",""
"","null","html-keyboard-response","532","1746300","0.0-3.0-0.443-0.443","<span style= ""font-size:30px; font-family: monospace"">+</span>","null","fixation","","","","",""
"","287","html-keyboard-response","533","1746838","0.0-3.0-1.443","<span style=""font-size:30px; font-family: monospace"">Ele</span>"," ","","exp-sent","Ele","","",""
"","389","html-keyboard-response","534","1747479","0.0-3.0-1.444","<span style=""font-size:30px; font-family: monospace"">teve</span>"," ","","exp-sent","teve","","",""
"","340","html-keyboard-response","535","1748070","0.0-3.0-1.445","<span style=""font-size:30px; font-family: monospace"">um</span>"," ","","exp-sent","um","","",""
"","405","html-keyboard-response","536","1748726","0.0-3.0-1.446","<span style=""font-size:30px; font-family: monospace"">sono</span>"," ","","exp-sent","sono","","",""
"","1781","html-keyboard-response","537","1750758","0.0-3.0-1.447","<span style=""font-size:30px; font-family: monospace"">bizarro</span>"," ","","exp-sent","bizarro","","",""
"","453","html-keyboard-response","538","1751463","0.0-3.0-1.448","<span style=""font-size:30px; font-family: monospace"">sem</span>"," ","","exp-sent","sem","","",""
"","949","html-keyboard-response","539","1752662","0.0-3.0-1.449","<span style=""font-size:30px; font-family: monospace"">nenhum</span>"," ","","exp-sent","nenhum","","",""
"","693","html-keyboard-response","540","1753606","0.0-3.0-1.450","<span style=""font-size:30px; font-family: monospace"">motivo.</span>"," ","","exp-sent","motivo.","","",""
"","null","html-keyboard-response","541","1754872","0.0-3.0-0.451-0.451","<span style= ""font-size:30px; font-family: monospace"">+</span>","null","fixation","","","","",""
"","1285","html-keyboard-response","542","1756423","0.0-3.0-1.451","<span style=""font-size:30px; font-family: monospace"">A</span>"," ","","exp-sent","A","","",""
"","548","html-keyboard-response","543","1757222","0.0-3.0-1.452","<span style=""font-size:30px; font-family: monospace"">moça</span>"," ","","exp-sent","moça","","",""
"","901","html-keyboard-response","544","1758374","0.0-3.0-1.453","<span style=""font-size:30px; font-family: monospace"">comprou</span>"," ","","exp-sent","comprou","","",""
"","900","html-keyboard-response","545","1759526","0.0-3.0-1.454","<span style=""font-size:30px; font-family: monospace"">um</span>"," ","","exp-sent","um","","",""
"","1093","html-keyboard-response","546","1760870","0.0-3.0-1.455","<span style=""font-size:30px; font-family: monospace"">diamante</span>"," ","","exp-sent","diamante","","",""
"","549","html-keyboard-response","547","1761671","0.0-3.0-1.456","<span style=""font-size:30px; font-family: monospace"">para</span>"," ","","exp-sent","para","","",""
"","436","html-keyboard-response","548","1762358","0.0-3.0-1.457","<span style=""font-size:30px; font-family: monospace"">sua</span>"," ","","exp-sent","sua","","",""
"","805","html-keyboard-response","549","1763414","0.0-3.0-1.458","<span style=""font-size:30px; font-family: monospace"">prima.</span>"," ","","comp","prima.","","",""
"","4949","html-keyboard-response","550","1768614","0.0-3.0-2.458-0.458","<span style=""font-size:30px; font-family: monospace"">A moça comprou um diamante?</span>","s","","comp","","A moça comprou um diamante?","sim","false"
"","null","html-keyboard-response","551","1770116","0.0-3.0-0.459-0.459","<span style= ""font-size:30px; font-family: monospace"">+</span>","null","fixation","","","","",""
"","2424","html-keyboard-response","552","1772790","0.0-3.0-1.459","<span style=""font-size:30px; font-family: monospace"">As</span>"," ","","exp-sent","As","","",""
"","1124","html-keyboard-response","553","1774166","0.0-3.0-1.460","<span style=""font-size:30px; font-family: monospace"">crianças</span>"," ","","exp-sent","crianças","","",""
"","613","html-keyboard-response","554","1775031","0.0-3.0-1.461","<span style=""font-size:30px; font-family: monospace"">viram</span>"," ","","exp-sent","viram","","",""
"","373","html-keyboard-response","555","1775654","0.0-3.0-1.462","<span style=""font-size:30px; font-family: monospace"">um</span>"," ","","exp-sent","um","","",""
"","14869","html-keyboard-response","556","1790774","0.0-3.0-1.463","<span style=""font-size:30px; font-family: monospace"">vaga-lume</span>"," ","","exp-sent","vaga-lume","","",""
"","468","html-keyboard-response","557","1791494","0.0-3.0-1.464","<span style=""font-size:30px; font-family: monospace"">nos</span>"," ","","exp-sent","nos","","",""
"","741","html-keyboard-response","558","1792487","0.0-3.0-1.465","<span style=""font-size:30px; font-family: monospace"">arbustos.</span>"," ","","exp-sent","arbustos.","","",""
"","null","html-keyboard-response","559","1793738","0.0-3.0-0.466-0.466","<span style= ""font-size:30px; font-family: monospace"">+</span>","null","fixation","","","","",""
"","305","html-keyboard-response","560","1794295","0.0-3.0-1.466","<span style=""font-size:30px; font-family: monospace"">Ontem</span>"," ","","exp-sent","Ontem","","",""
"","8484","html-keyboard-response","561","1803031","0.0-3.0-1.467","<span style=""font-size:30px; font-family: monospace"">o</span>"," ","","exp-sent","o","","",""
"","6868","html-keyboard-response","562","1810150","0.0-3.0-1.468","<span style=""font-size:30px; font-family: monospace"">funcionário</span>"," ","","exp-sent","funcionário","","",""
"","565","html-keyboard-response","563","1810966","0.0-3.0-1.469","<span style=""font-size:30px; font-family: monospace"">pediu</span>"," ","","exp-sent","pediu","","",""
"","1269","html-keyboard-response","564","1812486","0.0-3.0-1.470","<span style=""font-size:30px; font-family: monospace"">autorização</span>"," ","","exp-sent","autorização","","",""
"","1765","html-keyboard-response","565","1814502","0.0-3.0-1.471","<span style=""font-size:30px; font-family: monospace"">para</span>"," ","","exp-sent","para","","",""
"","357","html-keyboard-response","566","1815110","0.0-3.0-1.472","<span style=""font-size:30px; font-family: monospace"">a</span>"," ","","exp-sent","a","","",""
"","709","html-keyboard-response","567","1816070","0.0-3.0-1.473","<span style=""font-size:30px; font-family: monospace"">colega.</span>"," ","","exp-sent","colega.","","",""
"","null","html-keyboard-response","568","1817322","0.0-3.0-0.474-0.474","<span style= ""font-size:30px; font-family: monospace"">+</span>","null","fixation","","","","",""
"","401","html-keyboard-response","569","1817974","0.0-3.0-1.474","<span style=""font-size:30px; font-family: monospace"">Eu</span>"," ","","exp-sent","Eu","","",""
"","2276","html-keyboard-response","570","1820502","0.0-3.0-1.475","<span style=""font-size:30px; font-family: monospace"">sempre</span>"," ","","exp-sent","sempre","","",""
"","469","html-keyboard-response","571","1821222","0.0-3.0-1.476","<span style=""font-size:30px; font-family: monospace"">fujo</span>"," ","","exp-sent","fujo","","",""
"","565","html-keyboard-response","572","1822038","0.0-3.0-1.477","<span style=""font-size:30px; font-family: monospace"">de</span>"," ","","exp-sent","de","","",""
"","980","html-keyboard-response","573","1823270","0.0-3.0-1.478","<span style=""font-size:30px; font-family: monospace"">conflito</span>"," ","","exp-sent","conflito","","",""
"","388","html-keyboard-response","574","1823910","0.0-3.0-1.479","<span style=""font-size:30px; font-family: monospace"">com</span>"," ","","exp-sent","com","","",""
"","373","html-keyboard-response","575","1824535","0.0-3.0-1.480","<span style=""font-size:30px; font-family: monospace"">as</span>"," ","","exp-sent","as","","",""
"","644","html-keyboard-response","576","1825430","0.0-3.0-1.481","<span style=""font-size:30px; font-family: monospace"">pessoas.</span>"," ","","exp-sent","pessoas.","","",""
"","null","html-keyboard-response","577","1826683","0.0-3.0-0.482-0.482","<span style= ""font-size:30px; font-family: monospace"">+</span>","null","fixation","","","","",""
"","3008","html-keyboard-response","578","1829942","0.0-3.0-1.482","<span style=""font-size:30px; font-family: monospace"">O</span>"," ","","exp-sent","O","","",""
"","433","html-keyboard-response","579","1830630","0.0-3.0-1.483","<span style=""font-size:30px; font-family: monospace"">bolo</span>"," ","","exp-sent","bolo","","",""
"","1109","html-keyboard-response","580","1831990","0.0-3.0-1.484","<span style=""font-size:30px; font-family: monospace"">era</span>"," ","","exp-sent","era","","",""
"","1029","html-keyboard-response","581","1833270","0.0-3.0-1.485","<span style=""font-size:30px; font-family: monospace"">de</span>"," ","","exp-sent","de","","",""
