"view_history","rt","trial_type","trial_index","time_elapsed","internal_node_id","stimulus","response","class","status","answer","correct","trial","letters"
"[{""page_index"":0,""viewing_time"":76465}]","76465","instructions","0","76465","0.0-0.0","","","","","","","",""
"","null","html-keyboard-response","1","77068","0.0-1.0-0.0","+","null","","","","","",""
"","21748","html-keyboard-response","2","98816","0.0-1.0-1.0","crante","s","null","noncog","pseudo","N","prac","null"
"","null","html-keyboard-response","3","99317","0.0-1.0-0.1","+","null","","","","","",""
"","2858","html-keyboard-response","4","102176","0.0-1.0-1.1","oliva","n","null","cog","word","S","prac","null"
"","null","html-keyboard-response","5","102685","0.0-1.0-0.2","+","null","","","","","",""
"","10291","html-keyboard-response","6","112976","0.0-1.0-1.2","plibar","n","null","noncog","pseudo","N","prac","null"
"","null","html-keyboard-response","7","113477","0.0-1.0-0.3","+","null","","","","","",""
"","1722","html-keyboard-response","8","115200","0.0-1.0-1.3","órgão","n","null","noncog","word","S","prac","null"
"","null","html-keyboard-response","9","115701","0.0-1.0-0.4","+","null","","","","","",""
"","5178","html-keyboard-response","10","120880","0.0-1.0-1.4","daja","s","null","noncog","pseudo","N","prac","null"
"","null","html-keyboard-response","11","121382","0.0-1.0-0.5","+","null","","","","","",""
"","1146","html-keyboard-response","12","122528","0.0-1.0-1.5","chassi","n","null","cog","word","S","prac","null"
"","null","html-keyboard-response","13","123029","0.0-1.0-0.6","+","null","","","","","",""
"","5835","html-keyboard-response","14","128864","0.0-1.0-1.6","calmaria","n","null","noncog","word","S","prac","null"
"[{""page_index"":0,""viewing_time"":27624}]","27624","instructions","15","156488","0.0-2.0","","","","","","","",""
"","null","html-keyboard-response","16","157089","0.0-3.0-0.0","+","null","","","","","",""
"","2654","html-keyboard-response","17","159744","0.0-3.0-1.0","franda","n","null","noncog","pseudo","N","exp","null"
"","null","html-keyboard-response","18","160245","0.0-3.0-0.1","+","null","","","","","",""
"","2650","html-keyboard-response","19","162896","0.0-3.0-1.1","prever","n","v","cog","word","S","exp","6"
"","null","html-keyboard-response","20","163396","0.0-3.0-0.2","+","null","","","","","",""
"","843","html-keyboard-response","21","164240","0.0-3.0-1.2","ilhure","n","null","noncog","pseudo","N","exp","null"
"","null","html-keyboard-response","22","164740","0.0-3.0-0.3","+","null","","","","","",""
"","3339","html-keyboard-response","23","168080","0.0-3.0-1.3","delomir","n","null","noncog","pseudo","N","exp","null"
"","null","html-keyboard-response","24","168581","0.0-3.0-0.4","+","null","","","","","",""
"","1850","html-keyboard-response","25","170432","0.0-3.0-1.4","sustentar","n","v","noncog","word","S","exp","9"
"","null","html-keyboard-response","26","170933","0.0-3.0-0.5","+","null","","","","","",""
"","1307","html-keyboard-response","27","172240","0.0-3.0-1.5","ótimo","s","a","noncog","word","S","exp","5"
"","null","html-keyboard-response","28","172741","0.0-3.0-0.6","+","null","","","","","",""
"","1306","html-keyboard-response","29","174048","0.0-3.0-1.6","adoçar","s","v","noncog","word","S","exp","6"
"","null","html-keyboard-response","30","174559","0.0-3.0-0.7","+","null","","","","","",""
"","817","html-keyboard-response","31","175376","0.0-3.0-1.7","tela","s","n","noncog","word","S","exp","4"
"","null","html-keyboard-response","32","175876","0.0-3.0-0.8","+","null","","","","","",""
"","4331","html-keyboard-response","33","180208","0.0-3.0-1.8","vitrive","s","null","noncog","pseudo","N","exp","null"
"","null","html-keyboard-response","34","180708","0.0-3.0-0.9","+","null","","","","","",""
"","1419","html-keyboard-response","35","182128","0.0-3.0-1.9","gilha","n","null","noncog","pseudo","N","exp","null"
"","null","html-keyboard-response","36","182629","0.0-3.0-0.10","+","null","","","","","",""
"","1434","html-keyboard-response","37","184063","0.0-3.0-1.10","ênclio","s","null","noncog","pseudo","N","exp","null"
"","null","html-keyboard-response","38","184564","0.0-3.0-0.11","+","null","","","","","",""
"","2443","html-keyboard-response","39","187008","0.0-3.0-1.11","aperor","n","null","noncog","pseudo","N","exp","null"
"","null","html-keyboard-response","40","187508","0.0-3.0-0.12","+","null","","","","","",""
"","1691","html-keyboard-response","41","189200","0.0-3.0-1.12","bambu","n","n","cog","word","S","exp","5"
"","null","html-keyboard-response","42","189701","0.0-3.0-0.13","+","null","","","","","",""
"","1195","html-keyboard-response","43","190896","0.0-3.0-1.13","esprotiar","n","null","noncog","pseudo","N","exp","null"
"","null","html-keyboard-response","44","191404","0.0-3.0-0.14","+","null","","","","","",""
"","3043","html-keyboard-response","45","194448","0.0-3.0-1.14","pritas","n","null","noncog","pseudo","N","exp","null"
"","null","html-keyboard-response","46","194948","0.0-3.0-0.15","+","null","","","","","",""
"","1035","html-keyboard-response","47","195984","0.0-3.0-1.15","afonher","n","null","noncog","pseudo","N","exp","null"
"","null","html-keyboard-response","48","196485","0.0-3.0-0.16","+","null","","","","","",""
"","2442","html-keyboard-response","49","198927","0.0-3.0-1.16","pantufa","s","n","cog","word","S","exp","7"
"","null","html-keyboard-response","50","199429","0.0-3.0-0.17","+","null","","","","","",""
"","1882","html-keyboard-response","51","201312","0.0-3.0-1.17","sábio","s","n","noncog","word","S","exp","5"
"","null","html-keyboard-response","52","201812","0.0-3.0-0.18","+","null","","","","","",""
"","1611","html-keyboard-response","53","203423","0.0-3.0-1.18","mal","n","a","cog","word","S","exp","3"
"","null","html-keyboard-response","54","203924","0.0-3.0-0.19","+","null","","","","","",""
"","891","html-keyboard-response","55","204815","0.0-3.0-1.19","avenas","n","null","noncog","pseudo","N","exp","null"
"","null","html-keyboard-response","56","205329","0.0-3.0-0.20","+","null","","","","","",""
"","1966","html-keyboard-response","57","207296","0.0-3.0-1.20","temperar","s","v","noncog","word","S","exp","8"
"","null","html-keyboard-response","58","207797","0.0-3.0-0.21","+","null","","","","","",""
"","2250","html-keyboard-response","59","210047","0.0-3.0-1.21","bandido","n","n","cog","word","S","exp","7"
"","null","html-keyboard-response","60","210550","0.0-3.0-0.22","+","null","","","","","",""
"","3865","html-keyboard-response","61","214415","0.0-3.0-1.22","crolatário","n","null","noncog","pseudo","N","exp","null"
"","null","html-keyboard-response","62","214925","0.0-3.0-0.23","+","null","","","","","",""
"","1234","html-keyboard-response","63","216159","0.0-3.0-1.23","beima","n","null","noncog","pseudo","N","exp","null"
"","null","html-keyboard-response","64","216661","0.0-3.0-0.24","+","null","","","","","",""
"","2698","html-keyboard-response","65","219359","0.0-3.0-1.24","tartos","n","null","noncog","pseudo","N","exp","null"
"","null","html-keyboard-response","66","219861","0.0-3.0-0.25","+","null","","","","","",""
"","1034","html-keyboard-response","67","220895","0.0-3.0-1.25","multiplicar","s","v","cog","word","S","exp","11"
"","null","html-keyboard-response","68","221397","0.0-3.0-0.26","+","null","","","","","",""
"","538","html-keyboard-response","69","221935","0.0-3.0-1.26","dia","s","n","noncog","word","S","exp","3"
"","null","html-keyboard-response","70","222437","0.0-3.0-0.27","+","null","","","","","",""
"","1818","html-keyboard-response","71","224255","0.0-3.0-1.27","gruja","n","null","noncog","pseudo","N","exp","null"
"","null","html-keyboard-response","72","224763","0.0-3.0-0.28","+","null","","","","","",""
"","1892","html-keyboard-response","73","226655","0.0-3.0-1.28","liso","n","n","noncog","word","S","exp","4"
"","null","html-keyboard-response","74","227167","0.0-3.0-0.29","+","null","","","","","",""
"","2336","html-keyboard-response","75","229503","0.0-3.0-1.29","nervoso","n","a","noncog","word","S","exp","7"
"","null","html-keyboard-response","76","230004","0.0-3.0-0.30","+","null","","","","","",""
"","2875","html-keyboard-response","77","232879","0.0-3.0-1.30","arranjar","n","v","cog","word","S","exp","8"
"","null","html-keyboard-response","78","233380","0.0-3.0-0.31","+","null","","","","","",""
"","1498","html-keyboard-response","79","234879","0.0-3.0-1.31","taberia","s","null","noncog","pseudo","N","exp","null"
"","null","html-keyboard-response","80","235380","0.0-3.0-0.32","+","null","","","","","",""
"","906","html-keyboard-response","81","236287","0.0-3.0-1.32","agravar","s","v","cog","word","S","exp","7"
"","null","html-keyboard-response","82","236789","0.0-3.0-0.33","+","null","","","","","",""
"","1514","html-keyboard-response","83","238303","0.0-3.0-1.33","morar","n","v","noncog","word","S","exp","5"
"","null","html-keyboard-response","84","238804","0.0-3.0-0.34","+","null","","","","","",""
"","1131","html-keyboard-response","85","239935","0.0-3.0-1.34","cerca","n","n","noncog","word","S","exp","5"
"","null","html-keyboard-response","86","240437","0.0-3.0-0.35","+","null","","","","","",""
"","954","html-keyboard-response","87","241391","0.0-3.0-1.35","vervas","n","null","noncog","pseudo","N","exp","null"
"","null","html-keyboard-response","88","241892","0.0-3.0-0.36","+","null","","","","","",""
"","3419","html-keyboard-response","89","245311","0.0-3.0-1.36","cascata","n","n","noncog","word","S","exp","7"
"","null","html-keyboard-response","90","245812","0.0-3.0-0.37","+","null","","","","","",""
"","1258","html-keyboard-response","91","247071","0.0-3.0-1.37","drama","n","n","cog","word","S","exp","5"
"","null","html-keyboard-response","92","247572","0.0-3.0-0.38","+","null","","","","","",""
"","1787","html-keyboard-response","93","249359","0.0-3.0-1.38","prenas","s","null","noncog","pseudo","N","exp","null"
"","null","html-keyboard-response","94","249860","0.0-3.0-0.39","+","null","","","","","",""
"","3851","html-keyboard-response","95","253711","0.0-3.0-1.39","candifência","n","null","noncog","pseudo","N","exp","null"
"","null","html-keyboard-response","96","254212","0.0-3.0-0.40","+","null","","","","","",""
"","1883","html-keyboard-response","97","256095","0.0-3.0-1.40","pulmão","s","n","noncog","word","S","exp","6"
"","null","html-keyboard-response","98","256596","0.0-3.0-0.41","+","null","","","","","",""
"","2267","html-keyboard-response","99","258864","0.0-3.0-1.41","enedro","n","null","noncog","pseudo","N","exp","null"
"","null","html-keyboard-response","100","259364","0.0-3.0-0.42","+","null","","","","","",""
"","1467","html-keyboard-response","101","260831","0.0-3.0-1.42","ronronar","n","v","cog","word","S","exp","8"
"","null","html-keyboard-response","102","261332","0.0-3.0-0.43","+","null","","","","","",""
"","1179","html-keyboard-response","103","262511","0.0-3.0-1.43","euorpa","n","null","noncog","pseudo","N","exp","null"
"","null","html-keyboard-response","104","263012","0.0-3.0-0.44","+","null","","","","","",""
"","1162","html-keyboard-response","105","264175","0.0-3.0-1.44","irratinte","n","null","noncog","pseudo","N","exp","null"
"","null","html-keyboard-response","106","264679","0.0-3.0-0.45","+","null","","","","","",""
"","808","html-keyboard-response","107","265487","0.0-3.0-1.45","mabras","n","null","noncog","pseudo","N","exp","null"
"","null","html-keyboard-response","108","265988","0.0-3.0-0.46","+","null","","","","","",""
"","2666","html-keyboard-response","109","268654","0.0-3.0-1.46","delirar","n","v","noncog","word","S","exp","7"
"","null","html-keyboard-response","110","269155","0.0-3.0-0.47","+","null","","","","","",""
"","1194","html-keyboard-response","111","270350","0.0-3.0-1.47","animado","s","a","noncog","word","S","exp","7"
"","null","html-keyboard-response","112","270851","0.0-3.0-0.48","+","null","","","","","",""
"","1691","html-keyboard-response","113","272543","0.0-3.0-1.48","revista","n","n","cog","word","S","exp","7"
"","null","html-keyboard-response","114","273044","0.0-3.0-0.49","+","null","","","","","",""
"","1146","html-keyboard-response","115","274190","0.0-3.0-1.49","refletir","n","v","cog","word","S","exp","8"
"","null","html-keyboard-response","116","274691","0.0-3.0-0.50","+","null","","","","","",""
"","1082","html-keyboard-response","117","275774","0.0-3.0-1.50","civil","s","a","cog","word","S","exp","5"
"","null","html-keyboard-response","118","276280","0.0-3.0-0.51","+","null","","","","","",""
"","853","html-keyboard-response","119","277134","0.0-3.0-1.51","aletiê","n","null","noncog","pseudo","N","exp","null"
"","null","html-keyboard-response","120","277643","0.0-3.0-0.52","+","null","","","","","",""
"","1395","html-keyboard-response","121","279038","0.0-3.0-1.52","tatear","n","v","cog","word","S","exp","6"
"","null","html-keyboard-response","122","279539","0.0-3.0-0.53","+","null","","","","","",""
"","2507","html-keyboard-response","123","282047","0.0-3.0-1.53","lapestra","n","null","noncog","pseudo","N","exp","null"
"","null","html-keyboard-response","124","282548","0.0-3.0-0.54","+","null","","","","","",""
"","2361","html-keyboard-response","125","284910","0.0-3.0-1.54","papai","n","n","cog","word","S","exp","5"
"","null","html-keyboard-response","126","285411","0.0-3.0-0.55","+","null","","","","","",""
"","1514","html-keyboard-response","127","286926","0.0-3.0-1.55","bagunceira","n","a","noncog","word","S","exp","10"
"","null","html-keyboard-response","128","287428","0.0-3.0-0.56","+","null","","","","","",""
"","1354","html-keyboard-response","129","288782","0.0-3.0-1.56","pedaço","s","n","noncog","word","S","exp","6"
"","null","html-keyboard-response","130","289284","0.0-3.0-0.57","+","null","","","","","",""
"","1210","html-keyboard-response","131","290494","0.0-3.0-1.57","orupas","s","null","noncog","pseudo","N","exp","null"
"","null","html-keyboard-response","132","290996","0.0-3.0-0.58","+","null","","","","","",""
"","2058","html-keyboard-response","133","293054","0.0-3.0-1.58","gordo","n","a","noncog","word","S","exp","5"
"","null","html-keyboard-response","134","293563","0.0-3.0-0.59","+","null","","","","","",""
"","1059","html-keyboard-response","135","294622","0.0-3.0-1.59","detative","s","null","noncog","pseudo","N","exp","null"
"","null","html-keyboard-response","136","295123","0.0-3.0-0.60","+","null","","","","","",""
"","1659","html-keyboard-response","137","296782","0.0-3.0-1.60","esfoce","n","null","noncog","pseudo","N","exp","null"
"","null","html-keyboard-response","138","297283","0.0-3.0-0.61","+","null","","","","","",""
"","2650","html-keyboard-response","139","299934","0.0-3.0-1.61","farcas","s","null","noncog","pseudo","N","exp","null"
"","null","html-keyboard-response","140","300437","0.0-3.0-0.62","+","null","","","","","",""
"","1225","html-keyboard-response","141","301662","0.0-3.0-1.62","medalha","n","n","cog","word","S","exp","7"
"","null","html-keyboard-response","142","302163","0.0-3.0-0.63","+","null","","","","","",""
"","714","html-keyboard-response","143","302878","0.0-3.0-1.63","enxarto","n","null","noncog","pseudo","N","exp","null"
"","null","html-keyboard-response","144","303380","0.0-3.0-0.64","+","null","","","","","",""
"","842","html-keyboard-response","145","304222","0.0-3.0-1.64","oecano","n","null","noncog","pseudo","N","exp","null"
"","null","html-keyboard-response","146","304724","0.0-3.0-0.65","+","null","","","","","",""
"","730","html-keyboard-response","147","305454","0.0-3.0-1.65","oper","n","null","noncog","pseudo","N","exp","null"
"","null","html-keyboard-response","148","305956","0.0-3.0-0.66","+","null","","","","","",""
"","1002","html-keyboard-response","149","306958","0.0-3.0-1.66","espaço","n","n","cog","word","S","exp","6"
"","null","html-keyboard-response","150","307460","0.0-3.0-0.67","+","null","","","","","",""
"","1162","html-keyboard-response","151","308622","0.0-3.0-1.67","conjerto","s","null","noncog","pseudo","N","exp","null"
"","null","html-keyboard-response","152","309123","0.0-3.0-0.68","+","null","","","","","",""
"","939","html-keyboard-response","153","310062","0.0-3.0-1.68","glória","n","n","cog","word","S","exp","6"
"","null","html-keyboard-response","154","310563","0.0-3.0-0.69","+","null","","","","","",""
"","699","html-keyboard-response","155","311262","0.0-3.0-1.69","plinta","n","null","noncog","pseudo","N","exp","null"
"","null","html-keyboard-response","156","311763","0.0-3.0-0.70","+","null","","","","","",""
"","795","html-keyboard-response","157","312558","0.0-3.0-1.70","manfa","n","null","noncog","pseudo","N","exp","null"
"","null","html-keyboard-response","158","313059","0.0-3.0-0.71","+","null","","","","","",""
"","698","html-keyboard-response","159","313758","0.0-3.0-1.71","reduzir","n","v","cog","word","S","exp","7"
"","null","html-keyboard-response","160","314259","0.0-3.0-0.72","+","null","","","","","",""
"","2859","html-keyboard-response","161","317118","0.0-3.0-1.72","fino","n","a","cog","word","S","exp","4"
"","null","html-keyboard-response","162","317619","0.0-3.0-0.73","+","null","","","","","",""
"","810","html-keyboard-response","163","318430","0.0-3.0-1.73","tinta","n","n","cog","word","S","exp","5"
"","null","html-keyboard-response","164","318931","0.0-3.0-0.74","+","null","","","","","",""
"","683","html-keyboard-response","165","319614","0.0-3.0-1.74","telefone","s","n","cog","word","S","exp","8"
"","null","html-keyboard-response","166","320118","0.0-3.0-0.75","+","null","","","","","",""
"","1000","html-keyboard-response","167","321118","0.0-3.0-1.75","atitro","n","null","noncog","pseudo","N","exp","null"
"","null","html-keyboard-response","168","321619","0.0-3.0-0.76","+","null","","","","","",""
"","4027","html-keyboard-response","169","325646","0.0-3.0-1.76","convidado","s","n","noncog","word","S","exp","9"
"","null","html-keyboard-response","170","326148","0.0-3.0-0.77","+","null","","","","","",""
"","3050","html-keyboard-response","171","329198","0.0-3.0-1.77","cinema","n","n","cog","word","S","exp","6"
"","null","html-keyboard-response","172","329699","0.0-3.0-0.78","+","null","","","","","",""
"","1163","html-keyboard-response","173","330862","0.0-3.0-1.78","árovre","n","null","noncog","pseudo","N","exp","null"
"","null","html-keyboard-response","174","331363","0.0-3.0-0.79","+","null","","","","","",""
"","779","html-keyboard-response","175","332142","0.0-3.0-1.79","burtos","n","null","noncog","pseudo","N","exp","null"
"","null","html-keyboard-response","176","332643","0.0-3.0-0.80","+","null","","","","","",""
"","938","html-keyboard-response","177","333582","0.0-3.0-1.80","anjo","n","n","cog","word","S","exp","4"
"","null","html-keyboard-response","178","334083","0.0-3.0-0.81","+","null","","","","","",""
"","1594","html-keyboard-response","179","335678","0.0-3.0-1.81","imitar","s","v","cog","word","S","exp","6"
"","null","html-keyboard-response","180","336179","0.0-3.0-0.82","+","null","","","","","",""
"","795","html-keyboard-response","181","336974","0.0-3.0-1.82","jantar","s","v","noncog","word","S","exp","6"
"","null","html-keyboard-response","182","337475","0.0-3.0-0.83","+","null","","","","","",""
"","1242","html-keyboard-response","183","338718","0.0-3.0-1.83","independente","s","a","noncog","word","S","exp","12"
"","null","html-keyboard-response","184","339219","0.0-3.0-0.84","+","null","","","","","",""
"","2955","html-keyboard-response","185","342174","0.0-3.0-1.84","fofo","n","a","noncog","word","S","exp","4"
"","null","html-keyboard-response","186","342676","0.0-3.0-0.85","+","null","","","","","",""
"","1257","html-keyboard-response","187","343934","0.0-3.0-1.85","espionar","n","v","cog","word","S","exp","8"
"","null","html-keyboard-response","188","344435","0.0-3.0-0.86","+","null","","","","","",""
"","1243","html-keyboard-response","189","345678","0.0-3.0-1.86","ofreta","n","null","noncog","pseudo","N","exp","null"
"","null","html-keyboard-response","190","346179","0.0-3.0-0.87","+","null","","","","","",""
"","1018","html-keyboard-response","191","347198","0.0-3.0-1.87","azul","n","n","noncog","word","S","exp","4"
"","null","html-keyboard-response","192","347698","0.0-3.0-0.88","+","null","","","","","",""
"","715","html-keyboard-response","193","348414","0.0-3.0-1.88","uchães","n","null","noncog","pseudo","N","exp","null"
"","null","html-keyboard-response","194","348915","0.0-3.0-0.89","+","null","","","","","",""
"","1178","html-keyboard-response","195","350094","0.0-3.0-1.89","quenzina","n","null","noncog","pseudo","N","exp","null"
"","null","html-keyboard-response","196","350595","0.0-3.0-0.90","+","null","","","","","",""
"","1578","html-keyboard-response","197","352174","0.0-3.0-1.90","perdão","n","n","noncog","word","S","exp","6"
"","null","html-keyboard-response","198","352678","0.0-3.0-0.91","+","null","","","","","",""
"","1512","html-keyboard-response","199","354190","0.0-3.0-1.91","brincar","s","v","noncog","word","S","exp","7"
"","null","html-keyboard-response","200","354691","0.0-3.0-0.92","+","null","","","","","",""
"","3098","html-keyboard-response","201","357790","0.0-3.0-1.92","dilheira","n","null","noncog","pseudo","N","exp","null"
"","null","html-keyboard-response","202","358292","0.0-3.0-0.93","+","null","","","","","",""
"","1018","html-keyboard-response","203","359310","0.0-3.0-1.93","tênis","n","n","cog","word","S","exp","5"
"","null","html-keyboard-response","204","359811","0.0-3.0-0.94","+","null","","","","","",""
"","858","html-keyboard-response","205","360670","0.0-3.0-1.94","rovaz","n","null","noncog","pseudo","N","exp","null"
"","null","html-keyboard-response","206","361171","0.0-3.0-0.95","+","null","","","","","",""
"","2507","html-keyboard-response","207","363678","0.0-3.0-1.95","escumo","n","null","noncog","pseudo","N","exp","null"
"","null","html-keyboard-response","208","364178","0.0-3.0-0.96","+","null","","","","","",""
"","1755","html-keyboard-response","209","365934","0.0-3.0-1.96","bibarconato","n","null","noncog","pseudo","N","exp","null"
"","null","html-keyboard-response","210","366435","0.0-3.0-0.97","+","null","","","","","",""
"","858","html-keyboard-response","211","367294","0.0-3.0-1.97","bracos","n","null","noncog","pseudo","N","exp","null"
"","null","html-keyboard-response","212","367809","0.0-3.0-0.98","+","null","","","","","",""
"","3869","html-keyboard-response","213","371678","0.0-3.0-1.98","planalto","n","n","cog","word","S","exp","8"
"","null","html-keyboard-response","214","372179","0.0-3.0-0.99","+","null","","","","","",""
"","1114","html-keyboard-response","215","373294","0.0-3.0-1.99","pneucania","n","null","noncog","pseudo","N","exp","null"
"","null","html-keyboard-response","216","373795","0.0-3.0-0.100","+","null","","","","","",""
"","842","html-keyboard-response","217","374638","0.0-3.0-1.100","loaco","n","null","noncog","pseudo","N","exp","null"
"","null","html-keyboard-response","218","375139","0.0-3.0-0.101","+","null","","","","","",""
"","4459","html-keyboard-response","219","379598","0.0-3.0-1.101","chorão","s","a","noncog","word","S","exp","6"
"","null","html-keyboard-response","220","380099","0.0-3.0-0.102","+","null","","","","","",""
"","1770","html-keyboard-response","221","381870","0.0-3.0-1.102","dipata","n","null","noncog","pseudo","N","exp","null"
"","null","html-keyboard-response","222","382371","0.0-3.0-0.103","+","null","","","","","",""
"","3147","html-keyboard-response","223","385518","0.0-3.0-1.103","carona","n","n","noncog","word","S","exp","6"
"","null","html-keyboard-response","224","386020","0.0-3.0-0.104","+","null","","","","","",""
"","778","html-keyboard-response","225","386798","0.0-3.0-1.104","aivões","n","null","noncog","pseudo","N","exp","null"
"","null","html-keyboard-response","226","387299","0.0-3.0-0.105","+","null","","","","","",""
"","619","html-keyboard-response","227","387918","0.0-3.0-1.105","aitrou","n","null","noncog","pseudo","N","exp","null"
"","null","html-keyboard-response","228","388419","0.0-3.0-0.106","+","null","","","","","",""
"","1851","html-keyboard-response","229","390270","0.0-3.0-1.106","dacada","n","null","noncog","pseudo","N","exp","null"
"","null","html-keyboard-response","230","390771","0.0-3.0-0.107","+","null","","","","","",""
"","1531","html-keyboard-response","231","392302","0.0-3.0-1.107","mudança","s","n","noncog","word","S","exp","7"
"","null","html-keyboard-response","232","392804","0.0-3.0-0.108","+","null","","","","","",""
"","650","html-keyboard-response","233","393454","0.0-3.0-1.108","hébies","n","null","noncog","pseudo","N","exp","null"
"","null","html-keyboard-response","234","393955","0.0-3.0-0.109","+","null","","","","","",""
"","1019","html-keyboard-response","235","394974","0.0-3.0-1.109","filme","n","n","cog","word","S","exp","5"
"","null","html-keyboard-response","236","395475","0.0-3.0-0.110","+","null","","","","","",""
"","858","html-keyboard-response","237","396334","0.0-3.0-1.110","grótis","n","null","noncog","pseudo","N","exp","null"
"","null","html-keyboard-response","238","396848","0.0-3.0-0.111","+","null","","","","","",""
"","3566","html-keyboard-response","239","400414","0.0-3.0-1.111","risbos","n","null","noncog","pseudo","N","exp","null"
"","null","html-keyboard-response","240","400916","0.0-3.0-0.112","+","null","","","","","",""
"","1289","html-keyboard-response","241","402206","0.0-3.0-1.112","tímido","n","a","cog","word","S","exp","6"
"","null","html-keyboard-response","242","402707","0.0-3.0-0.113","+","null","","","","","",""
"","986","html-keyboard-response","243","403694","0.0-3.0-1.113","protas","n","null","noncog","pseudo","N","exp","null"
"","null","html-keyboard-response","244","404201","0.0-3.0-0.114","+","null","","","","","",""
"","1509","html-keyboard-response","245","405710","0.0-3.0-1.114","trabalhar","n","v","noncog","word","S","exp","9"
"","null","html-keyboard-response","246","406211","0.0-3.0-0.115","+","null","","","","","",""
"","2107","html-keyboard-response","247","408318","0.0-3.0-1.115","mania","n","n","cog","word","S","exp","5"
"","null","html-keyboard-response","248","408819","0.0-3.0-0.116","+","null","","","","","",""
"","1995","html-keyboard-response","249","410814","0.0-3.0-1.116","dencosto","n","null","noncog","pseudo","N","exp","null"
"","null","html-keyboard-response","250","411316","0.0-3.0-0.117","+","null","","","","","",""
"","3946","html-keyboard-response","251","415262","0.0-3.0-1.117","carro","s","n","noncog","word","S","exp","5"
"","null","html-keyboard-response","252","415763","0.0-3.0-0.118","+","null","","","","","",""
"","2618","html-keyboard-response","253","418382","0.0-3.0-1.118","casuas","s","null","noncog","pseudo","N","exp","null"
"","null","html-keyboard-response","254","418884","0.0-3.0-0.119","+","null","","","","","",""
"","2090","html-keyboard-response","255","420974","0.0-3.0-1.119","apontar","n","v","noncog","word","S","exp","7"
"","null","html-keyboard-response","256","421476","0.0-3.0-0.120","+","null","","","","","",""
"","762","html-keyboard-response","257","422238","0.0-3.0-1.120","encelhor","n","null","noncog","pseudo","N","exp","null"
"","null","html-keyboard-response","258","422739","0.0-3.0-0.121","+","null","","","","","",""
"","1466","html-keyboard-response","259","424206","0.0-3.0-1.121","cápsula","n","n","noncog","word","S","exp","7"
"","null","html-keyboard-response","260","424708","0.0-3.0-0.122","+","null","","","","","",""
"","890","html-keyboard-response","261","425598","0.0-3.0-1.122","nome","n","n","cog","word","S","exp","4"
"","null","html-keyboard-response","262","426099","0.0-3.0-0.123","+","null","","","","","",""
"","1835","html-keyboard-response","263","427934","0.0-3.0-1.123","pega-pega","n","n","noncog","word","S","exp","8"
"","null","html-keyboard-response","264","428447","0.0-3.0-0.124","+","null","","","","","",""
"","1087","html-keyboard-response","265","429534","0.0-3.0-1.124","fasdas","n","null","noncog","pseudo","N","exp","null"
"","null","html-keyboard-response","266","430035","0.0-3.0-0.125","+","null","","","","","",""
"","1099","html-keyboard-response","267","431134","0.0-3.0-1.125","chato","s","n","noncog","word","S","exp","5"
"","null","html-keyboard-response","268","431636","0.0-3.0-0.126","+","null","","","","","",""
"","1801","html-keyboard-response","269","433438","0.0-3.0-1.126","ejerro","s","null","noncog","pseudo","N","exp","null"
"","null","html-keyboard-response","270","433940","0.0-3.0-0.127","+","null","","","","","",""
"","2330","html-keyboard-response","271","436270","0.0-3.0-1.127","terdia","s","null","noncog","pseudo","N","exp","null"
"","null","html-keyboard-response","272","436771","0.0-3.0-0.128","+","null","","","","","",""
"","762","html-keyboard-response","273","437534","0.0-3.0-1.128","motros","n","null","noncog","pseudo","N","exp","null"
"","null","html-keyboard-response","274","438036","0.0-3.0-0.129","+","null","","","","","",""
"","1098","html-keyboard-response","275","439134","0.0-3.0-1.129","bancada","s","n","noncog","word","S","exp","7"
"","null","html-keyboard-response","276","439636","0.0-3.0-0.130","+","null","","","","","",""
"","1145","html-keyboard-response","277","440782","0.0-3.0-1.130","trenos","n","null","noncog","pseudo","N","exp","null"
"","null","html-keyboard-response","278","441283","0.0-3.0-0.131","+","null","","","","","",""
"","2234","html-keyboard-response","279","443518","0.0-3.0-1.131","telafonir","n","null","noncog","pseudo","N","exp","null"
"","null","html-keyboard-response","280","444019","0.0-3.0-0.132","+","null","","","","","",""
"","1978","html-keyboard-response","281","445998","0.0-3.0-1.132","alfabeto","n","n","cog","word","S","exp","8"
"","null","html-keyboard-response","282","446499","0.0-3.0-0.133","+","null","","","","","",""
"","795","html-keyboard-response","283","447294","0.0-3.0-1.133","ensuas","n","null","noncog","pseudo","N","exp","null"
"","null","html-keyboard-response","284","447795","0.0-3.0-0.134","+","null","","","","","",""
"","7515","html-keyboard-response","285","455309","0.0-3.0-1.134","podilo","n","null","noncog","pseudo","N","exp","null"
"","null","html-keyboard-response","286","455811","0.0-3.0-0.135","+","null","","","","","",""
"","826","html-keyboard-response","287","456637","0.0-3.0-1.135","sanque","n","null","noncog","pseudo","N","exp","null"
"","null","html-keyboard-response","288","457138","0.0-3.0-0.136","+","null","","","","","",""
"","4923","html-keyboard-response","289","462061","0.0-3.0-1.136","grave","n","a","cog","word","S","exp","5"
"","null","html-keyboard-response","290","462567","0.0-3.0-0.137","+","null","","","","","",""
"","1446","html-keyboard-response","291","464013","0.0-3.0-1.137","fratos","n","null","noncog","pseudo","N","exp","null"
"","null","html-keyboard-response","292","464514","0.0-3.0-0.138","+","null","","","","","",""
"","3802","html-keyboard-response","293","468317","0.0-3.0-1.138","atapdar","n","null","noncog","pseudo","N","exp","null"
"","null","html-keyboard-response","294","468817","0.0-3.0-0.139","+","null","","","","","",""
"","892","html-keyboard-response","295","469709","0.0-3.0-1.139","aemaça","n","null","noncog","pseudo","N","exp","null"
"","null","html-keyboard-response","296","470211","0.0-3.0-0.140","+","null","","","","","",""
"","1114","html-keyboard-response","297","471325","0.0-3.0-1.140","livro","s","n","cog","word","S","exp","5"
"","null","html-keyboard-response","298","471826","0.0-3.0-0.141","+","null","","","","","",""
"","1323","html-keyboard-response","299","473149","0.0-3.0-1.141","macras","n","null","noncog","pseudo","N","exp","null"
"","null","html-keyboard-response","300","473650","0.0-3.0-0.142","+","null","","","","","",""
"","1450","html-keyboard-response","301","475101","0.0-3.0-1.142","ideisa","n","null","noncog","pseudo","N","exp","null"
"","null","html-keyboard-response","302","475602","0.0-3.0-0.143","+","null","","","","","",""
"","1754","html-keyboard-response","303","477357","0.0-3.0-1.143","espinho","n","n","noncog","word","S","exp","7"
"","null","html-keyboard-response","304","477858","0.0-3.0-0.144","+","null","","","","","",""
"","4123","html-keyboard-response","305","481981","0.0-3.0-1.144","deselegante","n","a","noncog","word","S","exp","11"
"","null","html-keyboard-response","306","482482","0.0-3.0-0.145","+","null","","","","","",""
"","2763","html-keyboard-response","307","485245","0.0-3.0-1.145","nevela","n","null","noncog","pseudo","N","exp","null"
"","null","html-keyboard-response","308","485746","0.0-3.0-0.146","+","null","","","","","",""
"","1498","html-keyboard-response","309","487245","0.0-3.0-1.146","garastia","n","null","noncog","pseudo","N","exp","null"
"","null","html-keyboard-response","310","487746","0.0-3.0-0.147","+","null","","","","","",""
"","970","html-keyboard-response","311","488717","0.0-3.0-1.147","barco","n","n","cog","word","S","exp","5"
"","null","html-keyboard-response","312","489218","0.0-3.0-0.148","+","null","","","","","",""
"","683","html-keyboard-response","313","489901","0.0-3.0-1.148","aparme","n","null","noncog","pseudo","N","exp","null"
"","null","html-keyboard-response","314","490402","0.0-3.0-0.149","+","null","","","","","",""
"","699","html-keyboard-response","315","491101","0.0-3.0-1.149","crutas","n","null","noncog","pseudo","N","exp","null"
"","null","html-keyboard-response","316","491602","0.0-3.0-0.150","+","null","","","","","",""
"","1627","html-keyboard-response","317","493229","0.0-3.0-1.150","salpicado","n","a","noncog","word","S","exp","9"
"","null","html-keyboard-response","318","493729","0.0-3.0-0.151","+","null","","","","","",""
"","1243","html-keyboard-response","319","494973","0.0-3.0-1.151","trair","n","v","cog","word","S","exp","5"
"","null","html-keyboard-response","320","495474","0.0-3.0-0.152","+","null","","","","","",""
"","795","html-keyboard-response","321","496269","0.0-3.0-1.152","liberal","s","a","cog","word","S","exp","7"
"","null","html-keyboard-response","322","496770","0.0-3.0-0.153","+","null","","","","","",""
"","827","html-keyboard-response","323","497597","0.0-3.0-1.153","enxerido","n","a","noncog","word","S","exp","8"
"","null","html-keyboard-response","324","498098","0.0-3.0-0.154","+","null","","","","","",""
"","1610","html-keyboard-response","325","499709","0.0-3.0-1.154","instruído","n","a","noncog","word","S","exp","9"
"","null","html-keyboard-response","326","500210","0.0-3.0-0.155","+","null","","","","","",""
"","699","html-keyboard-response","327","500909","0.0-3.0-1.155","nacional","s","a","cog","word","S","exp","8"
"","null","html-keyboard-response","328","501410","0.0-3.0-0.156","+","null","","","","","",""
"","763","html-keyboard-response","329","502173","0.0-3.0-1.156","país","s","n","noncog","word","S","exp","4"
"","null","html-keyboard-response","330","502674","0.0-3.0-0.157","+","null","","","","","",""
"","3067","html-keyboard-response","331","505741","0.0-3.0-1.157","hipócrita","s","a","noncog","word","S","exp","9"
"","null","html-keyboard-response","332","506242","0.0-3.0-0.158","+","null","","","","","",""
"","2122","html-keyboard-response","333","508365","0.0-3.0-1.158","nivelado","n","a","cog","word","S","exp","8"
"","null","html-keyboard-response","334","508869","0.0-3.0-0.159","+","null","","","","","",""
"","1847","html-keyboard-response","335","510717","0.0-3.0-1.159","comércio","n","n","noncog","word","S","exp","8"
"","null","html-keyboard-response","336","511218","0.0-3.0-0.160","+","null","","","","","",""
"","843","html-keyboard-response","337","512061","0.0-3.0-1.160","morno","n","a","noncog","word","S","exp","5"
"","null","html-keyboard-response","338","512563","0.0-3.0-0.161","+","null","","","","","",""
"","858","html-keyboard-response","339","513421","0.0-3.0-1.161","revear","s","null","noncog","pseudo","N","exp","null"
"","null","html-keyboard-response","340","513923","0.0-3.0-0.162","+","null","","","","","",""
"","938","html-keyboard-response","341","514861","0.0-3.0-1.162","afual","n","null","noncog","pseudo","N","exp","null"
"","null","html-keyboard-response","342","515362","0.0-3.0-0.163","+","null","","","","","",""
"","2187","html-keyboard-response","343","517549","0.0-3.0-1.163","memória","s","n","cog","word","S","exp","7"
"","null","html-keyboard-response","344","518050","0.0-3.0-0.164","+","null","","","","","",""
"","1402","html-keyboard-response","345","519453","0.0-3.0-1.164","usnado","n","null","noncog","pseudo","N","exp","null"
"","null","html-keyboard-response","346","519968","0.0-3.0-0.165","+","null","","","","","",""
"","1789","html-keyboard-response","347","521758","0.0-3.0-1.165","incomodar","n","v","noncog","word","S","exp","9"
"","null","html-keyboard-response","348","522259","0.0-3.0-0.166","+","null","","","","","",""
"","1242","html-keyboard-response","349","523501","0.0-3.0-1.166","pimada","s","null","noncog","pseudo","N","exp","null"
"","null","html-keyboard-response","350","524002","0.0-3.0-0.167","+","null","","","","","",""
"","731","html-keyboard-response","351","524733","0.0-3.0-1.167","frotes","n","null","noncog","pseudo","N","exp","null"
"","null","html-keyboard-response","352","525234","0.0-3.0-0.168","+","null","","","","","",""
"","843","html-keyboard-response","353","526077","0.0-3.0-1.168","verceja","n","null","noncog","pseudo","N","exp","null"
"","null","html-keyboard-response","354","526578","0.0-3.0-0.169","+","null","","","","","",""
"","1211","html-keyboard-response","355","527789","0.0-3.0-1.169","tio","s","n","noncog","word","S","exp","3"
"","null","html-keyboard-response","356","528291","0.0-3.0-0.170","+","null","","","","","",""
"","1642","html-keyboard-response","357","529933","0.0-3.0-1.170","fogão","s","n","noncog","word","S","exp","5"
"","null","html-keyboard-response","358","530441","0.0-3.0-0.171","+","null","","","","","",""
"","1347","html-keyboard-response","359","531789","0.0-3.0-1.171","traduzir","s","v","cog","word","S","exp","8"
"","null","html-keyboard-response","360","532290","0.0-3.0-0.172","+","null","","","","","",""
"","1419","html-keyboard-response","361","533709","0.0-3.0-1.172","faínas","n","null","noncog","pseudo","N","exp","null"
"","null","html-keyboard-response","362","534211","0.0-3.0-0.173","+","null","","","","","",""
"","1194","html-keyboard-response","363","535405","0.0-3.0-1.173","lorfaz","n","null","noncog","pseudo","N","exp","null"
"","null","html-keyboard-response","364","535906","0.0-3.0-0.174","+","null","","","","","",""
"","1083","html-keyboard-response","365","536990","0.0-3.0-1.174","motre","n","null","noncog","pseudo","N","exp","null"
"","null","html-keyboard-response","366","537491","0.0-3.0-0.175","+","null","","","","","",""
"","1402","html-keyboard-response","367","538893","0.0-3.0-1.175","verdade","n","n","cog","word","S","exp","7"
"","null","html-keyboard-response","368","539395","0.0-3.0-0.176","+","null","","","","","",""
"","906","html-keyboard-response","369","540301","0.0-3.0-1.176","grátis","n","a","cog","word","S","exp","6"
"","null","html-keyboard-response","370","540802","0.0-3.0-0.177","+","null","","","","","",""
"","1083","html-keyboard-response","371","541885","0.0-3.0-1.177","preferir","n","v","cog","word","S","exp","8"
"","null","html-keyboard-response","372","542387","0.0-3.0-0.178","+","null","","","","","",""
"","1034","html-keyboard-response","373","543421","0.0-3.0-1.178","francês","n","a","cog","word","S","exp","7"
"","null","html-keyboard-response","374","543924","0.0-3.0-0.179","+","null","","","","","",""
"","1097","html-keyboard-response","375","545021","0.0-3.0-1.179","melão","n","n","cog","word","S","exp","5"
"","null","html-keyboard-response","376","545522","0.0-3.0-0.180","+","null","","","","","",""
"","1947","html-keyboard-response","377","547469","0.0-3.0-1.180","âgnulo","n","null","noncog","pseudo","N","exp","null"
"","null","html-keyboard-response","378","547970","0.0-3.0-0.181","+","null","","","","","",""
"","1147","html-keyboard-response","379","549118","0.0-3.0-1.181","uçar","s","null","noncog","pseudo","N","exp","null"
"","null","html-keyboard-response","380","549618","0.0-3.0-0.182","+","null","","","","","",""
"","1050","html-keyboard-response","381","550670","0.0-3.0-1.182","lagoa","s","n","cog","word","S","exp","5"
"","null","html-keyboard-response","382","551171","0.0-3.0-0.183","+","null","","","","","",""
"","1754","html-keyboard-response","383","552925","0.0-3.0-1.183","cirado","n","null","noncog","pseudo","N","exp","null"
"","null","html-keyboard-response","384","553426","0.0-3.0-0.184","+","null","","","","","",""
"","1963","html-keyboard-response","385","555389","0.0-3.0-1.184","boreta","s","null","noncog","pseudo","N","exp","null"
"","null","html-keyboard-response","386","555890","0.0-3.0-0.185","+","null","","","","","",""
"","922","html-keyboard-response","387","556813","0.0-3.0-1.185","socorro","n","n","noncog","word","S","exp","7"
"","null","html-keyboard-response","388","557314","0.0-3.0-0.186","+","null","","","","","",""
"","1259","html-keyboard-response","389","558573","0.0-3.0-1.186","verde","n","a","noncog","word","S","exp","5"
"","null","html-keyboard-response","390","559078","0.0-3.0-0.187","+","null","","","","","",""
"","807","html-keyboard-response","391","559885","0.0-3.0-1.187","especial","n","a","cog","word","S","exp","8"
"","null","html-keyboard-response","392","560386","0.0-3.0-0.188","+","null","","","","","",""
"","955","html-keyboard-response","393","561341","0.0-3.0-1.188","berquesa","n","null","noncog","pseudo","N","exp","null"
"","null","html-keyboard-response","394","561843","0.0-3.0-0.189","+","null","","","","","",""
"","2138","html-keyboard-response","395","563981","0.0-3.0-1.189","promeção","n","null","noncog","pseudo","N","exp","null"
"","null","html-keyboard-response","396","564490","0.0-3.0-0.190","+","null","","","","","",""
"","1139","html-keyboard-response","397","565629","0.0-3.0-1.190","resmungar","n","v","noncog","word","S","exp","9"
"","null","html-keyboard-response","398","566131","0.0-3.0-0.191","+","null","","","","","",""
"","970","html-keyboard-response","399","567101","0.0-3.0-1.191","suipestar","n","null","noncog","pseudo","N","exp","null"
"","null","html-keyboard-response","400","567609","0.0-3.0-0.192","+","null","","","","","",""
"","884","html-keyboard-response","401","568493","0.0-3.0-1.192","prantal","n","null","noncog","pseudo","N","exp","null"
"","null","html-keyboard-response","402","568994","0.0-3.0-0.193","+","null","","","","","",""
"","1530","html-keyboard-response","403","570525","0.0-3.0-1.193","ocinto","s","null","noncog","pseudo","N","exp","null"
"","null","html-keyboard-response","404","571026","0.0-3.0-0.194","+","null","","","","","",""
"","7259","html-keyboard-response","405","578285","0.0-3.0-1.194","fusbão","s","null","noncog","pseudo","N","exp","null"
"","null","html-keyboard-response","406","578786","0.0-3.0-0.195","+","null","","","","","",""
"","1115","html-keyboard-response","407","579901","0.0-3.0-1.195","extravagante","n","a","cog","word","S","exp","12"
"","null","html-keyboard-response","408","580402","0.0-3.0-0.196","+","null","","","","","",""
"","1402","html-keyboard-response","409","581804","0.0-3.0-1.196","atrasar","n","v","noncog","word","S","exp","7"
"","null","html-keyboard-response","410","582305","0.0-3.0-0.197","+","null","","","","","",""
"","827","html-keyboard-response","411","583133","0.0-3.0-1.197","raspar","n","v","noncog","word","S","exp","6"
"","null","html-keyboard-response","412","583635","0.0-3.0-0.198","+","null","","","","","",""
"","857","html-keyboard-response","413","584493","0.0-3.0-1.198","carregar","s","v","noncog","word","S","exp","8"
"","null","html-keyboard-response","414","584993","0.0-3.0-0.199","+","null","","","","","",""
"","1547","html-keyboard-response","415","586541","0.0-3.0-1.199","pangos","n","null","noncog","pseudo","N","exp","null"
"","null","html-keyboard-response","416","587042","0.0-3.0-0.200","+","null","","","","","",""
"","827","html-keyboard-response","417","587869","0.0-3.0-1.200","cravo","s","n","noncog","word","S","exp","5"
"","null","html-keyboard-response","418","588369","0.0-3.0-0.201","+","null","","","","","",""
"","1371","html-keyboard-response","419","589741","0.0-3.0-1.201","distraído","s","a","cog","word","S","exp","9"
"","null","html-keyboard-response","420","590242","0.0-3.0-0.202","+","null","","","","","",""
"","1738","html-keyboard-response","421","591981","0.0-3.0-1.202","jastor","n","null","noncog","pseudo","N","exp","null"
"","null","html-keyboard-response","422","592482","0.0-3.0-0.203","+","null","","","","","",""
"","1274","html-keyboard-response","423","593757","0.0-3.0-1.203","promessa","n","n","noncog","word","S","exp","8"
"","null","html-keyboard-response","424","594257","0.0-3.0-0.204","+","null","","","","","",""
"","1291","html-keyboard-response","425","595549","0.0-3.0-1.204","manais","n","null","noncog","pseudo","N","exp","null"
"","null","html-keyboard-response","426","596049","0.0-3.0-0.205","+","null","","","","","",""
"","1147","html-keyboard-response","427","597197","0.0-3.0-1.205","filosofia","n","n","cog","word","S","exp","9"
"","null","html-keyboard-response","428","597698","0.0-3.0-0.206","+","null","","","","","",""
"","2122","html-keyboard-response","429","599821","0.0-3.0-1.206","agressivo","n","a","cog","word","S","exp","9"
"","null","html-keyboard-response","430","600322","0.0-3.0-0.207","+","null","","","","","",""
"","1098","html-keyboard-response","431","601421","0.0-3.0-1.207","propaganda","n","n","cog","word","S","exp","10"
"","null","html-keyboard-response","432","601922","0.0-3.0-0.208","+","null","","","","","",""
"","1002","html-keyboard-response","433","602924","0.0-3.0-1.208","viver","n","v","cog","word","S","exp","5"
"","null","html-keyboard-response","434","603425","0.0-3.0-0.209","+","null","","","","","",""
"","555","html-keyboard-response","435","603980","0.0-3.0-1.209","mua","n","null","noncog","pseudo","N","exp","null"
"","null","html-keyboard-response","436","604482","0.0-3.0-0.210","+","null","","","","","",""
"","634","html-keyboard-response","437","605117","0.0-3.0-1.210","selir","n","null","noncog","pseudo","N","exp","null"
"","null","html-keyboard-response","438","605617","0.0-3.0-0.211","+","null","","","","","",""
"","747","html-keyboard-response","439","606365","0.0-3.0-1.211","braras","n","null","noncog","pseudo","N","exp","null"
"","null","html-keyboard-response","440","606865","0.0-3.0-0.212","+","null","","","","","",""
"","2027","html-keyboard-response","441","608893","0.0-3.0-1.212","undivídio","n","null","noncog","pseudo","N","exp","null"
"","null","html-keyboard-response","442","609394","0.0-3.0-0.213","+","null","","","","","",""
"","2170","html-keyboard-response","443","611564","0.0-3.0-1.213","destino","s","n","cog","word","S","exp","7"
"","null","html-keyboard-response","444","612066","0.0-3.0-0.214","+","null","","","","","",""
"","1434","html-keyboard-response","445","613501","0.0-3.0-1.214","sintonizar","n","v","noncog","word","S","exp","10"
"","null","html-keyboard-response","446","614002","0.0-3.0-0.215","+","null","","","","","",""
"","1547","html-keyboard-response","447","615549","0.0-3.0-1.215","esperar","n","v","cog","word","S","exp","7"
"","null","html-keyboard-response","448","616050","0.0-3.0-0.216","+","null","","","","","",""
"","1162","html-keyboard-response","449","617212","0.0-3.0-1.216","areia","n","n","noncog","word","S","exp","5"
"","null","html-keyboard-response","450","617713","0.0-3.0-0.217","+","null","","","","","",""
"","1419","html-keyboard-response","451","619133","0.0-3.0-1.217","oricia","n","null","noncog","pseudo","N","exp","null"
"","null","html-keyboard-response","452","619634","0.0-3.0-0.218","+","null","","","","","",""
"","2218","html-keyboard-response","453","621853","0.0-3.0-1.218","senareta","n","null","noncog","pseudo","N","exp","null"
"","null","html-keyboard-response","454","622354","0.0-3.0-0.219","+","null","","","","","",""
"","1066","html-keyboard-response","455","623420","0.0-3.0-1.219","morija","n","null","noncog","pseudo","N","exp","null"
"","null","html-keyboard-response","456","623922","0.0-3.0-0.220","+","null","","","","","",""
"","938","html-keyboard-response","457","624860","0.0-3.0-1.220","cristal","n","n","cog","word","S","exp","7"
"","null","html-keyboard-response","458","625362","0.0-3.0-0.221","+","null","","","","","",""
"","730","html-keyboard-response","459","626093","0.0-3.0-1.221","gertas","n","null","noncog","pseudo","N","exp","null"
"","null","html-keyboard-response","460","626593","0.0-3.0-0.222","+","null","","","","","",""
"","2698","html-keyboard-response","461","629292","0.0-3.0-1.222","bachir","n","null","noncog","pseudo","N","exp","null"
"","null","html-keyboard-response","462","629795","0.0-3.0-0.223","+","null","","","","","",""
"","3513","html-keyboard-response","463","633309","0.0-3.0-1.223","dobradiça","n","n","noncog","word","S","exp","9"
"","null","html-keyboard-response","464","633809","0.0-3.0-0.224","+","null","","","","","",""
"","939","html-keyboard-response","465","634748","0.0-3.0-1.224","costra","n","null","noncog","pseudo","N","exp","null"
"","null","html-keyboard-response","466","635249","0.0-3.0-0.225","+","null","","","","","",""
"","795","html-keyboard-response","467","636045","0.0-3.0-1.225","açúcar","s","n","noncog","word","S","exp","6"
"","null","html-keyboard-response","468","636545","0.0-3.0-0.226","+","null","","","","","",""
"","811","html-keyboard-response","469","637356","0.0-3.0-1.226","disbrituir","s","null","noncog","pseudo","N","exp","null"
"","null","html-keyboard-response","470","637857","0.0-3.0-0.227","+","null","","","","","",""
"","1355","html-keyboard-response","471","639212","0.0-3.0-1.227","usfiga","n","null","noncog","pseudo","N","exp","null"
"","null","html-keyboard-response","472","639713","0.0-3.0-0.228","+","null","","","","","",""
"","1003","html-keyboard-response","473","640716","0.0-3.0-1.228","perbas","s","null","noncog","pseudo","N","exp","null"
"","null","html-keyboard-response","474","641217","0.0-3.0-0.229","+","null","","","","","",""
"","4475","html-keyboard-response","475","645692","0.0-3.0-1.229","rédesa","n","null","noncog","pseudo","N","exp","null"
"","null","html-keyboard-response","476","646194","0.0-3.0-0.230","+","null","","","","","",""
"","1018","html-keyboard-response","477","647212","0.0-3.0-1.230","montanha","n","n","cog","word","S","exp","8"
"","null","html-keyboard-response","478","647713","0.0-3.0-0.231","+","null","","","","","",""
"","2219","html-keyboard-response","479","649932","0.0-3.0-1.231","alpica","n","null","noncog","pseudo","N","exp","null"
"","null","html-keyboard-response","480","650441","0.0-3.0-0.232","+","null","","","","","",""
"","2915","html-keyboard-response","481","653356","0.0-3.0-1.232","parceter","n","null","noncog","pseudo","N","exp","null"
"","null","html-keyboard-response","482","653858","0.0-3.0-0.233","+","null","","","","","",""
"","1162","html-keyboard-response","483","655020","0.0-3.0-1.233","matinal","n","a","cog","word","S","exp","7"
"","null","html-keyboard-response","484","655521","0.0-3.0-0.234","+","null","","","","","",""
"","1018","html-keyboard-response","485","656540","0.0-3.0-1.234","pitada","n","n","noncog","word","S","exp","6"
"","null","html-keyboard-response","486","657042","0.0-3.0-0.235","+","null","","","","","",""
"","938","html-keyboard-response","487","657980","0.0-3.0-1.235","hedoru","s","null","noncog","pseudo","N","exp","null"
"","null","html-keyboard-response","488","658481","0.0-3.0-0.236","+","null","","","","","",""
"","858","html-keyboard-response","489","659340","0.0-3.0-1.236","abieso","n","null","noncog","pseudo","N","exp","null"
"","null","html-keyboard-response","490","659842","0.0-3.0-0.237","+","null","","","","","",""
"","1194","html-keyboard-response","491","661036","0.0-3.0-1.237","lagras","n","null","noncog","pseudo","N","exp","null"
"","null","html-keyboard-response","492","661537","0.0-3.0-0.238","+","null","","","","","",""
"","779","html-keyboard-response","493","662316","0.0-3.0-1.238","tronca","n","null","noncog","pseudo","N","exp","null"
"","null","html-keyboard-response","494","662817","0.0-3.0-0.239","+","null","","","","","",""
"","1403","html-keyboard-response","495","664220","0.0-3.0-1.239","cenada","s","null","noncog","pseudo","N","exp","null"
