[
	{
		"view_history": [
			{
				"page_index": 0,
				"viewing_time": 1570
			}
		],
		"rt": 1570,
		"trial_type": "instructions",
		"trial_index": 0,
		"time_elapsed": 1571,
		"internal_node_id": "0.0-0.0"
	},
	{
		"rt": 4618,
		"response": {
			"tcle": "Concordo voluntariamente em participar da pesquisa conforme texto acima."
		},
		"question_order": [
			0
		],
		"trial_type": "survey-multi-choice",
		"trial_index": 1,
		"time_elapsed": 6395,
		"internal_node_id": "0.0-1.0"
	},
	{
		"rt": 9948,
		"response": {
			"email": "XXHX3"
		},
		"trial_type": "survey-text",
		"trial_index": 2,
		"time_elapsed": 17427,
		"internal_node_id": "0.0-2.0"
	}
]