"view_history","rt","trial_type","trial_index","time_elapsed","internal_node_id","stimulus","response","trial_part","word","question","answer","trial","accuracy"
"[{""page_index"":0,""viewing_time"":12412},{""page_index"":1,""viewing_time"":4648}]","17060","instructions","0","17061","0.0-0.0","","","","","","","",""
"","null","html-keyboard-response","1","18169","0.0-1.0-0.0-0.0","<span style= ""font-size:30px; font-family: monospace"">+</span>","null","fixation","","","","",""
"","95309","audio-keyboard-response","2","113748","0.0-1.0-1.0","../audio/prac-question-1-1.mp3"," ","","O","","","",""
"","1349","audio-keyboard-response","3","115715","0.0-1.0-1.1","../audio/prac-question-1-2.mp3"," ","","dia","","","",""
"","1389","audio-keyboard-response","4","117379","0.0-1.0-1.2","../audio/prac-question-1-3.mp3"," ","","estará","","","",""
"","1440","audio-keyboard-response","5","119091","0.0-1.0-1.3","../audio/prac-question-1-4.mp3"," ","","cheio","","","",""
"","1051","audio-keyboard-response","6","120403","0.0-1.0-1.4","../audio/prac-question-1-5.mp3"," ","","de","","","",""
"","1269","audio-keyboard-response","7","121939","0.0-1.0-1.5","../audio/prac-question-1-6.mp3"," ","","nuvens","","","",""
"","992","audio-keyboard-response","8","123203","0.0-1.0-1.6","../audio/prac-question-1-7.mp3"," ","","hoje.","","","",""
"","null","html-keyboard-response","9","124469","0.0-1.0-0.7-0.7","<span style= ""font-size:30px; font-family: monospace"">+</span>","null","fixation","","","","",""
"","872","audio-keyboard-response","10","125603","0.0-1.0-1.7","../audio/prac-question-2-1.mp3"," ","","A","","","",""
"","1499","audio-keyboard-response","11","127379","0.0-1.0-1.8","../audio/prac-question-2-2.mp3"," ","","caneca","","","",""
"","1981","audio-keyboard-response","12","129635","0.0-1.0-1.9","../audio/prac-question-2-3.mp3"," ","","colorida","","","",""
"","1240","audio-keyboard-response","13","131155","0.0-1.0-1.10","../audio/prac-question-2-4.mp3"," ","","caiu","","","",""
"","760","audio-keyboard-response","14","132179","0.0-1.0-1.11","../audio/prac-question-2-5.mp3"," ","","da","","","",""
"","1472","audio-keyboard-response","15","133923","0.0-1.0-1.12","../audio/prac-question-2-6.mp3"," ","","mesa","","","",""
"","1160","audio-keyboard-response","16","135363","0.0-1.0-1.13","../audio/prac-question-2-7.mp3"," ","","de","","","",""
"","1619","audio-keyboard-response","17","137251","0.0-1.0-1.14","../audio/prac-question-2-8.mp3"," ","","jantar.","","","",""
"","8914","html-keyboard-response","18","146419","0.0-1.0-2.14-0.14","<span style=""font-size:25px; font-family: monospace"">A caneca era colorida?</span>","s","","","A caneca era colorida?","null","prac-sent","false"
"[{""page_index"":0,""viewing_time"":13873}]","13874","instructions","19","160804","0.0-2.0","","","","","","","",""
"","null","html-keyboard-response","20","161906","0.0-3.0-0.0-0.0","<span style= ""font-size:30px; font-family: monospace"">+</span>","null","fixation","","","","",""
"","1032","audio-keyboard-response","21","163203","0.0-3.0-1.0","../audio/53-1-fem.mp3"," ","","O","","","",""
"","1320","audio-keyboard-response","22","164803","0.0-3.0-1.1","../audio/53-2-fem.mp3"," ","","médico","","","",""
"","1059","audio-keyboard-response","23","166131","0.0-3.0-1.2","../audio/53-3-fem.mp3"," ","","foi","","","",""
"","1541","audio-keyboard-response","24","167955","0.0-3.0-1.3","../audio/53-4-fem.mp3"," ","","bastante","","","",""
"","1549","audio-keyboard-response","25","169779","0.0-3.0-1.4","../audio/53-5-fem.mp3"," ","","preciso","","","",""
"","1461","audio-keyboard-response","26","171523","0.0-3.0-1.5","../audio/53-6-fem.mp3"," ","","durante","","","",""
"","979","audio-keyboard-response","27","172771","0.0-3.0-1.6","../audio/53-7-fem.mp3"," ","","a","","","",""
"","1808","audio-keyboard-response","28","174851","0.0-3.0-1.7","../audio/53-8-fem.mp3"," ","","cirurgia.","","","",""
"","null","html-keyboard-response","29","176116","0.0-3.0-0.8-0.8","<span style= ""font-size:30px; font-family: monospace"">+</span>","null","fixation","","","","",""
"","1549","audio-keyboard-response","30","177955","0.0-3.0-1.8","../audio/52-1-masc.mp3"," ","","Às","","","",""
"","1109","audio-keyboard-response","31","179331","0.0-3.0-1.9","../audio/52-2-masc.mp3"," ","","vezes","","","",""
"","2891","audio-keyboard-response","32","182483","0.0-3.0-1.10","../audio/52-3-masc.mp3"," ","","eu","","","",""
"","1469","audio-keyboard-response","33","184211","0.0-3.0-1.11","../audio/52-4-masc.mp3"," ","","tenho","","","",""
"","1099","audio-keyboard-response","34","185587","0.0-3.0-1.12","../audio/52-5-masc.mp3"," ","","azia","","","",""
"","920","audio-keyboard-response","35","186771","0.0-3.0-1.13","../audio/52-6-masc.mp3"," ","","depois","","","",""
"","669","audio-keyboard-response","36","187715","0.0-3.0-1.14","../audio/52-7-masc.mp3"," ","","da","","","",""
"","1520","audio-keyboard-response","37","189507","0.0-3.0-1.15","../audio/52-8-masc.mp3"," ","","janta.","","","",""
"","null","html-keyboard-response","38","190784","0.0-3.0-0.16-0.16","<span style= ""font-size:30px; font-family: monospace"">+</span>","null","fixation","","","","",""
"","1280","audio-keyboard-response","39","192355","0.0-3.0-1.16","../audio/51-1-masc.mp3"," ","","Suco","","","",""
"","949","audio-keyboard-response","40","193571","0.0-3.0-1.17","../audio/51-2-masc.mp3"," ","","de","","","",""
"","1379","audio-keyboard-response","41","195219","0.0-3.0-1.18","../audio/51-3-masc.mp3"," ","","acerola","","","",""
"","691","audio-keyboard-response","42","196179","0.0-3.0-1.19","../audio/51-4-masc.mp3"," ","","é","","","",""
"","1581","audio-keyboard-response","43","198035","0.0-3.0-1.20","../audio/51-5-masc.mp3"," ","","azedo","","","",""
"","659","audio-keyboard-response","44","198979","0.0-3.0-1.21","../audio/51-6-masc.mp3"," ","","e","","","",""
"","1320","audio-keyboard-response","45","200563","0.0-3.0-1.22","../audio/51-7-masc.mp3"," ","","até","","","",""
"","2680","audio-keyboard-response","46","203523","0.0-3.0-1.23","../audio/51-8-masc.mp3"," ","","barato.","","","",""
"","null","html-keyboard-response","47","204799","0.0-3.0-0.24-0.24","<span style= ""font-size:30px; font-family: monospace"">+</span>","null","fixation","","","","",""
"","1848","audio-keyboard-response","48","206931","0.0-3.0-1.24","../audio/54-1-masc.mp3"," ","","Estou","","","",""
"","1488","audio-keyboard-response","49","208691","0.0-3.0-1.25","../audio/54-2-masc.mp3"," ","","com","","","",""
"","1019","audio-keyboard-response","50","209987","0.0-3.0-1.26","../audio/54-3-masc.mp3"," ","","medo","","","",""
"","680","audio-keyboard-response","51","210931","0.0-3.0-1.27","../audio/54-4-masc.mp3"," ","","da","","","",""
"","1469","audio-keyboard-response","52","212675","0.0-3.0-1.28","../audio/54-5-masc.mp3"," ","","atual","","","",""
"","2411","audio-keyboard-response","53","215363","0.0-3.0-1.29","../audio/54-6-masc.mp3"," ","","organização","","","",""
"","739","audio-keyboard-response","54","216387","0.0-3.0-1.30","../audio/54-7-masc.mp3"," ","","do","","","",""
"","1781","audio-keyboard-response","55","218435","0.0-3.0-1.31","../audio/54-8-masc.mp3"," ","","país.","","","",""
"","null","html-keyboard-response","56","219706","0.0-3.0-0.32-0.32","<span style= ""font-size:30px; font-family: monospace"">+</span>","null","fixation","","","","",""
"","1861","audio-keyboard-response","57","221843","0.0-3.0-1.32","../audio/55-1-masc.mp3"," ","","O","","","",""
"","2008","audio-keyboard-response","58","224131","0.0-3.0-1.33","../audio/55-2-masc.mp3"," ","","insulto","","","",""
"","1680","audio-keyboard-response","59","226083","0.0-3.0-1.34","../audio/55-3-masc.mp3"," ","","recente","","","",""
"","1109","audio-keyboard-response","60","227459","0.0-3.0-1.35","../audio/55-4-masc.mp3"," ","","causou","","","",""
"","1200","audio-keyboard-response","61","228931","0.0-3.0-1.36","../audio/55-5-masc.mp3"," ","","indignação","","","",""
"","848","audio-keyboard-response","62","230051","0.0-3.0-1.37","../audio/55-6-masc.mp3"," ","","em","","","",""
"","771","audio-keyboard-response","63","231107","0.0-3.0-1.38","../audio/55-7-masc.mp3"," ","","todos.","","","",""
"","10663","html-keyboard-response","64","242035","0.0-3.0-2.38-0.38","<span style=""font-size:25px; font-family: monospace"">O insulto causou calmaria?</span>","s","","","O insulto causou calmaria?","null","exp-sent","false"
"","null","html-keyboard-response","65","243539","0.0-3.0-0.39-0.39","<span style= ""font-size:30px; font-family: monospace"">+</span>","null","fixation","","","","",""
"","1171","audio-keyboard-response","66","244995","0.0-3.0-1.39","../audio/09-1-masc.mp3"," ","","O","","","",""
"","1739","audio-keyboard-response","67","247011","0.0-3.0-1.40","../audio/09-2-masc.mp3"," ","","rapaz","","","",""
"","1139","audio-keyboard-response","68","248419","0.0-3.0-1.41","../audio/09-3-masc.mp3"," ","","limpou","","","",""
"","560","audio-keyboard-response","69","249251","0.0-3.0-1.42","../audio/09-4-masc.mp3"," ","","o","","","",""
"","1328","audio-keyboard-response","70","250852","0.0-3.0-1.43","../audio/09-5-masc.mp3"," ","","terreno","","","",""
"","880","audio-keyboard-response","71","252003","0.0-3.0-1.44","../audio/09-6-masc.mp3"," ","","com","","","",""
"","931","audio-keyboard-response","72","253203","0.0-3.0-1.45","../audio/09-7-masc.mp3"," ","","uma","","","",""
"","1139","audio-keyboard-response","73","254627","0.0-3.0-1.46","../audio/09-8-masc.mp3"," ","","pá.","","","",""
"","null","html-keyboard-response","74","255884","0.0-3.0-0.47-0.47","<span style= ""font-size:30px; font-family: monospace"">+</span>","null","fixation","","","","",""
"","2341","audio-keyboard-response","75","258515","0.0-3.0-1.47","../audio/06-1-masc.mp3"," ","","Ouvimos","","","",""
"","1189","audio-keyboard-response","76","259987","0.0-3.0-1.48","../audio/06-2-masc.mp3"," ","","a","","","",""
"","1192","audio-keyboard-response","77","261443","0.0-3.0-1.49","../audio/06-3-masc.mp3"," ","","fala","","","",""
"","829","audio-keyboard-response","78","262547","0.0-3.0-1.50","../audio/06-4-masc.mp3"," ","","do","","","",""
"","1320","audio-keyboard-response","79","264147","0.0-3.0-1.51","../audio/06-5-masc.mp3"," ","","profeta","","","",""
"","792","audio-keyboard-response","80","265203","0.0-3.0-1.52","../audio/06-6-masc.mp3"," ","","no","","","",""
"","1480","audio-keyboard-response","81","266963","0.0-3.0-1.53","../audio/06-7-masc.mp3"," ","","púlpito","","","",""
"","1229","audio-keyboard-response","82","268467","0.0-3.0-1.54","../audio/06-8-masc.mp3"," ","","da","","","",""
"","1469","audio-keyboard-response","83","270211","0.0-3.0-1.55","../audio/06-9-masc.mp3"," ","","igreja.","","","",""
"","null","html-keyboard-response","84","271485","0.0-3.0-0.56-0.56","<span style= ""font-size:30px; font-family: monospace"">+</span>","null","fixation","","","","",""
"","1272","audio-keyboard-response","85","273043","0.0-3.0-1.56","../audio/08-1-fem.mp3"," ","","A","","","",""
"","1160","audio-keyboard-response","86","274483","0.0-3.0-1.57","../audio/08-2-fem.mp3"," ","","receita","","","",""
"","949","audio-keyboard-response","87","275699","0.0-3.0-1.58","../audio/08-3-fem.mp3"," ","","pede","","","",""
"","731","audio-keyboard-response","88","276707","0.0-3.0-1.59","../audio/08-4-fem.mp3"," ","","um","","","",""
"","1629","audio-keyboard-response","89","278611","0.0-3.0-1.60","../audio/08-5-fem.mp3"," ","","litro","","","",""
"","699","audio-keyboard-response","90","279587","0.0-3.0-1.61","../audio/08-6-fem.mp3"," ","","de","","","",""
"","1181","audio-keyboard-response","91","281043","0.0-3.0-1.62","../audio/08-7-fem.mp3"," ","","leite","","","",""
"","9989","audio-keyboard-response","92","291299","0.0-3.0-1.63","../audio/08-8-fem.mp3"," ","","integral.","","","",""
"","null","html-keyboard-response","93","292558","0.0-3.0-0.64-0.64","<span style= ""font-size:30px; font-family: monospace"">+</span>","null","fixation","","","","",""
"","1160","audio-keyboard-response","94","294003","0.0-3.0-1.64","../audio/07-1-masc.mp3"," ","","Meu","","","",""
"","829","audio-keyboard-response","95","295107","0.0-3.0-1.65","../audio/07-2-masc.mp3"," ","","filho","","","",""
"","720","audio-keyboard-response","96","296115","0.0-3.0-1.66","../audio/07-3-masc.mp3"," ","","é","","","",""
"","869","audio-keyboard-response","97","297251","0.0-3.0-1.67","../audio/07-4-masc.mp3"," ","","muito","","","",""
"","1008","audio-keyboard-response","98","298531","0.0-3.0-1.68","../audio/07-5-masc.mp3"," ","","responsável","","","",""
"","1109","audio-keyboard-response","99","299907","0.0-3.0-1.69","../audio/07-6-masc.mp3"," ","","nos","","","",""
"","1091","audio-keyboard-response","100","301283","0.0-3.0-1.70","../audio/07-7-masc.mp3"," ","","estudos.","","","",""
"","null","html-keyboard-response","101","302558","0.0-3.0-0.71-0.71","<span style= ""font-size:30px; font-family: monospace"">+</span>","null","fixation","","","","",""
"","629","audio-keyboard-response","102","303475","0.0-3.0-1.71","../audio/10-1-masc.mp3"," ","","O","","","",""
"","840","audio-keyboard-response","103","304579","0.0-3.0-1.72","../audio/10-2-masc.mp3"," ","","pássaro","","","",""
"","941","audio-keyboard-response","104","305795","0.0-3.0-1.73","../audio/10-3-masc.mp3"," ","","azul","","","",""
"","1069","audio-keyboard-response","105","307139","0.0-3.0-1.74","../audio/10-4-masc.mp3"," ","","estava","","","",""
"","651","audio-keyboard-response","106","308067","0.0-3.0-1.75","../audio/10-5-masc.mp3"," ","","vivo","","","",""
"","669","audio-keyboard-response","107","309010","0.0-3.0-1.76","../audio/10-6-masc.mp3"," ","","e","","","",""
"","800","audio-keyboard-response","108","310083","0.0-3.0-1.77","../audio/10-7-masc.mp3"," ","","em","","","",""
"","1619","audio-keyboard-response","109","311987","0.0-3.0-1.78","../audio/10-8-masc.mp3"," ","","segurança.","","","",""
"","4777","html-keyboard-response","110","317027","0.0-3.0-2.78-0.78","<span style=""font-size:25px; font-family: monospace"">O pássaro vermelho estava em segurança?</span>","s","","","O pássaro vermelho estava em segurança?","null","exp-sent","false"
"","null","html-keyboard-response","111","318537","0.0-3.0-0.79-0.79","<span style= ""font-size:30px; font-family: monospace"">+</span>","null","fixation","","","","",""
"","1640","audio-keyboard-response","112","320466","0.0-3.0-1.79","../audio/23-1-masc.mp3"," ","","Português","","","",""
"","531","audio-keyboard-response","113","321283","0.0-3.0-1.80","../audio/23-2-masc.mp3"," ","","é","","","",""
"","680","audio-keyboard-response","114","322243","0.0-3.0-1.81","../audio/23-3-masc.mp3"," ","","um","","","",""
"","1349","audio-keyboard-response","115","323859","0.0-3.0-1.82","../audio/23-4-masc.mp3"," ","","assunto","","","",""
"","2160","audio-keyboard-response","116","326291","0.0-3.0-1.83","../audio/23-5-masc.mp3"," ","","elementar","","","",""
"","1160","audio-keyboard-response","117","327731","0.0-3.0-1.84","../audio/23-6-masc.mp3"," ","","para","","","",""
"","1099","audio-keyboard-response","118","329107","0.0-3.0-1.85","../audio/23-7-masc.mp3"," ","","os","","","",""
"","1261","audio-keyboard-response","119","330643","0.0-3.0-1.86","../audio/23-8-masc.mp3"," ","","alunos.","","","",""
"","null","html-keyboard-response","120","331900","0.0-3.0-0.87-0.87","<span style= ""font-size:30px; font-family: monospace"">+</span>","null","fixation","","","","",""
"","920","audio-keyboard-response","121","333107","0.0-3.0-1.87","../audio/22-1-masc.mp3"," ","","Eu","","","",""
"","1469","audio-keyboard-response","122","334850","0.0-3.0-1.88","../audio/22-2-masc.mp3"," ","","detesto","","","",""
"","1229","audio-keyboard-response","123","336354","0.0-3.0-1.89","../audio/22-3-masc.mp3"," ","","fumaça","","","",""
"","840","audio-keyboard-response","124","337474","0.0-3.0-1.90","../audio/22-4-masc.mp3"," ","","de","","","",""
"","1269","audio-keyboard-response","125","339027","0.0-3.0-1.91","../audio/22-5-masc.mp3"," ","","cachimbo","","","",""
"","669","audio-keyboard-response","126","339971","0.0-3.0-1.92","../audio/22-6-masc.mp3"," ","","e","","","",""
"","680","audio-keyboard-response","127","340914","0.0-3.0-1.93","../audio/22-7-masc.mp3"," ","","de","","","",""
"","1829","audio-keyboard-response","128","343026","0.0-3.0-1.94","../audio/22-8-masc.mp3"," ","","cigarro.","","","",""
"","null","html-keyboard-response","129","344292","0.0-3.0-0.95-0.95","<span style= ""font-size:30px; font-family: monospace"">+</span>","null","fixation","","","","",""
"","1011","audio-keyboard-response","130","345586","0.0-3.0-1.95","../audio/24-1-fem.mp3"," ","","As","","","",""
"","960","audio-keyboard-response","131","346834","0.0-3.0-1.96","../audio/24-2-fem.mp3"," ","","crianças","","","",""
"","709","audio-keyboard-response","132","347827","0.0-3.0-1.97","../audio/24-3-fem.mp3"," ","","vão","","","",""
"","712","audio-keyboard-response","133","348802","0.0-3.0-1.98","../audio/24-4-fem.mp3"," ","","ao","","","",""
"","1229","audio-keyboard-response","134","350307","0.0-3.0-1.99","../audio/24-5-fem.mp3"," ","","cinema","","","",""
"","691","audio-keyboard-response","135","351282","0.0-3.0-1.100","../audio/24-6-fem.mp3"," ","","mais","","","",""
"","3520","audio-keyboard-response","136","355058","0.0-3.0-1.101","../audio/24-7-fem.mp3"," ","","tarde.","","","",""
"","null","html-keyboard-response","137","356323","0.0-3.0-0.102-0.102","<span style= ""font-size:30px; font-family: monospace"">+</span>","null","fixation","","","","",""
"","1560","audio-keyboard-response","138","358162","0.0-3.0-1.102","../audio/21-1-masc.mp3"," ","","Precisamos","","","",""
"","669","audio-keyboard-response","139","359106","0.0-3.0-1.103","../audio/21-2-masc.mp3"," ","","de","","","",""
"","1349","audio-keyboard-response","140","360738","0.0-3.0-1.104","../audio/21-3-masc.mp3"," ","","paciência","","","",""
"","720","audio-keyboard-response","141","361730","0.0-3.0-1.105","../audio/21-4-masc.mp3"," ","","e","","","",""
"","1139","audio-keyboard-response","142","363137","0.0-3.0-1.106","../audio/21-5-masc.mp3"," ","","bondade","","","",""
"","571","audio-keyboard-response","143","363985","0.0-3.0-1.107","../audio/21-6-masc.mp3"," ","","para","","","",""
"","2472","audio-keyboard-response","144","366721","0.0-3.0-1.108","../audio/21-7-masc.mp3"," ","","um","","","",""
"","1600","audio-keyboard-response","145","368593","0.0-3.0-1.109","../audio/21-8-masc.mp3"," ","","mundo","","","",""
"","1629","audio-keyboard-response","146","370497","0.0-3.0-1.110","../audio/21-9-masc.mp3"," ","","melhor.","","","",""
"","null","html-keyboard-response","147","371771","0.0-3.0-0.111-0.111","<span style= ""font-size:30px; font-family: monospace"">+</span>","null","fixation","","","","",""
"","1531","audio-keyboard-response","148","373586","0.0-3.0-1.111","../audio/25-1-masc.mp3"," ","","Ela","","","",""
"","1051","audio-keyboard-response","149","374914","0.0-3.0-1.112","../audio/25-2-masc.mp3"," ","","faz","","","",""
"","1301","audio-keyboard-response","150","376481","0.0-3.0-1.113","../audio/25-3-masc.mp3"," ","","tanto","","","",""
"","1069","audio-keyboard-response","151","377826","0.0-3.0-1.114","../audio/25-4-masc.mp3"," ","","cabelo","","","",""
"","829","audio-keyboard-response","152","378929","0.0-3.0-1.115","../audio/25-5-masc.mp3"," ","","liso","","","",""
"","779","audio-keyboard-response","153","379985","0.0-3.0-1.116","../audio/25-6-masc.mp3"," ","","quanto","","","",""
"","1360","audio-keyboard-response","154","381617","0.0-3.0-1.117","../audio/25-7-masc.mp3"," ","","cacheado.","","","",""
"","6259","html-keyboard-response","155","388130","0.0-3.0-2.117-0.117","<span style=""font-size:25px; font-family: monospace"">Ela só faz cabelo cacheado?</span>","s","","","Ela só faz cabelo cacheado?","null","exp-sent","false"
"","null","html-keyboard-response","156","389661","0.0-3.0-0.118-0.118","<span style= ""font-size:30px; font-family: monospace"">+</span>","null","fixation","","","","",""
"","701","audio-keyboard-response","157","390642","0.0-3.0-1.118","../audio/72-1-fem.mp3"," ","","A","","","",""
"","1440","audio-keyboard-response","158","392353","0.0-3.0-1.119","../audio/72-2-fem.mp3"," ","","vencedora","","","",""
"","1019","audio-keyboard-response","159","393649","0.0-3.0-1.120","../audio/72-3-fem.mp3"," ","","recebeu","","","",""
"","739","audio-keyboard-response","160","394658","0.0-3.0-1.121","../audio/72-4-fem.mp3"," ","","um","","","",""
"","811","audio-keyboard-response","161","395745","0.0-3.0-1.122","../audio/72-5-fem.mp3"," ","","prêmio","","","",""
"","571","audio-keyboard-response","162","396593","0.0-3.0-1.123","../audio/72-6-fem.mp3"," ","","em","","","",""
"","1069","audio-keyboard-response","163","397937","0.0-3.0-1.124","../audio/72-7-fem.mp3"," ","","dinheiro.","","","",""
"","null","html-keyboard-response","164","399205","0.0-3.0-0.125-0.125","<span style= ""font-size:30px; font-family: monospace"">+</span>","null","fixation","","","","",""
"","728","audio-keyboard-response","165","400209","0.0-3.0-1.125","../audio/73-1-masc.mp3"," ","","O","","","",""
"","880","audio-keyboard-response","166","401361","0.0-3.0-1.126","../audio/73-2-masc.mp3"," ","","cliente","","","",""
"","629","audio-keyboard-response","167","402257","0.0-3.0-1.127","../audio/73-3-masc.mp3"," ","","era","","","",""
"","771","audio-keyboard-response","168","403297","0.0-3.0-1.128","../audio/73-4-masc.mp3"," ","","um","","","",""
"","2069","audio-keyboard-response","169","405649","0.0-3.0-1.129","../audio/73-5-masc.mp3"," ","","homem","","","",""
"","739","audio-keyboard-response","170","406657","0.0-3.0-1.130","../audio/73-6-masc.mp3"," ","","muito","","","",""
"","1611","audio-keyboard-response","171","408545","0.0-3.0-1.131","../audio/73-7-masc.mp3"," ","","educado.","","","",""
"","null","html-keyboard-response","172","409821","0.0-3.0-0.132-0.132","<span style= ""font-size:30px; font-family: monospace"">+</span>","null","fixation","","","","",""
"","1261","audio-keyboard-response","173","411361","0.0-3.0-1.132","../audio/71-1-fem.mp3"," ","","Minhas","","","",""
"","1219","audio-keyboard-response","174","412849","0.0-3.0-1.133","../audio/71-2-fem.mp3"," ","","comidas","","","",""
"","1440","audio-keyboard-response","175","414561","0.0-3.0-1.134","../audio/71-3-fem.mp3"," ","","favoritas","","","",""
"","1091","audio-keyboard-response","176","415921","0.0-3.0-1.135","../audio/71-4-fem.mp3"," ","","são","","","",""
"","2451","audio-keyboard-response","177","418641","0.0-3.0-1.136","../audio/71-5-fem.mp3"," ","","morango","","","",""
"","1160","audio-keyboard-response","178","420081","0.0-3.0-1.137","../audio/71-6-fem.mp3"," ","","e","","","",""
"","2019","audio-keyboard-response","179","422369","0.0-3.0-1.138","../audio/71-7-fem.mp3"," ","","uva.","","","",""
"","null","html-keyboard-response","180","423637","0.0-3.0-0.139-0.139","<span style= ""font-size:30px; font-family: monospace"">+</span>","null","fixation","","","","",""
"","2101","audio-keyboard-response","181","426002","0.0-3.0-1.139","../audio/74-1-fem.mp3"," ","","Este","","","",""
"","1440","audio-keyboard-response","182","427714","0.0-3.0-1.140","../audio/74-2-fem.mp3"," ","","emprego","","","",""
"","709","audio-keyboard-response","183","428706","0.0-3.0-1.141","../audio/74-3-fem.mp3"," ","","é","","","",""
"","952","audio-keyboard-response","184","429922","0.0-3.0-1.142","../audio/74-4-fem.mp3"," ","","muito","","","",""
"","2371","audio-keyboard-response","185","432561","0.0-3.0-1.143","../audio/74-5-fem.mp3"," ","","cansativo","","","",""
"","640","audio-keyboard-response","186","433474","0.0-3.0-1.144","../audio/74-6-fem.mp3"," ","","a","","","",""
"","1080","audio-keyboard-response","187","434834","0.0-3.0-1.145","../audio/74-7-fem.mp3"," ","","longo","","","",""
"","768","audio-keyboard-response","188","435890","0.0-3.0-1.146","../audio/74-8-fem.mp3"," ","","prazo.","","","",""
"","null","html-keyboard-response","189","437166","0.0-3.0-0.147-0.147","<span style= ""font-size:30px; font-family: monospace"">+</span>","null","fixation","","","","",""
"","731","audio-keyboard-response","190","438178","0.0-3.0-1.147","../audio/75-1-masc.mp3"," ","","Só","","","",""
"","949","audio-keyboard-response","191","439394","0.0-3.0-1.148","../audio/75-2-masc.mp3"," ","","existe","","","",""
"","680","audio-keyboard-response","192","440337","0.0-3.0-1.149","../audio/75-3-masc.mp3"," ","","uma","","","",""
"","771","audio-keyboard-response","193","441378","0.0-3.0-1.150","../audio/75-4-masc.mp3"," ","","pessoa","","","",""
"","1152","audio-keyboard-response","194","442802","0.0-3.0-1.151","../audio/75-5-masc.mp3"," ","","canhota","","","",""
"","840","audio-keyboard-response","195","443922","0.0-3.0-1.152","../audio/75-6-masc.mp3"," ","","nesta","","","",""
"","1069","audio-keyboard-response","196","445266","0.0-3.0-1.153","../audio/75-7-masc.mp3"," ","","cidade.","","","",""
"","10324","html-keyboard-response","197","455842","0.0-3.0-2.153-0.153","<span style=""font-size:25px; font-family: monospace"">Só existe uma pessoa canhota na cidade?</span>","s","","","Só existe uma pessoa canhota na cidade?","null","exp-sent","false"
"","null","html-keyboard-response","198","457367","0.0-3.0-0.154-0.154","<span style= ""font-size:30px; font-family: monospace"">+</span>","null","fixation","","","","",""
"","2432","audio-keyboard-response","199","460082","0.0-3.0-1.154","../audio/68-1-masc.mp3"," ","","Meu","","","",""
"","1091","audio-keyboard-response","200","461442","0.0-3.0-1.155","../audio/68-2-masc.mp3"," ","","irmão","","","",""
"","3560","audio-keyboard-response","201","465281","0.0-3.0-1.156","../audio/68-3-masc.mp3"," ","","teve","","","",""
"","1152","audio-keyboard-response","202","466722","0.0-3.0-1.157","../audio/68-4-masc.mp3"," ","","um","","","",""
"","1720","audio-keyboard-response","203","468722","0.0-3.0-1.158","../audio/68-5-masc.mp3"," ","","noivado","","","",""
"","989","audio-keyboard-response","204","469986","0.0-3.0-1.159","../audio/68-6-masc.mp3"," ","","longo","","","",""
"","1000","audio-keyboard-response","205","471266","0.0-3.0-1.160","../audio/68-7-masc.mp3"," ","","e","","","",""
"","2011","audio-keyboard-response","206","473554","0.0-3.0-1.161","../audio/68-8-masc.mp3"," ","","maravilhoso.","","","",""
"","null","html-keyboard-response","207","474817","0.0-3.0-0.162-0.162","<span style= ""font-size:30px; font-family: monospace"">+</span>","null","fixation","","","","",""
"","691","audio-keyboard-response","208","475777","0.0-3.0-1.162","../audio/69-1-fem.mp3"," ","","A","","","",""
"","3640","audio-keyboard-response","209","479681","0.0-3.0-1.163","../audio/69-2-fem.mp3"," ","","loja","","","",""
"","979","audio-keyboard-response","210","480930","0.0-3.0-1.164","../audio/69-3-fem.mp3"," ","","recebeu","","","",""
"","739","audio-keyboard-response","211","481937","0.0-3.0-1.165","../audio/69-4-fem.mp3"," ","","uma","","","",""
"","1221","audio-keyboard-response","212","483442","0.0-3.0-1.166","../audio/69-5-fem.mp3"," ","","poltrona","","","",""
"","909","audio-keyboard-response","213","484625","0.0-3.0-1.167","../audio/69-6-fem.mp3"," ","","de","","","",""
"","941","audio-keyboard-response","214","485841","0.0-3.0-1.168","../audio/69-7-fem.mp3"," ","","couro","","","",""
"","1440","audio-keyboard-response","215","487553","0.0-3.0-1.169","../audio/69-8-fem.mp3"," ","","preto.","","","",""
"","null","html-keyboard-response","216","488818","0.0-3.0-0.170-0.170","<span style= ""font-size:30px; font-family: monospace"">+</span>","null","fixation","","","","",""
"","1240","audio-keyboard-response","217","490337","0.0-3.0-1.170","../audio/66-1-masc.mp3"," ","","Não","","","",""
"","1360","audio-keyboard-response","218","491969","0.0-3.0-1.171","../audio/66-2-masc.mp3"," ","","gosto","","","",""
"","960","audio-keyboard-response","219","493201","0.0-3.0-1.172","../audio/66-3-masc.mp3"," ","","de","","","",""
"","1011","audio-keyboard-response","220","494481","0.0-3.0-1.173","../audio/66-4-masc.mp3"," ","","gente","","","",""
"","1379","audio-keyboard-response","221","496129","0.0-3.0-1.174","../audio/66-5-masc.mp3"," ","","egoísta","","","",""
"","920","audio-keyboard-response","222","497329","0.0-3.0-1.175","../audio/66-6-masc.mp3"," ","","nem","","","",""
"","1579","audio-keyboard-response","223","499169","0.0-3.0-1.176","../audio/66-7-masc.mp3"," ","","chata.","","","",""
"","null","html-keyboard-response","224","500426","0.0-3.0-0.177-0.177","<span style= ""font-size:30px; font-family: monospace"">+</span>","null","fixation","","","","",""
"","941","audio-keyboard-response","225","501633","0.0-3.0-1.177","../audio/67-1-masc.mp3"," ","","Minha","","","",""
"","651","audio-keyboard-response","226","502561","0.0-3.0-1.178","../audio/67-2-masc.mp3"," ","","tia","","","",""
"","6829","audio-keyboard-response","227","509665","0.0-3.0-1.179","../audio/67-3-masc.mp3"," ","","comprou","","","",""
"","1011","audio-keyboard-response","228","510945","0.0-3.0-1.180","../audio/67-4-masc.mp3"," ","","um","","","",""
"","960","audio-keyboard-response","229","512177","0.0-3.0-1.181","../audio/67-5-masc.mp3"," ","","cordão","","","",""
"","651","audio-keyboard-response","230","513105","0.0-3.0-1.182","../audio/67-6-masc.mp3"," ","","para","","","",""
"","669","audio-keyboard-response","231","514049","0.0-3.0-1.183","../audio/67-7-masc.mp3"," ","","o","","","",""
"","1120","audio-keyboard-response","232","515441","0.0-3.0-1.184","../audio/67-8-masc.mp3"," ","","varal.","","","",""
"","null","html-keyboard-response","233","516706","0.0-3.0-0.185-0.185","<span style= ""font-size:30px; font-family: monospace"">+</span>","null","fixation","","","","",""
"","1069","audio-keyboard-response","234","518065","0.0-3.0-1.185","../audio/70-1-masc.mp3"," ","","O","","","",""
"","1069","audio-keyboard-response","235","519409","0.0-3.0-1.186","../audio/70-2-masc.mp3"," ","","meu","","","",""
"","1088","audio-keyboard-response","236","520769","0.0-3.0-1.187","../audio/70-3-masc.mp3"," ","","filho","","","",""
"","1008","audio-keyboard-response","237","522049","0.0-3.0-1.188","../audio/70-4-masc.mp3"," ","","tem","","","",""
"","2619","audio-keyboard-response","238","524929","0.0-3.0-1.189","../audio/70-5-masc.mp3"," ","","medo","","","",""
"","899","audio-keyboard-response","239","526097","0.0-3.0-1.190","../audio/70-6-masc.mp3"," ","","de","","","",""
"","1251","audio-keyboard-response","240","527633","0.0-3.0-1.191","../audio/70-7-masc.mp3"," ","","enguia","","","",""
"","629","audio-keyboard-response","241","528529","0.0-3.0-1.192","../audio/70-8-masc.mp3"," ","","e","","","",""
"","1579","audio-keyboard-response","242","530369","0.0-3.0-1.193","../audio/70-9-masc.mp3"," ","","beija-flor.","","","",""
"","5540","html-keyboard-response","243","536161","0.0-3.0-2.193-0.193","<span style=""font-size:25px; font-family: monospace"">O filho tem medo de tigre?</span>","n","","","O filho tem medo de tigre?","null","exp-sent","false"
"","null","html-keyboard-response","244","537679","0.0-3.0-0.194-0.194","<span style= ""font-size:30px; font-family: monospace"">+</span>","null","fixation","","","","",""
"","749","audio-keyboard-response","245","538705","0.0-3.0-1.194","../audio/16-1-masc.mp3"," ","","Eu","","","",""
"","2061","audio-keyboard-response","246","541041","0.0-3.0-1.195","../audio/16-2-masc.mp3"," ","","nunca","","","",""
"","1189","audio-keyboard-response","247","542513","0.0-3.0-1.196","../audio/16-3-masc.mp3"," ","","conheci","","","",""
"","720","audio-keyboard-response","248","543505","0.0-3.0-1.197","../audio/16-4-masc.mp3"," ","","um","","","",""
"","1160","audio-keyboard-response","249","544929","0.0-3.0-1.198","../audio/16-5-masc.mp3"," ","","general","","","",""
"","619","audio-keyboard-response","250","545809","0.0-3.0-1.199","../audio/16-6-masc.mp3"," ","","do","","","",""
"","1168","audio-keyboard-response","251","547249","0.0-3.0-1.200","../audio/16-7-masc.mp3"," ","","exército.","","","",""
"","null","html-keyboard-response","252","548522","0.0-3.0-0.201-0.201","<span style= ""font-size:30px; font-family: monospace"">+</span>","null","fixation","","","","",""
"","749","audio-keyboard-response","253","549537","0.0-3.0-1.201","../audio/18-1-fem.mp3"," ","","O","","","",""
"","1491","audio-keyboard-response","254","551297","0.0-3.0-1.202","../audio/18-2-fem.mp3"," ","","enredo","","","",""
"","931","audio-keyboard-response","255","552497","0.0-3.0-1.203","../audio/18-3-fem.mp3"," ","","traz","","","",""
"","731","audio-keyboard-response","256","553505","0.0-3.0-1.204","../audio/18-4-fem.mp3"," ","","um","","","",""
"","2200","audio-keyboard-response","257","555969","0.0-3.0-1.205","../audio/18-5-fem.mp3"," ","","dragão","","","",""
"","1099","audio-keyboard-response","258","557345","0.0-3.0-1.206","../audio/18-6-fem.mp3"," ","","forte","","","",""
"","541","audio-keyboard-response","259","558161","0.0-3.0-1.207","../audio/18-7-fem.mp3"," ","","e","","","",""
"","829","audio-keyboard-response","260","559265","0.0-3.0-1.208","../audio/18-8-fem.mp3"," ","","solitário.","","","",""
"","null","html-keyboard-response","261","560539","0.0-3.0-0.209-0.209","<span style= ""font-size:30px; font-family: monospace"">+</span>","null","fixation","","","","",""
"","2621","audio-keyboard-response","262","563441","0.0-3.0-1.209","../audio/17-1-masc.mp3"," ","","Falaram","","","",""
"","1429","audio-keyboard-response","263","565137","0.0-3.0-1.210","../audio/17-2-masc.mp3"," ","","da","","","",""
"","1251","audio-keyboard-response","264","566673","0.0-3.0-1.211","../audio/17-3-masc.mp3"," ","","lei","","","",""
"","640","audio-keyboard-response","265","567585","0.0-3.0-1.212","../audio/17-4-masc.mp3"," ","","no","","","",""
"","1112","audio-keyboard-response","266","568961","0.0-3.0-1.213","../audio/17-5-masc.mp3"," ","","ministério","","","",""
"","1251","audio-keyboard-response","267","570481","0.0-3.0-1.214","../audio/17-6-masc.mp3"," ","","diversas","","","",""
"","989","audio-keyboard-response","268","571745","0.0-3.0-1.215","../audio/17-7-masc.mp3"," ","","vezes.","","","",""
"","null","html-keyboard-response","269","573007","0.0-3.0-0.216-0.216","<span style= ""font-size:30px; font-family: monospace"">+</span>","null","fixation","","","","",""
"","899","audio-keyboard-response","270","574177","0.0-3.0-1.216","../audio/19-1-masc.mp3"," ","","O","","","",""
"","1221","audio-keyboard-response","271","575681","0.0-3.0-1.217","../audio/19-2-masc.mp3"," ","","menino","","","",""
"","1048","audio-keyboard-response","272","577009","0.0-3.0-1.218","../audio/19-3-masc.mp3"," ","","ganhou","","","",""
"","829","audio-keyboard-response","273","578113","0.0-3.0-1.219","../audio/19-4-masc.mp3"," ","","uma","","","",""
"","851","audio-keyboard-response","274","579233","0.0-3.0-1.220","../audio/19-5-masc.mp3"," ","","bala","","","",""
"","931","audio-keyboard-response","275","580433","0.0-3.0-1.221","../audio/19-6-masc.mp3"," ","","depois","","","",""
"","691","audio-keyboard-response","276","581393","0.0-3.0-1.222","../audio/19-7-masc.mp3"," ","","do","","","",""
"","1229","audio-keyboard-response","277","582897","0.0-3.0-1.223","../audio/19-8-masc.mp3"," ","","almoço.","","","",""
"","null","html-keyboard-response","278","584159","0.0-3.0-0.224-0.224","<span style= ""font-size:30px; font-family: monospace"">+</span>","null","fixation","","","","",""
"","1200","audio-keyboard-response","279","585632","0.0-3.0-1.224","../audio/20-1-masc.mp3"," ","","O","","","",""
"","1109","audio-keyboard-response","280","587025","0.0-3.0-1.225","../audio/20-2-masc.mp3"," ","","colega","","","",""
"","1571","audio-keyboard-response","281","588881","0.0-3.0-1.226","../audio/20-3-masc.mp3"," ","","parecia","","","",""
"","1139","audio-keyboard-response","282","590305","0.0-3.0-1.227","../audio/20-4-masc.mp3"," ","","muito","","","",""
"","1629","audio-keyboard-response","283","592209","0.0-3.0-1.228","../audio/20-5-masc.mp3"," ","","gripado","","","",""
"","789","audio-keyboard-response","284","593265","0.0-3.0-1.229","../audio/20-6-masc.mp3"," ","","no","","","",""
"","880","audio-keyboard-response","285","594417","0.0-3.0-1.230","../audio/20-7-masc.mp3"," ","","dia","","","",""
"","1981","audio-keyboard-response","286","596673","0.0-3.0-1.231","../audio/20-8-masc.mp3"," ","","anterior.","","","",""
"","10493","html-keyboard-response","287","607425","0.0-3.0-2.231-0.231","<span style=""font-size:25px; font-family: monospace"">O colega parecia muito gripado?</span>","n","","","O colega parecia muito gripado?","null","exp-sent","false"
"","null","html-keyboard-response","288","608942","0.0-3.0-0.232-0.232","<span style= ""font-size:30px; font-family: monospace"">+</span>","null","fixation","","","","",""
"","1240","audio-keyboard-response","289","610465","0.0-3.0-1.232","../audio/43-1-masc.mp3"," ","","Eu","","","",""
"","1352","audio-keyboard-response","290","612081","0.0-3.0-1.233","../audio/43-2-masc.mp3"," ","","achei","","","",""
"","1259","audio-keyboard-response","291","613616","0.0-3.0-1.234","../audio/43-3-masc.mp3"," ","","um","","","",""
"","1299","audio-keyboard-response","292","615185","0.0-3.0-1.235","../audio/43-4-masc.mp3"," ","","colchão","","","",""
"","1469","audio-keyboard-response","293","616929","0.0-3.0-1.236","../audio/43-5-masc.mp3"," ","","velho","","","",""
"","960","audio-keyboard-response","294","618160","0.0-3.0-1.237","../audio/43-6-masc.mp3"," ","","e","","","",""
"","1109","audio-keyboard-response","295","619536","0.0-3.0-1.238","../audio/43-7-masc.mp3"," ","","imundo","","","",""
"","752","audio-keyboard-response","296","620561","0.0-3.0-1.239","../audio/43-8-masc.mp3"," ","","na","","","",""
"","1128","audio-keyboard-response","297","621969","0.0-3.0-1.240","../audio/43-9-masc.mp3"," ","","casa.","","","",""
"","null","html-keyboard-response","298","623244","0.0-3.0-0.241-0.241","<span style= ""font-size:30px; font-family: monospace"">+</span>","null","fixation","","","","",""
"","579","audio-keyboard-response","299","624096","0.0-3.0-1.241","../audio/41-1-fem.mp3"," ","","A","","","",""
"","1152","audio-keyboard-response","300","625520","0.0-3.0-1.242","../audio/41-2-fem.mp3"," ","","novela","","","",""
"","1440","audio-keyboard-response","301","627233","0.0-3.0-1.243","../audio/41-3-fem.mp3"," ","","falava","","","",""
"","1349","audio-keyboard-response","302","628865","0.0-3.0-1.244","../audio/41-4-fem.mp3"," ","","de","","","",""
"","1531","audio-keyboard-response","303","630673","0.0-3.0-1.245","../audio/41-5-fem.mp3"," ","","paixão","","","",""
"","829","audio-keyboard-response","304","631777","0.0-3.0-1.246","../audio/41-6-fem.mp3"," ","","e","","","",""
"","1501","audio-keyboard-response","305","633553","0.0-3.0-1.247","../audio/41-7-fem.mp3"," ","","comédia.","","","",""
"","null","html-keyboard-response","306","634825","0.0-3.0-0.248-0.248","<span style= ""font-size:30px; font-family: monospace"">+</span>","null","fixation","","","","",""
"","6491","audio-keyboard-response","307","641601","0.0-3.0-1.248","../audio/42-1-fem.mp3"," ","","Eu","","","",""
"","800","audio-keyboard-response","308","642673","0.0-3.0-1.249","../audio/42-2-fem.mp3"," ","","fui","","","",""
"","779","audio-keyboard-response","309","643728","0.0-3.0-1.250","../audio/42-3-fem.mp3"," ","","a","","","",""
"","899","audio-keyboard-response","310","644896","0.0-3.0-1.251","../audio/42-4-fem.mp3"," ","","uma","","","",""
"","571","audio-keyboard-response","311","645745","0.0-3.0-1.252","../audio/42-5-fem.mp3"," ","","loja","","","",""
"","661","audio-keyboard-response","312","646672","0.0-3.0-1.253","../audio/42-6-fem.mp3"," ","","de","","","",""
"","1029","audio-keyboard-response","313","647984","0.0-3.0-1.254","../audio/42-7-fem.mp3"," ","","móveis","","","",""
"","680","audio-keyboard-response","314","648945","0.0-3.0-1.255","../audio/42-8-fem.mp3"," ","","no","","","",""
"","971","audio-keyboard-response","315","650177","0.0-3.0-1.256","../audio/42-9-fem.mp3"," ","","bairro.","","","",""
"","null","html-keyboard-response","316","651446","0.0-3.0-0.257-0.257","<span style= ""font-size:30px; font-family: monospace"">+</span>","null","fixation","","","","",""
"","1091","audio-keyboard-response","317","652817","0.0-3.0-1.257","../audio/44-1-fem.mp3"," ","","Meus","","","",""
"","960","audio-keyboard-response","318","654065","0.0-3.0-1.258","../audio/44-2-fem.mp3"," ","","irmãos","","","",""
"","1371","audio-keyboard-response","319","655696","0.0-3.0-1.259","../audio/44-3-fem.mp3"," ","","brigam","","","",""
"","861","audio-keyboard-response","320","656832","0.0-3.0-1.260","../audio/44-4-fem.mp3"," ","","por","","","",""
"","1488","audio-keyboard-response","321","658608","0.0-3.0-1.261","../audio/44-5-fem.mp3"," ","","bobagem","","","",""
"","1051","audio-keyboard-response","322","659936","0.0-3.0-1.262","../audio/44-6-fem.mp3"," ","","todos","","","",""
"","672","audio-keyboard-response","323","660881","0.0-3.0-1.263","../audio/44-7-fem.mp3"," ","","os","","","",""
"","949","audio-keyboard-response","324","662113","0.0-3.0-1.264","../audio/44-8-fem.mp3"," ","","dias.","","","",""
"","null","html-keyboard-response","325","663375","0.0-3.0-0.265-0.265","<span style= ""font-size:30px; font-family: monospace"">+</span>","null","fixation","","","","",""
"","629","audio-keyboard-response","326","664289","0.0-3.0-1.265","../audio/45-1-masc.mp3"," ","","O","","","",""
"","4349","audio-keyboard-response","327","668912","0.0-3.0-1.266","../audio/45-2-masc.mp3"," ","","homem","","","",""
"","2939","audio-keyboard-response","328","672128","0.0-3.0-1.267","../audio/45-3-masc.mp3"," ","","pagou","","","",""
"","1419","audio-keyboard-response","329","673824","0.0-3.0-1.268","../audio/45-4-masc.mp3"," ","","o","","","",""
"","1469","audio-keyboard-response","330","675568","0.0-3.0-1.269","../audio/45-5-masc.mp3"," ","","aluguel","","","",""
"","1888","audio-keyboard-response","331","677728","0.0-3.0-1.270","../audio/45-6-masc.mp3"," ","","com","","","",""
"","2131","audio-keyboard-response","332","680144","0.0-3.0-1.271","../audio/45-7-masc.mp3"," ","","atraso.","","","",""
"","5103","html-keyboard-response","333","685504","0.0-3.0-2.271-0.271","<span style=""font-size:25px; font-family: monospace"">O homem pagou o aluguel em dia?</span>","n","","","O homem pagou o aluguel em dia?","null","exp-sent","false"
"","null","html-keyboard-response","334","687014","0.0-3.0-0.272-0.272","<span style= ""font-size:30px; font-family: monospace"">+</span>","null","fixation","","","","",""
"","920","audio-keyboard-response","335","688224","0.0-3.0-1.272","../audio/12-1-masc.mp3"," ","","O","","","",""
"","661","audio-keyboard-response","336","689152","0.0-3.0-1.273","../audio/12-2-masc.mp3"," ","","dia","","","",""
"","1080","audio-keyboard-response","337","690512","0.0-3.0-1.274","../audio/12-3-masc.mp3"," ","","estava","","","",""
"","1149","audio-keyboard-response","338","691936","0.0-3.0-1.275","../audio/12-4-masc.mp3"," ","","quente,","","","",""
"","3792","audio-keyboard-response","339","695999","0.0-3.0-1.276","../audio/12-5-masc.mp3"," ","","tranquilo","","","",""
"","1219","audio-keyboard-response","340","697504","0.0-3.0-1.277","../audio/12-6-masc.mp3"," ","","e","","","",""
"","1581","audio-keyboard-response","341","699360","0.0-3.0-1.278","../audio/12-7-masc.mp3"," ","","ensolarado.","","","",""
"","null","html-keyboard-response","342","700634","0.0-3.0-0.279-0.279","<span style= ""font-size:30px; font-family: monospace"">+</span>","null","fixation","","","","",""
"","949","audio-keyboard-response","343","701855","0.0-3.0-1.279","../audio/11-1-masc.mp3"," ","","Elas","","","",""
"","3901","audio-keyboard-response","344","706031","0.0-3.0-1.280","../audio/11-2-masc.mp3"," ","","gostam","","","",""
"","1069","audio-keyboard-response","345","707376","0.0-3.0-1.281","../audio/11-3-masc.mp3"," ","","muito","","","",""
"","720","audio-keyboard-response","346","708368","0.0-3.0-1.282","../audio/11-4-masc.mp3"," ","","de","","","",""
"","1560","audio-keyboard-response","347","710207","0.0-3.0-1.283","../audio/11-5-masc.mp3"," ","","aritmética","","","",""
"","909","audio-keyboard-response","348","711391","0.0-3.0-1.284","../audio/11-6-masc.mp3"," ","","e","","","",""
"","909","audio-keyboard-response","349","712576","0.0-3.0-1.285","../audio/11-7-masc.mp3"," ","","de","","","",""
"","1640","audio-keyboard-response","350","714496","0.0-3.0-1.286","../audio/11-8-masc.mp3"," ","","leitura.","","","",""
"","null","html-keyboard-response","351","715760","0.0-3.0-0.287-0.287","<span style= ""font-size:30px; font-family: monospace"">+</span>","null","fixation","","","","",""
"","600","audio-keyboard-response","352","716640","0.0-3.0-1.287","../audio/14-1-fem.mp3"," ","","O","","","",""
"","1269","audio-keyboard-response","353","718175","0.0-3.0-1.288","../audio/14-2-fem.mp3"," ","","cachorro","","","",""
"","840","audio-keyboard-response","354","719280","0.0-3.0-1.289","../audio/14-3-fem.mp3"," ","","é","","","",""
"","1309","audio-keyboard-response","355","720864","0.0-3.0-1.290","../audio/14-4-fem.mp3"," ","","muito","","","",""
"","920","audio-keyboard-response","356","722063","0.0-3.0-1.291","../audio/14-5-fem.mp3"," ","","fiel","","","",""
"","589","audio-keyboard-response","357","722927","0.0-3.0-1.292","../audio/14-6-fem.mp3"," ","","a","","","",""
"","1179","audio-keyboard-response","358","724383","0.0-3.0-1.293","../audio/14-7-fem.mp3"," ","","seus","","","",""
"","2811","audio-keyboard-response","359","727471","0.0-3.0-1.294","../audio/14-8-fem.mp3"," ","","donos.","","","",""
"","null","html-keyboard-response","360","728738","0.0-3.0-0.295-0.295","<span style= ""font-size:30px; font-family: monospace"">+</span>","null","fixation","","","","",""
"","1051","audio-keyboard-response","361","730064","0.0-3.0-1.295","../audio/13-1-fem.mp3"," ","","Para","","","",""
"","821","audio-keyboard-response","362","731152","0.0-3.0-1.296","../audio/13-2-fem.mp3"," ","","mim","","","",""
"","771","audio-keyboard-response","363","732192","0.0-3.0-1.297","../audio/13-3-fem.mp3"," ","","é","","","",""
"","939","audio-keyboard-response","364","733408","0.0-3.0-1.298","../audio/13-4-fem.mp3"," ","","muito","","","",""
"","1069","audio-keyboard-response","365","734751","0.0-3.0-1.299","../audio/13-5-fem.mp3"," ","","difícil","","","",""
"","1789","audio-keyboard-response","366","736815","0.0-3.0-1.300","../audio/13-6-fem.mp3"," ","","acordar","","","",""
"","2400","audio-keyboard-response","367","739503","0.0-3.0-1.301","../audio/13-7-fem.mp3"," ","","cedo.","","","",""
"","null","html-keyboard-response","368","740766","0.0-3.0-0.302-0.302","<span style= ""font-size:30px; font-family: monospace"">+</span>","null","fixation","","","","",""
"","1080","audio-keyboard-response","369","742128","0.0-3.0-1.302","../audio/15-1-masc.mp3"," ","","Meu","","","",""
"","1008","audio-keyboard-response","370","743407","0.0-3.0-1.303","../audio/15-2-masc.mp3"," ","","primo","","","",""
"","619","audio-keyboard-response","371","744304","0.0-3.0-1.304","../audio/15-3-masc.mp3"," ","","é","","","",""
"","691","audio-keyboard-response","372","745264","0.0-3.0-1.305","../audio/15-4-masc.mp3"," ","","um","","","",""
"","1040","audio-keyboard-response","373","746576","0.0-3.0-1.306","../audio/15-5-masc.mp3"," ","","grande","","","",""
"","1211","audio-keyboard-response","374","748063","0.0-3.0-1.307","../audio/15-6-masc.mp3"," ","","vendedor","","","",""
"","811","audio-keyboard-response","375","749152","0.0-3.0-1.308","../audio/15-7-masc.mp3"," ","","de","","","",""
"","1979","audio-keyboard-response","376","751408","0.0-3.0-1.309","../audio/15-8-masc.mp3"," ","","carros.","","","",""
"","3760","html-keyboard-response","377","755424","0.0-3.0-2.309-0.309","<span style=""font-size:25px; font-family: monospace"">O primo é um vendedor de carros?</span>","s","","","O primo é um vendedor de carros?","null","exp-sent","false"
"","null","html-keyboard-response","378","756946","0.0-3.0-0.310-0.310","<span style= ""font-size:30px; font-family: monospace"">+</span>","null","fixation","","","","",""
"","579","audio-keyboard-response","379","757807","0.0-3.0-1.310","../audio/57-1-fem.mp3"," ","","O","","","",""
"","1560","audio-keyboard-response","380","759648","0.0-3.0-1.311","../audio/57-2-fem.mp3"," ","","capitão","","","",""
"","1019","audio-keyboard-response","381","760944","0.0-3.0-1.312","../audio/57-3-fem.mp3"," ","","deu","","","",""
"","2811","audio-keyboard-response","382","764031","0.0-3.0-1.313","../audio/57-4-fem.mp3"," ","","uma","","","",""
"","1600","audio-keyboard-response","383","765919","0.0-3.0-1.314","../audio/57-5-fem.mp3"," ","","instrução","","","",""
"","939","audio-keyboard-response","384","767135","0.0-3.0-1.315","../audio/57-6-fem.mp3"," ","","para","","","",""
"","600","audio-keyboard-response","385","767999","0.0-3.0-1.316","../audio/57-7-fem.mp3"," ","","as","","","",""
"","1331","audio-keyboard-response","386","769600","0.0-3.0-1.317","../audio/57-8-fem.mp3"," ","","pessoas.","","","",""
"","null","html-keyboard-response","387","770869","0.0-3.0-0.318-0.318","<span style= ""font-size:30px; font-family: monospace"">+</span>","null","fixation","","","","",""
"","640","audio-keyboard-response","388","771792","0.0-3.0-1.318","../audio/59-1-masc.mp3"," ","","O","","","",""
"","1229","audio-keyboard-response","389","773296","0.0-3.0-1.319","../audio/59-2-masc.mp3"," ","","carteiro","","","",""
"","912","audio-keyboard-response","390","774479","0.0-3.0-1.320","../audio/59-3-masc.mp3"," ","","fez","","","",""
"","720","audio-keyboard-response","391","775472","0.0-3.0-1.321","../audio/59-4-masc.mp3"," ","","uma","","","",""
"","1229","audio-keyboard-response","392","776976","0.0-3.0-1.322","../audio/59-5-masc.mp3"," ","","tentativa","","","",""
"","568","audio-keyboard-response","393","777808","0.0-3.0-1.323","../audio/59-6-masc.mp3"," ","","de","","","",""
"","1411","audio-keyboard-response","394","779504","0.0-3.0-1.324","../audio/59-7-masc.mp3"," ","","entrega.","","","",""
"","null","html-keyboard-response","395","780779","0.0-3.0-0.325-0.325","<span style= ""font-size:30px; font-family: monospace"">+</span>","null","fixation","","","","",""
"","1280","audio-keyboard-response","396","782335","0.0-3.0-1.325","../audio/58-1-fem.mp3"," ","","Havia","","","",""
"","1579","audio-keyboard-response","397","784175","0.0-3.0-1.326","../audio/58-2-fem.mp3"," ","","apenas","","","",""
"","648","audio-keyboard-response","398","785087","0.0-3.0-1.327","../audio/58-3-fem.mp3"," ","","um","","","",""
"","979","audio-keyboard-response","399","786336","0.0-3.0-1.328","../audio/58-4-fem.mp3"," ","","último","","","",""
"","1280","audio-keyboard-response","400","787887","0.0-3.0-1.329","../audio/58-5-fem.mp3"," ","","herdeiro","","","",""
"","792","audio-keyboard-response","401","788959","0.0-3.0-1.330","../audio/58-6-fem.mp3"," ","","do","","","",""
"","1189","audio-keyboard-response","402","790415","0.0-3.0-1.331","../audio/58-7-fem.mp3"," ","","dinheiro.","","","",""
"","null","html-keyboard-response","403","791683","0.0-3.0-0.332-0.332","<span style= ""font-size:30px; font-family: monospace"">+</span>","null","fixation","","","","",""
"","619","audio-keyboard-response","404","792575","0.0-3.0-1.332","../audio/56-1-fem.mp3"," ","","A","","","",""
"","800","audio-keyboard-response","405","793647","0.0-3.0-1.333","../audio/56-2-fem.mp3"," ","","moça","","","",""
"","971","audio-keyboard-response","406","794895","0.0-3.0-1.334","../audio/56-3-fem.mp3"," ","","foi","","","",""
"","619","audio-keyboard-response","407","795775","0.0-3.0-1.335","../audio/56-4-fem.mp3"," ","","à","","","",""
"","1571","audio-keyboard-response","408","797615","0.0-3.0-1.336","../audio/56-5-fem.mp3"," ","","agência","","","",""
"","1429","audio-keyboard-response","409","799327","0.0-3.0-1.337","../audio/56-6-fem.mp3"," ","","bancária","","","",""
"","651","audio-keyboard-response","410","800255","0.0-3.0-1.338","../audio/56-7-fem.mp3"," ","","ontem","","","",""
"","680","audio-keyboard-response","411","801199","0.0-3.0-1.339","../audio/56-8-fem.mp3"," ","","de","","","",""
"","1200","audio-keyboard-response","412","802671","0.0-3.0-1.340","../audio/56-9-fem.mp3"," ","","tarde.","","","",""
"","null","html-keyboard-response","413","803941","0.0-3.0-0.341-0.341","<span style= ""font-size:30px; font-family: monospace"">+</span>","null","fixation","","","","",""
"","1491","audio-keyboard-response","414","805711","0.0-3.0-1.341","../audio/60-1-fem.mp3"," ","","Ondas","","","",""
"","939","audio-keyboard-response","415","806927","0.0-3.0-1.342","../audio/60-2-fem.mp3"," ","","têm","","","",""
"","611","audio-keyboard-response","416","807823","0.0-3.0-1.343","../audio/60-3-fem.mp3"," ","","um","","","",""
"","1480","audio-keyboard-response","417","809583","0.0-3.0-1.344","../audio/60-4-fem.mp3"," ","","impacto","","","",""
"","1051","audio-keyboard-response","418","810911","0.0-3.0-1.345","../audio/60-5-fem.mp3"," ","","destrutivo","","","",""
"","869","audio-keyboard-response","419","812063","0.0-3.0-1.346","../audio/60-6-fem.mp3"," ","","no","","","",""
"","1451","audio-keyboard-response","420","813791","0.0-3.0-1.347","../audio/60-7-fem.mp3"," ","","litoral.","","","",""
"","7656","html-keyboard-response","421","821711","0.0-3.0-2.347-0.347","<span style=""font-size:25px; font-family: monospace"">Ondas têm um impacto destrutivo?</span>","n","","","Ondas têm um impacto destrutivo?","null","exp-sent","false"
"","null","html-keyboard-response","422","823234","0.0-3.0-0.348-0.348","<span style= ""font-size:30px; font-family: monospace"">+</span>","null","fixation","","","","",""
"","1109","audio-keyboard-response","423","824607","0.0-3.0-1.348","../audio/36-1-fem.mp3"," ","","Meu","","","",""
"","891","audio-keyboard-response","424","825759","0.0-3.0-1.349","../audio/36-2-fem.mp3"," ","","tio","","","",""
"","2309","audio-keyboard-response","425","828335","0.0-3.0-1.350","../audio/36-3-fem.mp3"," ","","comprou","","","",""
"","691","audio-keyboard-response","426","829295","0.0-3.0-1.351","../audio/36-4-fem.mp3"," ","","um","","","",""
"","1232","audio-keyboard-response","427","830799","0.0-3.0-1.352","../audio/36-5-fem.mp3"," ","","filtro","","","",""
"","779","audio-keyboard-response","428","831855","0.0-3.0-1.353","../audio/36-6-fem.mp3"," ","","de","","","",""
"","941","audio-keyboard-response","429","833071","0.0-3.0-1.354","../audio/36-7-fem.mp3"," ","","água","","","",""
"","1000","audio-keyboard-response","430","834335","0.0-3.0-1.355","../audio/36-8-fem.mp3"," ","","hoje","","","",""
"","2008","audio-keyboard-response","431","836607","0.0-3.0-1.356","../audio/36-9-fem.mp3"," ","","cedo.","","","",""
"","null","html-keyboard-response","432","837876","0.0-3.0-0.357-0.357","<span style= ""font-size:30px; font-family: monospace"">+</span>","null","fixation","","","","",""
"","1051","audio-keyboard-response","433","839199","0.0-3.0-1.357","../audio/38-1-fem.mp3"," ","","A","","","",""
"","1299","audio-keyboard-response","434","840767","0.0-3.0-1.358","../audio/38-2-fem.mp3"," ","","empresa","","","",""
"","3739","audio-keyboard-response","435","844783","0.0-3.0-1.359","../audio/38-3-fem.mp3"," ","","criou","","","",""
"","731","audio-keyboard-response","436","845775","0.0-3.0-1.360","../audio/38-4-fem.mp3"," ","","a","","","",""
"","1181","audio-keyboard-response","437","847231","0.0-3.0-1.361","../audio/38-5-fem.mp3"," ","","patente","","","",""
"","600","audio-keyboard-response","438","848095","0.0-3.0-1.362","../audio/38-6-fem.mp3"," ","","da","","","",""
"","1581","audio-keyboard-response","439","849951","0.0-3.0-1.363","../audio/38-7-fem.mp3"," ","","frigideira.","","","",""
"","null","html-keyboard-response","440","851215","0.0-3.0-0.364-0.364","<span style= ""font-size:30px; font-family: monospace"">+</span>","null","fixation","","","","",""
"","869","audio-keyboard-response","441","852367","0.0-3.0-1.364","../audio/39-1-fem.mp3"," ","","O","","","",""
"","1360","audio-keyboard-response","442","853999","0.0-3.0-1.365","../audio/39-2-fem.mp3"," ","","conselho","","","",""
"","1029","audio-keyboard-response","443","855295","0.0-3.0-1.366","../audio/39-3-fem.mp3"," ","","foi","","","",""
"","1131","audio-keyboard-response","444","856703","0.0-3.0-1.367","../audio/39-4-fem.mp3"," ","","muito","","","",""
"","1069","audio-keyboard-response","445","858047","0.0-3.0-1.368","../audio/39-5-fem.mp3"," ","","útil","","","",""
"","3008","audio-keyboard-response","446","861327","0.0-3.0-1.369","../audio/39-6-fem.mp3"," ","","para","","","",""
"","1309","audio-keyboard-response","447","862927","0.0-3.0-1.370","../audio/39-7-fem.mp3"," ","","minha","","","",""
"","2491","audio-keyboard-response","448","865679","0.0-3.0-1.371","../audio/39-8-fem.mp3"," ","","tia.","","","",""
"","null","html-keyboard-response","449","866949","0.0-3.0-0.372-0.372","<span style= ""font-size:30px; font-family: monospace"">+</span>","null","fixation","","","","",""
"","829","audio-keyboard-response","450","868063","0.0-3.0-1.372","../audio/37-1-fem.mp3"," ","","Eu","","","",""
"","2189","audio-keyboard-response","451","870543","0.0-3.0-1.373","../audio/37-2-fem.mp3"," ","","adoro","","","",""
"","1469","audio-keyboard-response","452","872287","0.0-3.0-1.374","../audio/37-3-fem.mp3"," ","","suco","","","",""
"","739","audio-keyboard-response","453","873295","0.0-3.0-1.375","../audio/37-4-fem.mp3"," ","","de","","","",""
"","1651","audio-keyboard-response","454","875231","0.0-3.0-1.376","../audio/37-5-fem.mp3"," ","","manga","","","",""
"","840","audio-keyboard-response","455","876351","0.0-3.0-1.377","../audio/37-6-fem.mp3"," ","","com","","","",""
"","1800","audio-keyboard-response","456","878415","0.0-3.0-1.378","../audio/37-7-fem.mp3"," ","","hortelã.","","","",""
"","null","html-keyboard-response","457","879684","0.0-3.0-0.379-0.379","<span style= ""font-size:30px; font-family: monospace"">+</span>","null","fixation","","","","",""
"","939","audio-keyboard-response","458","880895","0.0-3.0-1.379","../audio/40-1-fem.mp3"," ","","O","","","",""
"","1029","audio-keyboard-response","459","882207","0.0-3.0-1.380","../audio/40-2-fem.mp3"," ","","jogo","","","",""
"","848","audio-keyboard-response","460","883327","0.0-3.0-1.381","../audio/40-3-fem.mp3"," ","","falava","","","",""
"","979","audio-keyboard-response","461","884575","0.0-3.0-1.382","../audio/40-4-fem.mp3"," ","","de","","","",""
"","1669","audio-keyboard-response","462","886527","0.0-3.0-1.383","../audio/40-5-fem.mp3"," ","","fantasia","","","",""
"","659","audio-keyboard-response","463","887455","0.0-3.0-1.384","../audio/40-6-fem.mp3"," ","","e","","","",""
"","1029","audio-keyboard-response","464","888751","0.0-3.0-1.385","../audio/40-7-fem.mp3"," ","","de","","","",""
"","1691","audio-keyboard-response","465","890719","0.0-3.0-1.386","../audio/40-8-fem.mp3"," ","","aventura.","","","",""
"","3930","html-keyboard-response","466","894911","0.0-3.0-2.386-0.386","<span style=""font-size:25px; font-family: monospace"">O jogo tinha fantasia e aventura?</span>","s","","","O jogo tinha fantasia e aventura?","null","exp-sent","false"
"","null","html-keyboard-response","467","896433","0.0-3.0-0.387-0.387","<span style= ""font-size:30px; font-family: monospace"">+</span>","null","fixation","","","","",""
"","960","audio-keyboard-response","468","897679","0.0-3.0-1.387","../audio/62-1-masc.mp3"," ","","As","","","",""
"","1459","audio-keyboard-response","469","899407","0.0-3.0-1.388","../audio/62-2-masc.mp3"," ","","artesãs","","","",""
"","880","audio-keyboard-response","470","900559","0.0-3.0-1.389","../audio/62-3-masc.mp3"," ","","gostam","","","",""
"","819","audio-keyboard-response","471","901647","0.0-3.0-1.390","../audio/62-4-masc.mp3"," ","","de","","","",""
"","1531","audio-keyboard-response","472","903455","0.0-3.0-1.391","../audio/62-5-masc.mp3"," ","","maquiagem","","","",""
"","691","audio-keyboard-response","473","904431","0.0-3.0-1.392","../audio/62-6-masc.mp3"," ","","e","","","",""
"","2051","audio-keyboard-response","474","906751","0.0-3.0-1.393","../audio/62-7-masc.mp3"," ","","de","","","",""
"","1371","audio-keyboard-response","475","908399","0.0-3.0-1.394","../audio/62-8-masc.mp3"," ","","crochê.","","","",""
"","null","html-keyboard-response","476","909657","0.0-3.0-0.395-0.395","<span style= ""font-size:30px; font-family: monospace"">+</span>","null","fixation","","","","",""
"","1621","audio-keyboard-response","477","911550","0.0-3.0-1.395","../audio/61-1-fem.mp3"," ","","Aquele","","","",""
"","3349","audio-keyboard-response","478","915182","0.0-3.0-1.396","../audio/61-2-fem.mp3"," ","","senhor","","","",""
"","731","audio-keyboard-response","479","916174","0.0-3.0-1.397","../audio/61-3-fem.mp3"," ","","é","","","",""
"","992","audio-keyboard-response","480","917438","0.0-3.0-1.398","../audio/61-4-fem.mp3"," ","","muito","","","",""
"","1299","audio-keyboard-response","481","919006","0.0-3.0-1.399","../audio/61-5-fem.mp3"," ","","sovina","","","",""
"","640","audio-keyboard-response","482","919918","0.0-3.0-1.400","../audio/61-6-fem.mp3"," ","","e","","","",""
"","1829","audio-keyboard-response","483","922030","0.0-3.0-1.401","../audio/61-7-fem.mp3"," ","","inflexível.","","","",""
"","null","html-keyboard-response","484","923292","0.0-3.0-0.402-0.402","<span style= ""font-size:30px; font-family: monospace"">+</span>","null","fixation","","","","",""
"","920","audio-keyboard-response","485","924478","0.0-3.0-1.402","../audio/63-1-masc.mp3"," ","","A","","","",""
"","1379","audio-keyboard-response","486","926126","0.0-3.0-1.403","../audio/63-2-masc.mp3"," ","","chuva","","","",""
"","1920","audio-keyboard-response","487","928318","0.0-3.0-1.404","../audio/63-3-masc.mp3"," ","","entrou","","","",""
"","880","audio-keyboard-response","488","929470","0.0-3.0-1.405","../audio/63-4-masc.mp3"," ","","pela","","","",""
"","1131","audio-keyboard-response","489","930878","0.0-3.0-1.406","../audio/63-5-masc.mp3"," ","","abertura","","","",""
"","869","audio-keyboard-response","490","932014","0.0-3.0-1.407","../audio/63-6-masc.mp3"," ","","na","","","",""
"","1120","audio-keyboard-response","491","933422","0.0-3.0-1.408","../audio/63-7-masc.mp3"," ","","janela.","","","",""
"","null","html-keyboard-response","492","934693","0.0-3.0-0.409-0.409","<span style= ""font-size:30px; font-family: monospace"">+</span>","null","fixation","","","","",""
"","712","audio-keyboard-response","493","935678","0.0-3.0-1.409","../audio/64-1-masc.mp3"," ","","O","","","",""
"","829","audio-keyboard-response","494","936782","0.0-3.0-1.410","../audio/64-2-masc.mp3"," ","","dia","","","",""
"","1069","audio-keyboard-response","495","938126","0.0-3.0-1.411","../audio/64-3-masc.mp3"," ","","começou","","","",""
"","608","audio-keyboard-response","496","939006","0.0-3.0-1.412","../audio/64-4-masc.mp3"," ","","com","","","",""
"","1139","audio-keyboard-response","497","940414","0.0-3.0-1.413","../audio/64-5-masc.mp3"," ","","garoa","","","",""
"","2789","audio-keyboard-response","498","943486","0.0-3.0-1.414","../audio/64-6-masc.mp3"," ","","gelada","","","",""
"","600","audio-keyboard-response","499","944366","0.0-3.0-1.415","../audio/64-7-masc.mp3"," ","","e","","","",""
"","1200","audio-keyboard-response","500","945838","0.0-3.0-1.416","../audio/64-8-masc.mp3"," ","","leve.","","","",""
"","null","html-keyboard-response","501","947106","0.0-3.0-0.417-0.417","<span style= ""font-size:30px; font-family: monospace"">+</span>","null","fixation","","","","",""
"","669","audio-keyboard-response","502","948062","0.0-3.0-1.417","../audio/65-1-fem.mp3"," ","","O","","","",""
"","1371","audio-keyboard-response","503","949710","0.0-3.0-1.418","../audio/65-2-fem.mp3"," ","","fantasma","","","",""
"","691","audio-keyboard-response","504","950670","0.0-3.0-1.419","../audio/65-3-fem.mp3"," ","","veio","","","",""
"","669","audio-keyboard-response","505","951614","0.0-3.0-1.420","../audio/65-4-fem.mp3"," ","","da","","","",""
"","1291","audio-keyboard-response","506","953182","0.0-3.0-1.421","../audio/65-5-fem.mp3"," ","","escuridão","","","",""
"","669","audio-keyboard-response","507","954126","0.0-3.0-1.422","../audio/65-6-fem.mp3"," ","","do","","","",""
"","1331","audio-keyboard-response","508","955742","0.0-3.0-1.423","../audio/65-7-fem.mp3"," ","","armário.","","","",""
"","5095","html-keyboard-response","509","961102","0.0-3.0-2.423-0.423","<span style=""font-size:25px; font-family: monospace"">O fantasma veio da escuridão do armário?</span>","s","","","O fantasma veio da escuridão do armário?","null","exp-sent","false"
"","null","html-keyboard-response","510","962615","0.0-3.0-0.424-0.424","<span style= ""font-size:30px; font-family: monospace"">+</span>","null","fixation","","","","",""
"","25272","audio-keyboard-response","511","988158","0.0-3.0-1.424","../audio/47-1-fem.mp3"," ","","O","","","",""
"","1139","audio-keyboard-response","512","989582","0.0-3.0-1.425","../audio/47-2-fem.mp3"," ","","tio","","","",""
"","1261","audio-keyboard-response","513","991118","0.0-3.0-1.426","../audio/47-3-fem.mp3"," ","","recusou","","","",""
"","691","audio-keyboard-response","514","992077","0.0-3.0-1.427","../audio/47-4-fem.mp3"," ","","a","","","",""
"","1491","audio-keyboard-response","515","993838","0.0-3.0-1.428","../audio/47-5-fem.mp3"," ","","sobremesa","","","",""
"","749","audio-keyboard-response","516","994862","0.0-3.0-1.429","../audio/47-6-fem.mp3"," ","","no","","","",""
"","1211","audio-keyboard-response","517","996334","0.0-3.0-1.430","../audio/47-7-fem.mp3"," ","","almoço.","","","",""
"","null","html-keyboard-response","518","997601","0.0-3.0-0.431-0.431","<span style= ""font-size:30px; font-family: monospace"">+</span>","null","fixation","","","","",""
"","971","audio-keyboard-response","519","998862","0.0-3.0-1.431","../audio/46-1-fem.mp3"," ","","Meu","","","",""
"","840","audio-keyboard-response","520","999966","0.0-3.0-1.432","../audio/46-2-fem.mp3"," ","","primo","","","",""
"","1408","audio-keyboard-response","521","1001646","0.0-3.0-1.433","../audio/46-3-fem.mp3"," ","","estava","","","",""
"","2331","audio-keyboard-response","522","1004254","0.0-3.0-1.434","../audio/46-4-fem.mp3"," ","","muito","","","",""
"","1421","audio-keyboard-response","523","1005950","0.0-3.0-1.435","../audio/46-5-fem.mp3"," ","","deprimido","","","",""
"","821","audio-keyboard-response","524","1007038","0.0-3.0-1.436","../audio/46-6-fem.mp3"," ","","no","","","",""
"","1349","audio-keyboard-response","525","1008654","0.0-3.0-1.437","../audio/46-7-fem.mp3"," ","","inverno.","","","",""
"","null","html-keyboard-response","526","1009914","0.0-3.0-0.438-0.438","<span style= ""font-size:30px; font-family: monospace"">+</span>","null","fixation","","","","",""
"","760","audio-keyboard-response","527","1010942","0.0-3.0-1.438","../audio/49-1-masc.mp3"," ","","Eu","","","",""
"","1091","audio-keyboard-response","528","1012302","0.0-3.0-1.439","../audio/49-2-masc.mp3"," ","","quero","","","",""
"","920","audio-keyboard-response","529","1013486","0.0-3.0-1.440","../audio/49-3-masc.mp3"," ","","um","","","",""
"","1200","audio-keyboard-response","530","1014958","0.0-3.0-1.441","../audio/49-4-masc.mp3"," ","","lanche","","","",""
"","1149","audio-keyboard-response","531","1016382","0.0-3.0-1.442","../audio/49-5-masc.mp3"," ","","duplo","","","",""
"","621","audio-keyboard-response","532","1017278","0.0-3.0-1.443","../audio/49-6-masc.mp3"," ","","e","","","",""
"","720","audio-keyboard-response","533","1018270","0.0-3.0-1.444","../audio/49-7-masc.mp3"," ","","um","","","",""
"","1749","audio-keyboard-response","534","1020302","0.0-3.0-1.445","../audio/49-8-masc.mp3"," ","","suco.","","","",""
"","null","html-keyboard-response","535","1021563","0.0-3.0-0.446-0.446","<span style= ""font-size:30px; font-family: monospace"">+</span>","null","fixation","","","","",""
"","931","audio-keyboard-response","536","1022782","0.0-3.0-1.446","../audio/48-1-masc.mp3"," ","","Ela","","","",""
"","1080","audio-keyboard-response","537","1024126","0.0-3.0-1.447","../audio/48-2-masc.mp3"," ","","come","","","",""
"","909","audio-keyboard-response","538","1025310","0.0-3.0-1.448","../audio/48-3-masc.mp3"," ","","feijão","","","",""
"","629","audio-keyboard-response","539","1026206","0.0-3.0-1.449","../audio/48-4-masc.mp3"," ","","com","","","",""
"","771","audio-keyboard-response","540","1027262","0.0-3.0-1.450","../audio/48-5-masc.mp3"," ","","arroz","","","",""
"","840","audio-keyboard-response","541","1028382","0.0-3.0-1.451","../audio/48-6-masc.mp3"," ","","todos","","","",""
"","552","audio-keyboard-response","542","1029198","0.0-3.0-1.452","../audio/48-7-masc.mp3"," ","","os","","","",""
"","669","audio-keyboard-response","543","1030126","0.0-3.0-1.453","../audio/48-8-masc.mp3"," ","","dias.","","","",""
"","null","html-keyboard-response","544","1031396","0.0-3.0-0.454-0.454","<span style= ""font-size:30px; font-family: monospace"">+</span>","null","fixation","","","","",""
"","579","audio-keyboard-response","545","1032253","0.0-3.0-1.454","../audio/50-1-masc.mp3"," ","","O","","","",""
"","1029","audio-keyboard-response","546","1033550","0.0-3.0-1.455","../audio/50-2-masc.mp3"," ","","pássaro","","","",""
"","939","audio-keyboard-response","547","1034782","0.0-3.0-1.456","../audio/50-3-masc.mp3"," ","","fugiu","","","",""
"","651","audio-keyboard-response","548","1035710","0.0-3.0-1.457","../audio/50-4-masc.mp3"," ","","da","","","",""
"","1200","audio-keyboard-response","549","1037182","0.0-3.0-1.458","../audio/50-5-masc.mp3"," ","","gaiola","","","",""
"","720","audio-keyboard-response","550","1038174","0.0-3.0-1.459","../audio/50-6-masc.mp3"," ","","pela","","","",""
"","1971","audio-keyboard-response","551","1040414","0.0-3.0-1.460","../audio/50-7-masc.mp3"," ","","portinhola.","","","",""
"","10995","html-keyboard-response","552","1051662","0.0-3.0-2.460-0.460","<span style=""font-size:25px; font-family: monospace"">O pássaro fugiu da gaiola?</span>","s","","","O pássaro fugiu da gaiola?","null","exp-sent","false"
"","null","html-keyboard-response","553","1053180","0.0-3.0-0.461-0.461","<span style= ""font-size:30px; font-family: monospace"">+</span>","null","fixation","","","","",""
"","1789","audio-keyboard-response","554","1055245","0.0-3.0-1.461","../audio/31-1-fem.mp3"," ","","O","","","",""
"","4680","audio-keyboard-response","555","1060221","0.0-3.0-1.462","../audio/31-2-fem.mp3"," ","","padeiro","","","",""
"","1360","audio-keyboard-response","556","1061853","0.0-3.0-1.463","../audio/31-3-fem.mp3"," ","","usou","","","",""
"","661","audio-keyboard-response","557","1062797","0.0-3.0-1.464","../audio/31-4-fem.mp3"," ","","a","","","",""
"","1109","audio-keyboard-response","558","1064173","0.0-3.0-1.465","../audio/31-5-fem.mp3"," ","","balança","","","",""
"","469","audio-keyboard-response","559","1064909","0.0-3.0-1.466","../audio/31-6-fem.mp3"," ","","o","","","",""
"","619","audio-keyboard-response","560","1065805","0.0-3.0-1.467","../audio/31-7-fem.mp3"," ","","dia","","","",""
"","1400","audio-keyboard-response","561","1067485","0.0-3.0-1.468","../audio/31-8-fem.mp3"," ","","inteiro.","","","",""
"","null","html-keyboard-response","562","1068763","0.0-3.0-0.469-0.469","<span style= ""font-size:30px; font-family: monospace"">+</span>","null","fixation","","","","",""
"","1160","audio-keyboard-response","563","1070205","0.0-3.0-1.469","../audio/34-1-fem.mp3"," ","","Cobrança","","","",""
"","1949","audio-keyboard-response","564","1072429","0.0-3.0-1.470","../audio/34-2-fem.mp3"," ","","excessiva","","","",""
"","1251","audio-keyboard-response","565","1073949","0.0-3.0-1.471","../audio/34-3-fem.mp3"," ","","é","","","",""
"","680","audio-keyboard-response","566","1074909","0.0-3.0-1.472","../audio/34-4-fem.mp3"," ","","um","","","",""
"","1160","audio-keyboard-response","567","1076333","0.0-3.0-1.473","../audio/34-5-fem.mp3"," ","","fardo","","","",""
"","800","audio-keyboard-response","568","1077405","0.0-3.0-1.474","../audio/34-6-fem.mp3"," ","","para","","","",""
"","872","audio-keyboard-response","569","1078557","0.0-3.0-1.475","../audio/34-7-fem.mp3"," ","","a","","","",""
"","2109","audio-keyboard-response","570","1080942","0.0-3.0-1.476","../audio/34-8-fem.mp3"," ","","cabeça.","","","",""
"","null","html-keyboard-response","571","1082211","0.0-3.0-0.477-0.477","<span style= ""font-size:30px; font-family: monospace"">+</span>","null","fixation","","","","",""
"","560","audio-keyboard-response","572","1083054","0.0-3.0-1.477","../audio/32-1-masc.mp3"," ","","A","","","",""
"","789","audio-keyboard-response","573","1084109","0.0-3.0-1.478","../audio/32-2-masc.mp3"," ","","tia","","","",""
"","600","audio-keyboard-response","574","1084973","0.0-3.0-1.479","../audio/32-3-masc.mp3"," ","","comprou","","","",""
"","821","audio-keyboard-response","575","1086077","0.0-3.0-1.480","../audio/32-4-masc.mp3"," ","","um","","","",""
"","1229","audio-keyboard-response","576","1087581","0.0-3.0-1.481","../audio/32-5-masc.mp3"," ","","pilão","","","",""
"","1080","audio-keyboard-response","577","1088941","0.0-3.0-1.482","../audio/32-6-masc.mp3"," ","","para","","","",""
"","781","audio-keyboard-response","578","1089997","0.0-3.0-1.483","../audio/32-7-masc.mp3"," ","","a","","","",""
"","1419","audio-keyboard-response","579","1091693","0.0-3.0-1.484","../audio/32-8-masc.mp3"," ","","cozinha.","","","",""
"","null","html-keyboard-response","580","1092972","0.0-3.0-0.485-0.485","<span style= ""font-size:30px; font-family: monospace"">+</span>","null","fixation","","","","",""
"","1189","audio-keyboard-response","581","1094445","0.0-3.0-1.485","../audio/33-1-fem.mp3"," ","","Eles","","","",""
"","829","audio-keyboard-response","582","1095549","0.0-3.0-1.486","../audio/33-2-fem.mp3"," ","","sabem","","","",""
"","1800","audio-keyboard-response","583","1097613","0.0-3.0-1.487","../audio/33-3-fem.mp3"," ","","do","","","",""
"","1120","audio-keyboard-response","584","1099005","0.0-3.0-1.488","../audio/33-4-fem.mp3"," ","","seu","","","",""
"","1192","audio-keyboard-response","585","1100477","0.0-3.0-1.489","../audio/33-5-fem.mp3"," ","","privilégio","","","",""
"","1069","audio-keyboard-response","586","1101821","0.0-3.0-1.490","../audio/33-6-fem.mp3"," ","","nessa","","","",""
"","1381","audio-keyboard-response","587","1103469","0.0-3.0-1.491","../audio/33-7-fem.mp3"," ","","confusão.","","","",""
"","null","html-keyboard-response","588","1104736","0.0-3.0-0.492-0.492","<span style= ""font-size:30px; font-family: monospace"">+</span>","null","fixation","","","","",""
"","741","audio-keyboard-response","589","1105757","0.0-3.0-1.492","../audio/35-1-fem.mp3"," ","","A","","","",""
"","939","audio-keyboard-response","590","1106973","0.0-3.0-1.493","../audio/35-2-fem.mp3"," ","","receita","","","",""
"","811","audio-keyboard-response","591","1108061","0.0-3.0-1.494","../audio/35-3-fem.mp3"," ","","para","","","",""
"","589","audio-keyboard-response","592","1108925","0.0-3.0-1.495","../audio/35-4-fem.mp3"," ","","a","","","",""
"","1168","audio-keyboard-response","593","1110365","0.0-3.0-1.496","../audio/35-5-fem.mp3"," ","","preparação","","","",""
"","640","audio-keyboard-response","594","1111277","0.0-3.0-1.497","../audio/35-6-fem.mp3"," ","","do","","","",""
"","819","audio-keyboard-response","595","1112381","0.0-3.0-1.498","../audio/35-7-fem.mp3"," ","","bolo","","","",""
"","552","audio-keyboard-response","596","1113196","0.0-3.0-1.499","../audio/35-8-fem.mp3"," ","","é","","","",""
"","1531","audio-keyboard-response","597","1114989","0.0-3.0-1.500","../audio/35-9-fem.mp3"," ","","leve.","","","",""
"","4407","html-keyboard-response","598","1119661","0.0-3.0-2.500-0.500","<span style=""font-size:25px; font-family: monospace"">A receita do bolo é pesada?</span>","n","","","A receita do bolo é pesada?","null","exp-sent","false"
"","null","html-keyboard-response","599","1121182","0.0-3.0-0.501-0.501","<span style= ""font-size:30px; font-family: monospace"">+</span>","null","fixation","","","","",""
"","579","audio-keyboard-response","600","1122045","0.0-3.0-1.501","../audio/28-1-fem.mp3"," ","","O","","","",""
"","859","audio-keyboard-response","601","1123181","0.0-3.0-1.502","../audio/28-2-fem.mp3"," ","","time","","","",""
"","880","audio-keyboard-response","602","1124333","0.0-3.0-1.503","../audio/28-3-fem.mp3"," ","","quer","","","",""
"","619","audio-keyboard-response","603","1125213","0.0-3.0-1.504","../audio/28-4-fem.mp3"," ","","a","","","",""
"","960","audio-keyboard-response","604","1126445","0.0-3.0-1.505","../audio/28-5-fem.mp3"," ","","vitória","","","",""
"","619","audio-keyboard-response","605","1127341","0.0-3.0-1.506","../audio/28-6-fem.mp3"," ","","no","","","",""
"","891","audio-keyboard-response","606","1128509","0.0-3.0-1.507","../audio/28-7-fem.mp3"," ","","jogo","","","",""
"","680","audio-keyboard-response","607","1129469","0.0-3.0-1.508","../audio/28-8-fem.mp3"," ","","de","","","",""
"","1259","audio-keyboard-response","608","1131005","0.0-3.0-1.509","../audio/28-9-fem.mp3"," ","","vôlei.","","","",""
"","null","html-keyboard-response","609","1132276","0.0-3.0-0.510-0.510","<span style= ""font-size:30px; font-family: monospace"">+</span>","null","fixation","","","","",""
"","739","audio-keyboard-response","610","1133293","0.0-3.0-1.510","../audio/27-1-masc.mp3"," ","","O","","","",""
"","1440","audio-keyboard-response","611","1135005","0.0-3.0-1.511","../audio/27-2-masc.mp3"," ","","dinheiro","","","",""
"","2131","audio-keyboard-response","612","1137421","0.0-3.0-1.512","../audio/27-3-masc.mp3"," ","","chegou","","","",""
"","800","audio-keyboard-response","613","1138493","0.0-3.0-1.513","../audio/27-4-masc.mp3"," ","","à","","","",""
"","1101","audio-keyboard-response","614","1139869","0.0-3.0-1.514","../audio/27-5-masc.mp3"," ","","elite","","","",""
"","949","audio-keyboard-response","615","1141085","0.0-3.0-1.515","../audio/27-6-masc.mp3"," ","","deste","","","",""
"","1059","audio-keyboard-response","616","1142413","0.0-3.0-1.516","../audio/27-7-masc.mp3"," ","","país.","","","",""
"","null","html-keyboard-response","617","1143686","0.0-3.0-0.517-0.517","<span style= ""font-size:30px; font-family: monospace"">+</span>","null","fixation","","","","",""
"","2880","audio-keyboard-response","618","1146844","0.0-3.0-1.517","../audio/29-1-masc.mp3"," ","","Hoje","","","",""
"","1131","audio-keyboard-response","619","1148253","0.0-3.0-1.518","../audio/29-2-masc.mp3"," ","","vamos","","","",""
"","800","audio-keyboard-response","620","1149325","0.0-3.0-1.519","../audio/29-3-masc.mp3"," ","","fazer","","","",""
"","691","audio-keyboard-response","621","1150301","0.0-3.0-1.520","../audio/29-4-masc.mp3"," ","","uma","","","",""
"","1171","audio-keyboard-response","622","1151741","0.0-3.0-1.521","../audio/29-5-masc.mp3"," ","","atividade","","","",""
"","1291","audio-keyboard-response","623","1153293","0.0-3.0-1.522","../audio/29-6-masc.mp3"," ","","sobre","","","",""
"","1152","audio-keyboard-response","624","1154716","0.0-3.0-1.523","../audio/29-7-masc.mp3"," ","","fauna","","","",""
"","1160","audio-keyboard-response","625","1156333","0.0-3.0-1.524","../audio/29-8-masc.mp3"," ","","marinha.","","","",""
"","null","html-keyboard-response","626","1157595","0.0-3.0-0.525-0.525","<span style= ""font-size:30px; font-family: monospace"">+</span>","null","fixation","","","","",""
"","1120","audio-keyboard-response","627","1158989","0.0-3.0-1.525","../audio/26-1-fem.mp3"," ","","Amanhã","","","",""
"","1099","audio-keyboard-response","628","1160365","0.0-3.0-1.526","../audio/26-2-fem.mp3"," ","","temos","","","",""
"","848","audio-keyboard-response","629","1161485","0.0-3.0-1.527","../audio/26-3-fem.mp3"," ","","festa","","","",""
"","840","audio-keyboard-response","630","1162605","0.0-3.0-1.528","../audio/26-4-fem.mp3"," ","","na","","","",""
"","1149","audio-keyboard-response","631","1164029","0.0-3.0-1.529","../audio/26-5-fem.mp3"," ","","piscina","","","",""
"","1360","audio-keyboard-response","632","1165661","0.0-3.0-1.530","../audio/26-6-fem.mp3"," ","","o","","","",""
"","792","audio-keyboard-response","633","1166716","0.0-3.0-1.531","../audio/26-7-fem.mp3"," ","","dia","","","",""
"","1059","audio-keyboard-response","634","1168061","0.0-3.0-1.532","../audio/26-8-fem.mp3"," ","","todo.","","","",""
"","null","html-keyboard-response","635","1169334","0.0-3.0-0.533-0.533","<span style= ""font-size:30px; font-family: monospace"">+</span>","null","fixation","","","","",""
"","1149","audio-keyboard-response","636","1170764","0.0-3.0-1.533","../audio/30-1-masc.mp3"," ","","O","","","",""
"","1259","audio-keyboard-response","637","1172285","0.0-3.0-1.534","../audio/30-2-masc.mp3"," ","","funcionário","","","",""
"","1168","audio-keyboard-response","638","1173725","0.0-3.0-1.535","../audio/30-3-masc.mp3"," ","","entregou","","","",""
"","680","audio-keyboard-response","639","1174685","0.0-3.0-1.536","../audio/30-4-masc.mp3"," ","","o","","","",""
"","1328","audio-keyboard-response","640","1176285","0.0-3.0-1.537","../audio/30-5-masc.mp3"," ","","restante","","","",""
"","829","audio-keyboard-response","641","1177373","0.0-3.0-1.538","../audio/30-6-masc.mp3"," ","","do","","","",""
"","1131","audio-keyboard-response","642","1178781","0.0-3.0-1.539","../audio/30-7-masc.mp3"," ","","dinheiro.","","","",""
"","5446","html-keyboard-response","643","1184477","0.0-3.0-2.539-0.539","<span style=""font-size:25px; font-family: monospace"">O funcionário entregou o contrato?</span>","n","","","O funcionário entregou o contrato?","null","exp-sent","false"
"","null","html-keyboard-response","644","1186006","0.0-3.0-0.540-0.540","<span style= ""font-size:30px; font-family: monospace"">+</span>","null","fixation","","","","",""
"","789","audio-keyboard-response","645","1187069","0.0-3.0-1.540","../audio/03-1-masc.mp3"," ","","O","","","",""
"","1080","audio-keyboard-response","646","1188413","0.0-3.0-1.541","../audio/03-2-masc.mp3"," ","","coelho","","","",""
"","709","audio-keyboard-response","647","1189389","0.0-3.0-1.542","../audio/03-3-masc.mp3"," ","","foi","","","",""
"","1611","audio-keyboard-response","648","1191293","0.0-3.0-1.543","../audio/03-4-masc.mp3"," ","","bastante","","","",""
"","8280","audio-keyboard-response","649","1199837","0.0-3.0-1.544","../audio/03-5-masc.mp3"," ","","dócil","","","",""
"","779","audio-keyboard-response","650","1200893","0.0-3.0-1.545","../audio/03-6-masc.mp3"," ","","com","","","",""
"","568","audio-keyboard-response","651","1201725","0.0-3.0-1.546","../audio/03-7-masc.mp3"," ","","as","","","",""
"","1032","audio-keyboard-response","652","1203037","0.0-3.0-1.547","../audio/03-8-masc.mp3"," ","","crianças.","","","",""
"","null","html-keyboard-response","653","1204313","0.0-3.0-0.548-0.548","<span style= ""font-size:30px; font-family: monospace"">+</span>","null","fixation","","","","",""
"","6739","audio-keyboard-response","654","1211341","0.0-3.0-1.548","../audio/02-2-masc.mp3"," ","","Havia","","","",""
"","589","audio-keyboard-response","655","1212189","0.0-3.0-1.549","../audio/02-2-masc.mp3"," ","","um","","","",""
"","1480","audio-keyboard-response","656","1213933","0.0-3.0-1.550","../audio/02-3-masc.mp3"," ","","cheiro","","","",""
"","891","audio-keyboard-response","657","1215101","0.0-3.0-1.551","../audio/02-4-masc.mp3"," ","","de","","","",""
"","6891","audio-keyboard-response","658","1222269","0.0-3.0-1.552","../audio/02-5-masc.mp3"," ","","gasolina","","","",""
"","1221","audio-keyboard-response","659","1223757","0.0-3.0-1.553","../audio/02-6-masc.mp3"," ","","na","","","",""
"","979","audio-keyboard-response","660","1225005","0.0-3.0-1.554","../audio/02-7-masc.mp3"," ","","garagem.","","","",""
"","null","html-keyboard-response","661","1226266","0.0-3.0-0.555-0.555","<span style= ""font-size:30px; font-family: monospace"">+</span>","null","fixation","","","","",""
"","1029","audio-keyboard-response","662","1227581","0.0-3.0-1.555","../audio/04-1-fem.mp3"," ","","Duzentos","","","",""
"","600","audio-keyboard-response","663","1228461","0.0-3.0-1.556","../audio/04-2-fem.mp3"," ","","carros","","","",""
"","1051","audio-keyboard-response","664","1229773","0.0-3.0-1.557","../audio/04-3-fem.mp3"," ","","passaram","","","",""
"","699","audio-keyboard-response","665","1230732","0.0-3.0-1.558","../audio/04-4-fem.mp3"," ","","pela","","","",""
"","731","audio-keyboard-response","666","1231741","0.0-3.0-1.559","../audio/04-5-fem.mp3"," ","","ponte","","","",""
"","1051","audio-keyboard-response","667","1233069","0.0-3.0-1.560","../audio/04-6-fem.mp3"," ","","hoje","","","",""
"","629","audio-keyboard-response","668","1233965","0.0-3.0-1.561","../audio/04-7-fem.mp3"," ","","de","","","",""
"","1099","audio-keyboard-response","669","1235324","0.0-3.0-1.562","../audio/04-8-fem.mp3"," ","","tarde.","","","",""
"","null","html-keyboard-response","670","1236590","0.0-3.0-0.563-0.563","<span style= ""font-size:30px; font-family: monospace"">+</span>","null","fixation","","","","",""
"","651","audio-keyboard-response","671","1237516","0.0-3.0-1.563","../audio/01-1-fem.mp3"," ","","O","","","",""
"","1029","audio-keyboard-response","672","1238812","0.0-3.0-1.564","../audio/01-2-fem.mp3"," ","","menino","","","",""
"","1040","audio-keyboard-response","673","1240124","0.0-3.0-1.565","../audio/01-3-fem.mp3"," ","","derrubou","","","",""
"","1291","audio-keyboard-response","674","1241692","0.0-3.0-1.566","../audio/01-4-fem.mp3"," ","","a","","","",""
"","992","audio-keyboard-response","675","1242957","0.0-3.0-1.567","../audio/01-5-fem.mp3"," ","","guitarra","","","",""
"","579","audio-keyboard-response","676","1243804","0.0-3.0-1.568","../audio/01-6-fem.mp3"," ","","no","","","",""
"","909","audio-keyboard-response","677","1244972","0.0-3.0-1.569","../audio/01-7-fem.mp3"," ","","chão.","","","",""
"","null","html-keyboard-response","678","1246247","0.0-3.0-0.570-0.570","<span style= ""font-size:30px; font-family: monospace"">+</span>","null","fixation","","","","",""
"","501","audio-keyboard-response","679","1247036","0.0-3.0-1.570","../audio/05-1-fem.mp3"," ","","A","","","",""
"","1280","audio-keyboard-response","680","1248588","0.0-3.0-1.571","../audio/05-2-fem.mp3"," ","","vendedora","","","",""
"","1000","audio-keyboard-response","681","1249869","0.0-3.0-1.572","../audio/05-3-fem.mp3"," ","","ajudou","","","",""
"","581","audio-keyboard-response","682","1250716","0.0-3.0-1.573","../audio/05-4-fem.mp3"," ","","um","","","",""
"","1139","audio-keyboard-response","683","1252140","0.0-3.0-1.574","../audio/05-5-fem.mp3"," ","","turista","","","",""
"","760","audio-keyboard-response","684","1253164","0.0-3.0-1.575","../audio/05-6-fem.mp3"," ","","na","","","",""
"","1419","audio-keyboard-response","685","1254860","0.0-3.0-1.576","../audio/05-7-fem.mp3"," ","","loja.","","","",""
"","5205","html-keyboard-response","686","1260316","0.0-3.0-2.576-0.576","<span style=""font-size:25px; font-family: monospace"">A vendedora ajudou um turista?</span>","n","","","A vendedora ajudou um turista?","null","exp-sent","false"
"","null","html-keyboard-response","687","1261843","0.0-3.0-0.577-0.577","<span style= ""font-size:30px; font-family: monospace"">+</span>","null","fixation","","","","",""
"","691","audio-keyboard-response","688","1262813","0.0-3.0-1.577","../audio/79-1-fem.mp3"," ","","A","","","",""
"","3739","audio-keyboard-response","689","1266812","0.0-3.0-1.578","../audio/79-2-fem.mp3"," ","","médica","","","",""
"","2080","audio-keyboard-response","690","1269164","0.0-3.0-1.579","../audio/79-3-fem.mp3"," ","","verificou","","","",""
"","661","audio-keyboard-response","691","1270108","0.0-3.0-1.580","../audio/79-4-fem.mp3"," ","","a","","","",""
"","1349","audio-keyboard-response","692","1271724","0.0-3.0-1.581","../audio/79-5-fem.mp3"," ","","gengiva","","","",""
"","539","audio-keyboard-response","693","1272540","0.0-3.0-1.582","../audio/79-6-fem.mp3"," ","","por","","","",""
"","1451","audio-keyboard-response","694","1274268","0.0-3.0-1.583","../audio/79-7-fem.mp3"," ","","último.","","","",""
"","null","html-keyboard-response","695","1275545","0.0-3.0-0.584-0.584","<span style= ""font-size:30px; font-family: monospace"">+</span>","null","fixation","","","","",""
"","869","audio-keyboard-response","696","1276700","0.0-3.0-1.584","../audio/78-1-masc.mp3"," ","","Eles","","","",""
"","909","audio-keyboard-response","697","1277884","0.0-3.0-1.585","../audio/78-2-masc.mp3"," ","","trazem","","","",""
"","720","audio-keyboard-response","698","1278876","0.0-3.0-1.586","../audio/78-3-masc.mp3"," ","","um","","","",""
"","771","audio-keyboard-response","699","1279916","0.0-3.0-1.587","../audio/78-4-masc.mp3"," ","","fato","","","",""
"","1208","audio-keyboard-response","700","1281404","0.0-3.0-1.588","../audio/78-5-masc.mp3"," ","","urgente","","","",""
"","560","audio-keyboard-response","701","1282236","0.0-3.0-1.589","../audio/78-6-masc.mp3"," ","","todos","","","",""
"","749","audio-keyboard-response","702","1283260","0.0-3.0-1.590","../audio/78-7-masc.mp3"," ","","os","","","",""
"","880","audio-keyboard-response","703","1284412","0.0-3.0-1.591","../audio/78-8-masc.mp3"," ","","dias.","","","",""
"","null","html-keyboard-response","704","1285692","0.0-3.0-0.592-0.592","<span style= ""font-size:30px; font-family: monospace"">+</span>","null","fixation","","","","",""
"","621","audio-keyboard-response","705","1286588","0.0-3.0-1.592","../audio/76-1-fem.mp3"," ","","O","","","",""
"","1229","audio-keyboard-response","706","1288092","0.0-3.0-1.593","../audio/76-2-fem.mp3"," ","","bisavô","","","",""
"","1520","audio-keyboard-response","707","1289884","0.0-3.0-1.594","../audio/76-3-fem.mp3"," ","","comprou","","","",""
"","760","audio-keyboard-response","708","1290908","0.0-3.0-1.595","../audio/76-4-fem.mp3"," ","","um","","","",""
"","1301","audio-keyboard-response","709","1292476","0.0-3.0-1.596","../audio/76-5-fem.mp3"," ","","ralador","","","",""
"","728","audio-keyboard-response","710","1293484","0.0-3.0-1.597","../audio/76-6-fem.mp3"," ","","de","","","",""
"","1379","audio-keyboard-response","711","1295132","0.0-3.0-1.598","../audio/76-7-fem.mp3"," ","","queijo.","","","",""
"","null","html-keyboard-response","712","1296404","0.0-3.0-0.599-0.599","<span style= ""font-size:30px; font-family: monospace"">+</span>","null","fixation","","","","",""
"","592","audio-keyboard-response","713","1297276","0.0-3.0-1.599","../audio/77-1-masc.mp3"," ","","A","","","",""
"","1011","audio-keyboard-response","714","1298556","0.0-3.0-1.600","../audio/77-2-masc.mp3"," ","","criança","","","",""
"","829","audio-keyboard-response","715","1299660","0.0-3.0-1.601","../audio/77-3-masc.mp3"," ","","ficou","","","",""
"","1080","audio-keyboard-response","716","1301020","0.0-3.0-1.602","../audio/77-4-masc.mp3"," ","","muito","","","",""
"","891","audio-keyboard-response","717","1302188","0.0-3.0-1.603","../audio/77-5-masc.mp3"," ","","feliz","","","",""
"","619","audio-keyboard-response","718","1303084","0.0-3.0-1.604","../audio/77-6-masc.mp3"," ","","com","","","",""
"","640","audio-keyboard-response","719","1303996","0.0-3.0-1.605","../audio/77-7-masc.mp3"," ","","o","","","",""
"","1000","audio-keyboard-response","720","1305276","0.0-3.0-1.606","../audio/77-8-masc.mp3"," ","","brinquedo.","","","",""
"","null","html-keyboard-response","721","1306543","0.0-3.0-0.607-0.607","<span style= ""font-size:30px; font-family: monospace"">+</span>","null","fixation","","","","",""
"","499","audio-keyboard-response","722","1307324","0.0-3.0-1.607","../audio/80-1-masc.mp3"," ","","Meu","","","",""
"","669","audio-keyboard-response","723","1308252","0.0-3.0-1.608","../audio/80-2-masc.mp3"," ","","primo","","","",""
"","1131","audio-keyboard-response","724","1309660","0.0-3.0-1.609","../audio/80-3-masc.mp3"," ","","conheceu","","","",""
"","632","audio-keyboard-response","725","1310556","0.0-3.0-1.610","../audio/80-4-masc.mp3"," ","","um","","","",""
"","880","audio-keyboard-response","726","1311708","0.0-3.0-1.611","../audio/80-5-masc.mp3"," ","","jovem","","","",""
"","981","audio-keyboard-response","727","1312956","0.0-3.0-1.612","../audio/80-6-masc.mp3"," ","","amável","","","",""
"","731","audio-keyboard-response","728","1313948","0.0-3.0-1.613","../audio/80-7-masc.mp3"," ","","e","","","",""
"","1480","audio-keyboard-response","729","1315708","0.0-3.0-1.614","../audio/80-8-masc.mp3"," ","","confiante.","","","",""
"","13829","html-keyboard-response","730","1329788","0.0-3.0-2.614-0.614","<span style=""font-size:25px; font-family: monospace"">O primo conheceu um jovem irritante?</span>","s","","","O primo conheceu um jovem irritante?","null","exp-sent","false"
"[{""page_index"":0,""viewing_time"":11792}]","11792","instructions","731","1342085","0.0-4.0","","","","","","","",""
