[
	{
		"view_history": [
			{
				"page_index": 0,
				"viewing_time": 1564
			}
		],
		"rt": 1565,
		"trial_type": "instructions",
		"trial_index": 0,
		"time_elapsed": 1565,
		"internal_node_id": "0.0-0.0"
	},
	{
		"rt": 90434,
		"response": {
			"reading_habits_printed_magazines": "Nunca",
			"reading_habits_printed_newspapers": "Raramente",
			"reading_habits_books": "Raramente",
			"reading_habits_printed_socialmedias": "Nunca"
		},
		"question_order": [
			0,
			1,
			2,
			3
		],
		"trial_type": "survey-multi-choice",
		"trial_index": 1,
		"time_elapsed": 92101,
		"internal_node_id": "0.0-1.0"
	},
	{
		"rt": 52937,
		"response": {
			"reading_habits_virtual_magazines": "Nunca",
			"reading_habits_virtual_newspapers": "Uma vez por semana",
			"reading_habits_books": "Nunca",
			"reading_habits_virtual_socialmedias": "Nunca"
		},
		"question_order": [
			0,
			1,
			2,
			3
		],
		"trial_type": "survey-multi-choice",
		"trial_index": 2,
		"time_elapsed": 145141,
		"internal_node_id": "0.0-2.0"
	},
	{
		"rt": 14634,
		"response": {
			"reading_habits_other_which": "",
			"reading_habits_other_frequency": ""
		},
		"trial_type": "survey-text",
		"trial_index": 3,
		"time_elapsed": 159876,
		"internal_node_id": "0.0-3.0"
	}
]