"view_history","rt","trial_type","trial_index","time_elapsed","internal_node_id","stimulus","response","portuguese","kreyol"
"[{""page_index"":0,""viewing_time"":17230}]","17230","instructions","0","17233","0.0-0.0","","","",""
"","null","html-keyboard-response","1","17835","0.0-1.0-0.0","+","null","",""
"","46971","audio-keyboard-response","2","64815","0.0-1.0-1.0","../audio/teste-vocab--02.mp3","s","homem","gason"
"","null","html-keyboard-response","3","65316","0.0-1.0-0.1","+","null","",""
"","3520","audio-keyboard-response","4","69054","0.0-1.0-1.1","../audio/teste-vocab--116.mp3","s","vestuário","vestyè"
"","null","html-keyboard-response","5","69556","0.0-1.0-0.2","+","null","",""
"","10560","audio-keyboard-response","6","80143","0.0-1.0-1.2","../audio/teste-vocab--17.mp3","s","móvel","mobil"
"","null","html-keyboard-response","7","80655","0.0-1.0-0.3","+","null","",""
"","6531","audio-keyboard-response","8","87231","0.0-1.0-1.3","../audio/teste-vocab--08.mp3","s","vaca","vach"
"","null","html-keyboard-response","9","87740","0.0-1.0-0.4","+","null","",""
"","5261","audio-keyboard-response","10","93008","0.0-1.0-1.4","../audio/teste-vocab--107.mp3","s","elo","emay"
"","null","html-keyboard-response","11","93511","0.0-1.0-0.5","+","null","",""
"","3800","audio-keyboard-response","12","97343","0.0-1.0-1.5","../audio/teste-vocab--44.mp3","s","premiar","rekonpanse"
"","null","html-keyboard-response","13","97845","0.0-1.0-0.6","+","null","",""
"","13131","audio-keyboard-response","14","111008","0.0-1.0-1.6","../audio/teste-vocab--04.mp3","s","roda","wonn"
"","null","html-keyboard-response","15","111524","0.0-1.0-0.7","+","null","",""
"","3661","audio-keyboard-response","16","115247","0.0-1.0-1.7","../audio/teste-vocab--109.mp3","n","anfíbio","anfibyen"
"","null","html-keyboard-response","17","115755","0.0-1.0-0.8","+","null","",""
"","2920","audio-keyboard-response","18","118703","0.0-1.0-1.8","../audio/teste-vocab--11.mp3","s","joelho","jenou"
"","null","html-keyboard-response","19","119209","0.0-1.0-0.9","+","null","",""
"","3171","audio-keyboard-response","20","122399","0.0-1.0-1.9","../audio/teste-vocab--20.mp3","s","medir","mezire"
"","null","html-keyboard-response","21","122915","0.0-1.0-0.10","+","null","",""
"","2749","audio-keyboard-response","22","125709","0.0-1.0-1.10","../audio/teste-vocab--86.mp3","s","pensar","panse"
"","null","html-keyboard-response","23","126225","0.0-1.0-0.11","+","null","",""
"","4829","audio-keyboard-response","24","131085","0.0-1.0-1.11","../audio/teste-vocab--36.mp3","s","grupo","gwoup"
"","null","html-keyboard-response","25","131591","0.0-1.0-0.12","+","null","",""
"","4989","audio-keyboard-response","26","136622","0.0-1.0-1.12","../audio/teste-vocab--19.mp3","s","hora","è"
"","null","html-keyboard-response","27","137137","0.0-1.0-0.13","+","null","",""
"","2701","audio-keyboard-response","28","139885","0.0-1.0-1.13","../audio/teste-vocab--106.mp3","n","lubrificar","grese"
"","null","html-keyboard-response","29","140400","0.0-1.0-0.14","+","null","",""
"","3779","audio-keyboard-response","30","144221","0.0-1.0-1.14","../audio/teste-vocab--83.mp3","n","morsa","mòs"
"","null","html-keyboard-response","31","144727","0.0-1.0-0.15","+","null","",""
"","2971","audio-keyboard-response","32","147758","0.0-1.0-1.15","../audio/teste-vocab--124.mp3","n","obelisco","obelisk"
"","null","html-keyboard-response","33","148269","0.0-1.0-0.16","+","null","",""
"","2360","audio-keyboard-response","34","150669","0.0-1.0-1.16","../audio/teste-vocab--03.mp3","s","balançar","balanse"
"","null","html-keyboard-response","35","151177","0.0-1.0-0.17","+","null","",""
"","2920","audio-keyboard-response","36","154141","0.0-1.0-1.17","../audio/teste-vocab--80.mp3","s","binóculo","longvi"
"","null","html-keyboard-response","37","154651","0.0-1.0-0.18","+","null","",""
"","2400","audio-keyboard-response","38","157101","0.0-1.0-1.18","../audio/teste-vocab--57.mp3","s","raiz","rasin"
"","null","html-keyboard-response","39","157609","0.0-1.0-0.19","+","null","",""
"","3899","audio-keyboard-response","40","161549","0.0-1.0-1.19","../audio/teste-vocab--125.mp3","s","lamaçal","labou"
"","null","html-keyboard-response","41","162053","0.0-1.0-0.20","+","null","",""
"","2792","audio-keyboard-response","42","164893","0.0-1.0-1.20","../audio/teste-vocab--43.mp3","s","mecânico","mekanisyen"
"","null","html-keyboard-response","43","165402","0.0-1.0-0.21","+","null","",""
"","9861","audio-keyboard-response","44","175293","0.0-1.0-1.21","../audio/teste-vocab--78.mp3","s","quarteto","qwatèt"
"","null","html-keyboard-response","45","175801","0.0-1.0-0.22","+","null","",""
"","2581","audio-keyboard-response","46","178413","0.0-1.0-1.22","../audio/teste-vocab--37.mp3","s","músico","mizisyen"
"","null","html-keyboard-response","47","178917","0.0-1.0-0.23","+","null","",""
"","3131","audio-keyboard-response","48","182093","0.0-1.0-1.23","../audio/teste-vocab--66.mp3","n","cooperação","koperasyon"
"","null","html-keyboard-response","49","182610","0.0-1.0-0.24","+","null","",""
"","2160","audio-keyboard-response","50","184814","0.0-1.0-1.24","../audio/teste-vocab--92.mp3","n","esférico","won"
"","null","html-keyboard-response","51","185323","0.0-1.0-0.25","+","null","",""
"","1979","audio-keyboard-response","52","187340","0.0-1.0-1.25","../audio/teste-vocab--10.mp3","n","corneta","kòn"
"","null","html-keyboard-response","53","187843","0.0-1.0-0.26","+","null","",""
"","3251","audio-keyboard-response","54","191132","0.0-1.0-1.26","../audio/teste-vocab--81.mp3","s","judicial","jidisyè"
"","null","html-keyboard-response","55","191639","0.0-1.0-0.27","+","null","",""
"","2459","audio-keyboard-response","56","194140","0.0-1.0-1.27","../audio/teste-vocab--119.mp3","s","numeroso","anpil"
"","null","html-keyboard-response","57","194646","0.0-1.0-0.28","+","null","",""
"","2419","audio-keyboard-response","58","197100","0.0-1.0-1.28","../audio/teste-vocab--49.mp3","s","humano","moun"
"","null","html-keyboard-response","59","197608","0.0-1.0-0.29","+","null","",""
"","2619","audio-keyboard-response","60","200268","0.0-1.0-1.29","../audio/teste-vocab--30.mp3","n","pintor","pent"
"","null","html-keyboard-response","61","200770","0.0-1.0-0.30","+","null","",""
"","2411","audio-keyboard-response","62","203243","0.0-1.0-1.30","../audio/teste-vocab--88.mp3","s","portátil","pòtab"
"","null","html-keyboard-response","63","203759","0.0-1.0-0.31","+","null","",""
"","2221","audio-keyboard-response","64","205996","0.0-1.0-1.31","../audio/teste-vocab--14.mp3","s","ler","li"
"","null","html-keyboard-response","65","206503","0.0-1.0-0.32","+","null","",""
"","2309","audio-keyboard-response","66","208860","0.0-1.0-1.32","../audio/teste-vocab--41.mp3","s","médico","doktè,"
"","null","html-keyboard-response","67","209367","0.0-1.0-0.33","+","null","",""
"","3451","audio-keyboard-response","68","212844","0.0-1.0-1.33","../audio/teste-vocab--84.mp3","s","confiar","konfye"
"","null","html-keyboard-response","69","213354","0.0-1.0-0.34","+","null","",""
"","2149","audio-keyboard-response","70","215516","0.0-1.0-1.34","../audio/teste-vocab--98.mp3","s","instruir","enstwi"
"","null","html-keyboard-response","71","216026","0.0-1.0-0.35","+","null","",""
"","2888","audio-keyboard-response","72","218940","0.0-1.0-1.35","../audio/teste-vocab--123.mp3","n","emissão","emisyon"
"","null","html-keyboard-response","73","219447","0.0-1.0-0.36","+","null","",""
"","3280","audio-keyboard-response","74","222748","0.0-1.0-1.36","../audio/teste-vocab--75.mp3","s","carpinteiro","chapantye"
"","null","html-keyboard-response","75","223260","0.0-1.0-0.37","+","null","",""
"","3301","audio-keyboard-response","76","226604","0.0-1.0-1.37","../audio/teste-vocab--96.mp3","n","árido","sechrès"
"","null","html-keyboard-response","77","227114","0.0-1.0-0.38","+","null","",""
"","3728","audio-keyboard-response","78","230860","0.0-1.0-1.38","../audio/teste-vocab--26.mp3","s","cotovelo","koud"
"","null","html-keyboard-response","79","231374","0.0-1.0-0.39","+","null","",""
"","2752","audio-keyboard-response","80","234172","0.0-1.0-1.39","../audio/teste-vocab--87.mp3","n","ave","zwazo"
"","null","html-keyboard-response","81","234682","0.0-1.0-0.40","+","null","",""
"","5651","audio-keyboard-response","82","240364","0.0-1.0-1.40","../audio/teste-vocab--118.mp3","n","paralelogramo","paralelogram"
"","null","html-keyboard-response","83","240876","0.0-1.0-0.41","+","null","",""
"","2880","audio-keyboard-response","84","243804","0.0-1.0-1.41","../audio/teste-vocab--120.mp3","n","induzir","pwovoke"
"","null","html-keyboard-response","85","244311","0.0-1.0-0.42","+","null","",""
"","2659","audio-keyboard-response","86","247020","0.0-1.0-1.42","../audio/teste-vocab--12.mp3","n","jaula","kaj"
"","null","html-keyboard-response","87","247525","0.0-1.0-0.43","+","null","",""
"","2989","audio-keyboard-response","88","250555","0.0-1.0-1.43","../audio/teste-vocab--38.mp3","s","cerimônia","seremoni"
"","null","html-keyboard-response","89","251068","0.0-1.0-0.44","+","null","",""
"","3211","audio-keyboard-response","90","254315","0.0-1.0-1.44","../audio/teste-vocab--63.mp3","s","transparente","transparan"
"","null","html-keyboard-response","91","254824","0.0-1.0-0.45","+","null","",""
"","5528","audio-keyboard-response","92","260379","0.0-1.0-1.45","../audio/teste-vocab--32.mp3","n","descascar","dekale"
"","null","html-keyboard-response","93","260892","0.0-1.0-0.46","+","null","",""
"","3059","audio-keyboard-response","94","263979","0.0-1.0-1.46","../audio/teste-vocab--77.mp3","s","comércio","komès"
"","null","html-keyboard-response","95","264480","0.0-1.0-0.47","+","null","",""
"","2691","audio-keyboard-response","96","267211","0.0-1.0-1.47","../audio/teste-vocab--79.mp3","n","moldura"," chanbranl"
"","null","html-keyboard-response","97","267722","0.0-1.0-0.48","+","null","",""
"","3579","audio-keyboard-response","98","271339","0.0-1.0-1.48","../audio/teste-vocab--28.mp3","s","águia","èg"
"","null","html-keyboard-response","99","271854","0.0-1.0-0.49","+","null","",""
"","4869","audio-keyboard-response","100","276762","0.0-1.0-1.49","../audio/teste-vocab--104.mp3","n","ira","pwal"
"","null","html-keyboard-response","101","277275","0.0-1.0-0.50","+","null","",""
"","2480","audio-keyboard-response","102","279803","0.0-1.0-1.50","../audio/teste-vocab--64.mp3","s","colher","kiyè"
"","null","html-keyboard-response","103","280317","0.0-1.0-0.51","+","null","",""
"","3461","audio-keyboard-response","104","283803","0.0-1.0-1.51","../audio/teste-vocab--82.mp3","n","roer","ronje"
"","null","html-keyboard-response","105","284315","0.0-1.0-0.52","+","null","",""
"","3672","audio-keyboard-response","106","288011","0.0-1.0-1.52","../audio/teste-vocab--97.mp3","s","frágil","frajil"
"","null","html-keyboard-response","107","288525","0.0-1.0-0.53","+","null","",""
"","2368","audio-keyboard-response","108","290939","0.0-1.0-1.53","../audio/teste-vocab--50.mp3","s","artista","atis"
"","null","html-keyboard-response","109","291454","0.0-1.0-0.54","+","null","",""
"","2968","audio-keyboard-response","110","294459","0.0-1.0-1.54","../audio/teste-vocab--73.mp3","s","ângulo","ang"
"","null","html-keyboard-response","111","294969","0.0-1.0-0.55","+","null","",""
"","2800","audio-keyboard-response","112","297819","0.0-1.0-1.55","../audio/teste-vocab--27.mp3","n","rio","rivyè"
"","null","html-keyboard-response","113","298321","0.0-1.0-0.56","+","null","",""
"","3960","audio-keyboard-response","114","302315","0.0-1.0-1.56","../audio/teste-vocab--62.mp3","n","carretel","bobin"
"","null","html-keyboard-response","115","302824","0.0-1.0-0.57","+","null","",""
"","3179","audio-keyboard-response","116","306059","0.0-1.0-1.57","../audio/teste-vocab--126.mp3","n","ambulante","promennen"
"","null","html-keyboard-response","117","306562","0.0-1.0-0.58","+","null","",""
"","2760","audio-keyboard-response","118","309338","0.0-1.0-1.58","../audio/teste-vocab--91.mp3","n","bússola","bousòl"
"","null","html-keyboard-response","119","309841","0.0-1.0-0.59","+","null","",""
"","2840","audio-keyboard-response","120","312714","0.0-1.0-1.59","../audio/teste-vocab--01.mp3","n","boneca","pope"
"","null","html-keyboard-response","121","313220","0.0-1.0-0.60","+","null","",""
"","3560","audio-keyboard-response","122","316810","0.0-1.0-1.60","../audio/teste-vocab--85.mp3","n","trio","trio"
"","null","html-keyboard-response","123","317324","0.0-1.0-0.61","+","null","",""
"","2659","audio-keyboard-response","124","320026","0.0-1.0-1.61","../audio/teste-vocab--54.mp3","n","arbusto","raje"
"","null","html-keyboard-response","125","320537","0.0-1.0-0.62","+","null","",""
"","2701","audio-keyboard-response","126","323274","0.0-1.0-1.62","../audio/teste-vocab--40.mp3","s","bebida","bwason"
"","null","html-keyboard-response","127","323786","0.0-1.0-0.63","+","null","",""
"","2171","audio-keyboard-response","128","325994","0.0-1.0-1.63","../audio/teste-vocab--21.mp3","s","baleia","balèn"
"","null","html-keyboard-response","129","326501","0.0-1.0-0.64","+","null","",""
"","2091","audio-keyboard-response","130","328634","0.0-1.0-1.64","../audio/teste-vocab--05.mp3","s","limpar","netwaye"
"","null","html-keyboard-response","131","329147","0.0-1.0-0.65","+","null","",""
"","2821","audio-keyboard-response","132","332010","0.0-1.0-1.65","../audio/teste-vocab--72.mp3","n","ilha","zile"
"","null","html-keyboard-response","133","332515","0.0-1.0-0.66","+","null","",""
"","2589","audio-keyboard-response","134","335146","0.0-1.0-1.66","../audio/teste-vocab--121.mp3","s","atônito","sezi"
"","null","html-keyboard-response","135","335648","0.0-1.0-0.67","+","null","",""
"","2232","audio-keyboard-response","136","337930","0.0-1.0-1.67","../audio/teste-vocab--68.mp3","s","surpreendido","sezi"
"","null","html-keyboard-response","137","338434","0.0-1.0-0.68","+","null","",""
"","2872","audio-keyboard-response","138","341370","0.0-1.0-1.68","../audio/teste-vocab--58.mp3","s","nutritivo","nourisan"
"","null","html-keyboard-response","139","341882","0.0-1.0-0.69","+","null","",""
"","2688","audio-keyboard-response","140","344618","0.0-1.0-1.69","../audio/teste-vocab--129.mp3","n","elipse","elips"
"","null","html-keyboard-response","141","345120","0.0-1.0-0.70","+","null","",""
"","2781","audio-keyboard-response","142","347962","0.0-1.0-1.70","../audio/teste-vocab--71.mp3","s","caule","tij"
"","null","html-keyboard-response","143","348467","0.0-1.0-0.71","+","null","",""
"","4061","audio-keyboard-response","144","352570","0.0-1.0-1.71","../audio/teste-vocab--93.mp3","s","felino","leopa"
"","null","html-keyboard-response","145","353082","0.0-1.0-0.72","+","null","",""
"","3248","audio-keyboard-response","146","356378","0.0-1.0-1.72","../audio/teste-vocab--15.mp3","s","flecha","flèch"
"","null","html-keyboard-response","147","356882","0.0-1.0-0.73","+","null","",""
"","3731","audio-keyboard-response","148","360634","0.0-1.0-1.73","../audio/teste-vocab--23.mp3","s","acariciar","karese"
"","null","html-keyboard-response","149","361136","0.0-1.0-0.74","+","null","",""
"","3299","audio-keyboard-response","150","364458","0.0-1.0-1.74","../audio/teste-vocab--09.mp3","n","vela","bouji"
"","null","html-keyboard-response","151","364971","0.0-1.0-0.75","+","null","",""
"","2371","audio-keyboard-response","152","367370","0.0-1.0-1.75","../audio/teste-vocab--67.mp3","n","corrimão","ranp"
"","null","html-keyboard-response","153","367871","0.0-1.0-0.76","+","null","",""
"","2661","audio-keyboard-response","154","370553","0.0-1.0-1.76","../audio/teste-vocab--114.mp3","s","fragmentar","dechire"
"","null","html-keyboard-response","155","371062","0.0-1.0-0.77","+","null","",""
"","2291","audio-keyboard-response","156","373385","0.0-1.0-1.77","../audio/teste-vocab--16.mp3","s","pescoço","kou"
"","null","html-keyboard-response","157","373896","0.0-1.0-0.78","+","null","",""
"","2608","audio-keyboard-response","158","376537","0.0-1.0-1.78","../audio/teste-vocab--60.mp3","s","secretaria","sekretè"
"","null","html-keyboard-response","159","377052","0.0-1.0-0.79","+","null","",""
"","2680","audio-keyboard-response","160","379753","0.0-1.0-1.79","../audio/teste-vocab--24.mp3","s","acidente","aksidan"
"","null","html-keyboard-response","161","380267","0.0-1.0-0.80","+","null","",""
"","3152","audio-keyboard-response","162","383449","0.0-1.0-1.80","../audio/teste-vocab--69.mp3","n","pingar","degoute"
"","null","html-keyboard-response","163","383950","0.0-1.0-0.81","+","null","",""
"","2360","audio-keyboard-response","164","386361","0.0-1.0-1.81","../audio/teste-vocab--99.mp3","n","arqueólogo","akeyológ"
"","null","html-keyboard-response","165","386871","0.0-1.0-0.82","+","null","",""
"","2309","audio-keyboard-response","166","389225","0.0-1.0-1.82","../audio/teste-vocab--102.mp3","s","arrogante","arogan"
"","null","html-keyboard-response","167","389732","0.0-1.0-0.83","+","null","",""
"","3181","audio-keyboard-response","168","392953","0.0-1.0-1.83","../audio/teste-vocab--51.mp3","s","recolher","kolekte"
"","null","html-keyboard-response","169","393460","0.0-1.0-0.84","+","null","",""
"","2691","audio-keyboard-response","170","396185","0.0-1.0-1.84","../audio/teste-vocab--76.mp3","s","arquivar","achive"
"","null","html-keyboard-response","171","396693","0.0-1.0-0.85","+","null","",""
"","2520","audio-keyboard-response","172","399241","0.0-1.0-1.85","../audio/teste-vocab--34.mp3","n","tronco","twon"
"","null","html-keyboard-response","173","399757","0.0-1.0-0.86","+","null","",""
"","2949","audio-keyboard-response","174","402761","0.0-1.0-1.86","../audio/teste-vocab--74.mp3","n","desilusão","dezilizyon"
"","null","html-keyboard-response","175","403271","0.0-1.0-0.87","+","null","",""
"","2029","audio-keyboard-response","176","405337","0.0-1.0-1.87","../audio/teste-vocab--59.mp3","s","par","pè"
"","null","html-keyboard-response","177","405848","0.0-1.0-0.88","+","null","",""
"","2432","audio-keyboard-response","178","408329","0.0-1.0-1.88","../audio/teste-vocab--13.mp3","s","ambulância","anbilans"
"","null","html-keyboard-response","179","408840","0.0-1.0-0.89","+","null","",""
"","7888","audio-keyboard-response","180","416777","0.0-1.0-1.89","../audio/teste-vocab--128.mp3","n","incisivo","ensisiv"
"","null","html-keyboard-response","181","417282","0.0-1.0-0.90","+","null","",""
"","2749","audio-keyboard-response","182","420057","0.0-1.0-1.90","../audio/teste-vocab--45.mp3","s","dentista","dantis"
"","null","html-keyboard-response","183","420561","0.0-1.0-0.91","+","null","",""
"","3789","audio-keyboard-response","184","424377","0.0-1.0-1.91","../audio/teste-vocab--111.mp3","s","jubilosa","rejwisans"
"","null","html-keyboard-response","185","424891","0.0-1.0-0.92","+","null","",""
"","2691","audio-keyboard-response","186","427609","0.0-1.0-1.92","../audio/teste-vocab--18.mp3","s","abelha","myèl"
"","null","html-keyboard-response","187","428118","0.0-1.0-0.93","+","null","",""
"","3408","audio-keyboard-response","188","431576","0.0-1.0-1.93","../audio/teste-vocab--100.mp3","n","consumir","konsome"
"","null","html-keyboard-response","189","432080","0.0-1.0-0.94","+","null","",""
"","3211","audio-keyboard-response","190","435320","0.0-1.0-1.94","../audio/teste-vocab--90.mp3","n","carniça","kanivò"
"","null","html-keyboard-response","191","435830","0.0-1.0-0.95","+","null","",""
"","2741","audio-keyboard-response","192","438600","0.0-1.0-1.95","../audio/teste-vocab--101.mp3","n","incandescente","enkandesan"
"","null","html-keyboard-response","193","439113","0.0-1.0-0.96","+","null","",""
"","2480","audio-keyboard-response","194","441656","0.0-1.0-1.96","../audio/teste-vocab--103.mp3","n","utensílio","istansil"
"","null","html-keyboard-response","195","442163","0.0-1.0-0.97","+","null","",""
"","2549","audio-keyboard-response","196","444744","0.0-1.0-1.97","../audio/teste-vocab--113.mp3","s","ascender","limen"
"","null","html-keyboard-response","197","445247","0.0-1.0-0.98","+","null","",""
"","2400","audio-keyboard-response","198","447688","0.0-1.0-1.98","../audio/teste-vocab--42.mp3","n","isolamento","izòlman"
"","null","html-keyboard-response","199","448196","0.0-1.0-0.99","+","null","",""
"","2331","audio-keyboard-response","200","450584","0.0-1.0-1.99","../audio/teste-vocab--55.mp3","s","bosque","forè"
"","null","html-keyboard-response","201","451099","0.0-1.0-0.100","+","null","",""
"","2400","audio-keyboard-response","202","453544","0.0-1.0-1.100","../audio/teste-vocab--110.mp3","n","prodígio","pwodij"
"","null","html-keyboard-response","203","454058","0.0-1.0-0.101","+","null","",""
"","2472","audio-keyboard-response","204","456568","0.0-1.0-1.101","../audio/teste-vocab--31.mp3","s","vazio","vid"
"","null","html-keyboard-response","205","457082","0.0-1.0-0.102","+","null","",""
"","2869","audio-keyboard-response","206","459976","0.0-1.0-1.102","../audio/teste-vocab--53.mp3","s","orientar","oryante"
"","null","html-keyboard-response","207","460490","0.0-1.0-0.103","+","null","",""
"","3749","audio-keyboard-response","208","464297","0.0-1.0-1.103","../audio/teste-vocab--39.mp3","s","cobra","koulèv"
"","null","html-keyboard-response","209","464813","0.0-1.0-0.104","+","null","",""
"","2581","audio-keyboard-response","210","467448","0.0-1.0-1.104","../audio/teste-vocab--89.mp3","n","classificar","klasifika"
"","null","html-keyboard-response","211","467950","0.0-1.0-0.105","+","null","",""
"","2269","audio-keyboard-response","212","470264","0.0-1.0-1.105","../audio/teste-vocab--33.mp3","s","uniforme","inifòm"
"","null","html-keyboard-response","213","470780","0.0-1.0-0.106","+","null","",""
"","2131","audio-keyboard-response","214","472953","0.0-1.0-1.106","../audio/teste-vocab--25.mp3","n","canguru","kanguwou"
"","null","html-keyboard-response","215","473464","0.0-1.0-0.107","+","null","",""
"","2411","audio-keyboard-response","216","475913","0.0-1.0-1.107","../audio/teste-vocab--07.mp3","s","abajur","lanp"
"","null","html-keyboard-response","217","476417","0.0-1.0-0.108","+","null","",""
"","3261","audio-keyboard-response","218","479720","0.0-1.0-1.108","../audio/teste-vocab--95.mp3","n","submergir","plonje"
"","null","html-keyboard-response","219","480223","0.0-1.0-0.109","+","null","",""
"","2331","audio-keyboard-response","220","482584","0.0-1.0-1.109","../audio/teste-vocab--22.mp3","s","quebrado","kraze"
"","null","html-keyboard-response","221","483093","0.0-1.0-0.110","+","null","",""
"","4760","audio-keyboard-response","222","487880","0.0-1.0-1.110","../audio/teste-vocab--48.mp3","s","joia","bijou"
"","null","html-keyboard-response","223","488388","0.0-1.0-0.111","+","null","",""
"","2920","audio-keyboard-response","224","491336","0.0-1.0-1.111","../audio/teste-vocab--65.mp3","s","discussão","diskisyon"
"","null","html-keyboard-response","225","491837","0.0-1.0-0.112","+","null","",""
"","2832","audio-keyboard-response","226","494728","0.0-1.0-1.112","../audio/teste-vocab--94.mp3","n","paralelo","paralèl"
"","null","html-keyboard-response","227","495236","0.0-1.0-0.113","+","null","",""
"","2619","audio-keyboard-response","228","497896","0.0-1.0-1.113","../audio/teste-vocab--127.mp3","n","côncavo","konkav"
"","null","html-keyboard-response","229","498400","0.0-1.0-0.114","+","null","",""
"","3920","audio-keyboard-response","230","502376","0.0-1.0-1.114","../audio/teste-vocab--112.mp3","s","aparição","aparisyon"
"","null","html-keyboard-response","231","502885","0.0-1.0-0.115","+","null","",""
"","4749","audio-keyboard-response","232","507656","0.0-1.0-1.115","../audio/teste-vocab--122.mp3","s","transeunte","pasajè"
"","null","html-keyboard-response","233","508170","0.0-1.0-0.116","+","null","",""
"","2581","audio-keyboard-response","234","510793","0.0-1.0-1.116","../audio/teste-vocab--29.mp3","s","rasgar","chire"
"","null","html-keyboard-response","235","511305","0.0-1.0-0.117","+","null","",""
"","2299","audio-keyboard-response","236","513623","0.0-1.0-1.117","../audio/teste-vocab--108.mp3","s","moradia","kay"
"","null","html-keyboard-response","237","514137","0.0-1.0-0.118","+","null","",""
"","2800","audio-keyboard-response","238","516968","0.0-1.0-1.118","../audio/teste-vocab--105.mp3","n","cítrico","sitrik"
"","null","html-keyboard-response","239","517481","0.0-1.0-0.119","+","null","",""
"","2571","audio-keyboard-response","240","520088","0.0-1.0-1.119","../audio/teste-vocab--46.mp3","s","ombro","zepòl"
"","null","html-keyboard-response","241","520598","0.0-1.0-0.120","+","null","",""
"","2251","audio-keyboard-response","242","522888","0.0-1.0-1.120","../audio/teste-vocab--115.mp3","n","perpendicular","pèpandikilè"
"","null","html-keyboard-response","243","523401","0.0-1.0-0.121","+","null","",""
"","1931","audio-keyboard-response","244","525352","0.0-1.0-1.121","../audio/teste-vocab--117.mp3","n","córnea","kòn"
"","null","html-keyboard-response","245","525862","0.0-1.0-0.122","+","null","",""
"","2581","audio-keyboard-response","246","528488","0.0-1.0-1.122","../audio/teste-vocab--52.mp3","s","construção","konstriksyon"
"","null","html-keyboard-response","247","528997","0.0-1.0-0.123","+","null","",""
"","2632","audio-keyboard-response","248","531688","0.0-1.0-1.123","../audio/teste-vocab--47.mp3","n","envelope","anvlope"
"","null","html-keyboard-response","249","532189","0.0-1.0-0.124","+","null","",""
"","2720","audio-keyboard-response","250","534936","0.0-1.0-1.124","../audio/teste-vocab--61.mp3","n","iluminação","iliminasyon"
"","null","html-keyboard-response","251","535439","0.0-1.0-0.125","+","null","",""
"","2560","audio-keyboard-response","252","538039","0.0-1.0-1.125","../audio/teste-vocab--06.mp3","s","barco","bato"
"","null","html-keyboard-response","253","538554","0.0-1.0-0.126","+","null","",""
"","2560","audio-keyboard-response","254","541160","0.0-1.0-1.126","../audio/teste-vocab--56.mp3","n","agricultura","agrikilti"
"","null","html-keyboard-response","255","541673","0.0-1.0-0.127","+","null","",""
"","2952","audio-keyboard-response","256","544648","0.0-1.0-1.127","../audio/teste-vocab--130.mp3","n","gentil","dou"
"","null","html-keyboard-response","257","545161","0.0-1.0-0.128","+","null","",""
"","3179","audio-keyboard-response","258","548376","0.0-1.0-1.128","../audio/teste-vocab--35.mp3","n","líquido","likid"
"","null","html-keyboard-response","259","548890","0.0-1.0-0.129","+","null","",""
"","2168","audio-keyboard-response","260","551096","0.0-1.0-1.129","../audio/teste-vocab--70.mp3","n","funil","antónwa"
