[
	{
		"view_history": [
			{
				"page_index": 0,
				"viewing_time": 3447
			}
		],
		"rt": 3447,
		"trial_type": "instructions",
		"trial_index": 0,
		"time_elapsed": 3448,
		"internal_node_id": "0.0-0.0"
	},
	{
		"rt": 271618,
		"response": {
			"reading_habits_printed_magazines": "Nunca",
			"reading_habits_printed_newspapers": "Nunca",
			"reading_habits_books": "Nunca",
			"reading_habits_printed_socialmedias": "Todos os dias"
		},
		"question_order": [
			0,
			1,
			2,
			3
		],
		"trial_type": "survey-multi-choice",
		"trial_index": 1,
		"time_elapsed": 275175,
		"internal_node_id": "0.0-1.0"
	},
	{
		"rt": 100143,
		"response": {
			"reading_habits_virtual_magazines": "Nunca",
			"reading_habits_virtual_newspapers": "Nunca",
			"reading_habits_books": "Uma vez por semana",
			"reading_habits_virtual_socialmedias": "Todos os dias"
		},
		"question_order": [
			0,
			1,
			2,
			3
		],
		"trial_type": "survey-multi-choice",
		"trial_index": 2,
		"time_elapsed": 375422,
		"internal_node_id": "0.0-2.0"
	},
	{
		"rt": 62975,
		"response": {
			"reading_habits_other_which": "",
			"reading_habits_other_frequency": ""
		},
		"trial_type": "survey-text",
		"trial_index": 3,
		"time_elapsed": 438502,
		"internal_node_id": "0.0-3.0"
	}
]