"view_history","rt","trial_type","trial_index","time_elapsed","internal_node_id","stimulus","response","trial_part","word","question","answer","trial","accuracy"
"[{""page_index"":0,""viewing_time"":23333},{""page_index"":1,""viewing_time"":16336}]","39669","instructions","0","39670","0.0-0.0","","","","","","","",""
"","null","html-keyboard-response","1","40773","0.0-1.0-0.0-0.0","<span style= ""font-size:30px; font-family: monospace"">+</span>","null","fixation","","","","",""
"","6760","audio-keyboard-response","2","48014","0.0-1.0-1.0","../audio/prac-question-1-1.mp3"," ","","O","","","",""
"","2739","audio-keyboard-response","3","51038","0.0-1.0-1.1","../audio/prac-question-1-2.mp3"," ","","dia","","","",""
"","1821","audio-keyboard-response","4","53150","0.0-1.0-1.2","../audio/prac-question-1-3.mp3"," ","","estará","","","",""
"","2229","audio-keyboard-response","5","55677","0.0-1.0-1.3","../audio/prac-question-1-4.mp3"," ","","cheio","","","",""
"","3251","audio-keyboard-response","6","59213","0.0-1.0-1.4","../audio/prac-question-1-5.mp3"," ","","de","","","",""
"","1832","audio-keyboard-response","7","61341","0.0-1.0-1.5","../audio/prac-question-1-6.mp3"," ","","nuvens","","","",""
"","2251","audio-keyboard-response","8","63885","0.0-1.0-1.6","../audio/prac-question-1-7.mp3"," ","","hoje.","","","",""
"","null","html-keyboard-response","9","65154","0.0-1.0-0.7-0.7","<span style= ""font-size:30px; font-family: monospace"">+</span>","null","fixation","","","","",""
"","1349","audio-keyboard-response","10","66797","0.0-1.0-1.7","../audio/prac-question-2-1.mp3"," ","","A","","","",""
"","1592","audio-keyboard-response","11","68669","0.0-1.0-1.8","../audio/prac-question-2-2.mp3"," ","","caneca","","","",""
"","1819","audio-keyboard-response","12","70765","0.0-1.0-1.9","../audio/prac-question-2-3.mp3"," ","","colorida","","","",""
"","1429","audio-keyboard-response","13","72477","0.0-1.0-1.10","../audio/prac-question-2-4.mp3"," ","","caiu","","","",""
"","1160","audio-keyboard-response","14","73917","0.0-1.0-1.11","../audio/prac-question-2-5.mp3"," ","","da","","","",""
"","1789","audio-keyboard-response","15","75997","0.0-1.0-1.12","../audio/prac-question-2-6.mp3"," ","","mesa","","","",""
"","1181","audio-keyboard-response","16","77453","0.0-1.0-1.13","../audio/prac-question-2-7.mp3"," ","","de","","","",""
"","2509","audio-keyboard-response","17","80237","0.0-1.0-1.14","../audio/prac-question-2-8.mp3"," ","","jantar.","","","",""
"","4633","html-keyboard-response","18","85134","0.0-1.0-2.14-0.14","<span style=""font-size:25px; font-family: monospace"">A caneca era colorida?</span>","s","","","A caneca era colorida?","null","prac-sent","false"
"[{""page_index"":0,""viewing_time"":4423}]","4423","instructions","19","90061","0.0-2.0","","","","","","","",""
"","null","html-keyboard-response","20","91182","0.0-3.0-0.0-0.0","<span style= ""font-size:30px; font-family: monospace"">+</span>","null","fixation","","","","",""
"","4480","audio-keyboard-response","21","95965","0.0-3.0-1.0","../audio/23-1-masc.mp3"," ","","Português","","","",""
"","1691","audio-keyboard-response","22","97933","0.0-3.0-1.1","../audio/23-2-masc.mp3"," ","","é","","","",""
"","1669","audio-keyboard-response","23","99885","0.0-3.0-1.2","../audio/23-3-masc.mp3"," ","","um","","","",""
"","1901","audio-keyboard-response","24","102061","0.0-3.0-1.3","../audio/23-4-masc.mp3"," ","","assunto","","","",""
"","3189","audio-keyboard-response","25","105533","0.0-3.0-1.4","../audio/23-5-masc.mp3"," ","","elementar","","","",""
"","1869","audio-keyboard-response","26","107693","0.0-3.0-1.5","../audio/23-6-masc.mp3"," ","","para","","","",""
"","1459","audio-keyboard-response","27","109437","0.0-3.0-1.6","../audio/23-7-masc.mp3"," ","","os","","","",""
"","2040","audio-keyboard-response","28","111757","0.0-3.0-1.7","../audio/23-8-masc.mp3"," ","","alunos.","","","",""
"","null","html-keyboard-response","29","113026","0.0-3.0-0.8-0.8","<span style= ""font-size:30px; font-family: monospace"">+</span>","null","fixation","","","","",""
"","541","audio-keyboard-response","30","113869","0.0-3.0-1.8","../audio/21-1-masc.mp3"," ","","Precisamos","","","",""
"","1872","audio-keyboard-response","31","116028","0.0-3.0-1.9","../audio/21-2-masc.mp3"," ","","de","","","",""
"","1861","audio-keyboard-response","32","118189","0.0-3.0-1.10","../audio/21-3-masc.mp3"," ","","paciência","","","",""
"","1389","audio-keyboard-response","33","119852","0.0-3.0-1.11","../audio/21-4-masc.mp3"," ","","e","","","",""
"","1760","audio-keyboard-response","34","121901","0.0-3.0-1.12","../audio/21-5-masc.mp3"," ","","bondade","","","",""
"","1552","audio-keyboard-response","35","123740","0.0-3.0-1.13","../audio/21-6-masc.mp3"," ","","para","","","",""
"","1259","audio-keyboard-response","36","125276","0.0-3.0-1.14","../audio/21-7-masc.mp3"," ","","um","","","",""
"","1661","audio-keyboard-response","37","127212","0.0-3.0-1.15","../audio/21-8-masc.mp3"," ","","mundo","","","",""
"","2600","audio-keyboard-response","38","130109","0.0-3.0-1.16","../audio/21-9-masc.mp3"," ","","melhor.","","","",""
"","null","html-keyboard-response","39","131364","0.0-3.0-0.17-0.17","<span style= ""font-size:30px; font-family: monospace"">+</span>","null","fixation","","","","",""
"","1989","audio-keyboard-response","40","133644","0.0-3.0-1.17","../audio/24-1-masc.mp3"," ","","As","","","",""
"","1779","audio-keyboard-response","41","135724","0.0-3.0-1.18","../audio/24-2-masc.mp3"," ","","crianças","","","",""
"","1301","audio-keyboard-response","42","137308","0.0-3.0-1.19","../audio/24-3-masc.mp3"," ","","vão","","","",""
"","1512","audio-keyboard-response","43","139100","0.0-3.0-1.20","../audio/24-4-masc.mp3"," ","","ao","","","",""
"","1589","audio-keyboard-response","44","140972","0.0-3.0-1.21","../audio/24-5-masc.mp3"," ","","cinema","","","",""
"","1528","audio-keyboard-response","45","142797","0.0-3.0-1.22","../audio/24-6-masc.mp3"," ","","mais","","","",""
"","2269","audio-keyboard-response","46","145357","0.0-3.0-1.23","../audio/24-7-masc.mp3"," ","","tarde.","","","",""
"","null","html-keyboard-response","47","146624","0.0-3.0-0.24-0.24","<span style= ""font-size:30px; font-family: monospace"">+</span>","null","fixation","","","","",""
"","1451","audio-keyboard-response","48","148364","0.0-3.0-1.24","../audio/22-1-fem.mp3"," ","","Eu","","","",""
"","1691","audio-keyboard-response","49","150332","0.0-3.0-1.25","../audio/22-2-fem.mp3"," ","","detesto","","","",""
"","1520","audio-keyboard-response","50","152141","0.0-3.0-1.26","../audio/22-3-fem.mp3"," ","","fumaça","","","",""
"","1192","audio-keyboard-response","51","153628","0.0-3.0-1.27","../audio/22-4-fem.mp3"," ","","de","","","",""
"","1752","audio-keyboard-response","52","155661","0.0-3.0-1.28","../audio/22-5-fem.mp3"," ","","cachimbo","","","",""
"","1160","audio-keyboard-response","53","157100","0.0-3.0-1.29","../audio/22-6-fem.mp3"," ","","e","","","",""
"","1200","audio-keyboard-response","54","158588","0.0-3.0-1.30","../audio/22-7-fem.mp3"," ","","de","","","",""
"","2168","audio-keyboard-response","55","161036","0.0-3.0-1.31","../audio/22-8-fem.mp3"," ","","cigarro.","","","",""
"","null","html-keyboard-response","56","162304","0.0-3.0-0.32-0.32","<span style= ""font-size:30px; font-family: monospace"">+</span>","null","fixation","","","","",""
"","1619","audio-keyboard-response","57","164204","0.0-3.0-1.32","../audio/25-1-masc.mp3"," ","","Ela","","","",""
"","1341","audio-keyboard-response","58","165821","0.0-3.0-1.33","../audio/25-2-masc.mp3"," ","","faz","","","",""
"","1491","audio-keyboard-response","59","167580","0.0-3.0-1.34","../audio/25-3-masc.mp3"," ","","tanto","","","",""
"","1240","audio-keyboard-response","60","169101","0.0-3.0-1.35","../audio/25-4-masc.mp3"," ","","cabelo","","","",""
"","1669","audio-keyboard-response","61","171052","0.0-3.0-1.36","../audio/25-5-masc.mp3"," ","","liso","","","",""
"","1400","audio-keyboard-response","62","172716","0.0-3.0-1.37","../audio/25-6-masc.mp3"," ","","quanto","","","",""
"","2171","audio-keyboard-response","63","175164","0.0-3.0-1.38","../audio/25-7-masc.mp3"," ","","cacheado.","","","",""
"","16891","html-keyboard-response","64","192316","0.0-3.0-2.38-0.38","<span style=""font-size:25px; font-family: monospace"">Ela só faz cabelo cacheado?</span>","s","","","Ela só faz cabelo cacheado?","null","exp-sent","false"
"","null","html-keyboard-response","65","193833","0.0-3.0-0.39-0.39","<span style= ""font-size:30px; font-family: monospace"">+</span>","null","fixation","","","","",""
"","36280","audio-keyboard-response","66","230411","0.0-3.0-1.39","../audio/33-1-masc.mp3"," ","","Eles","","","",""
"","1709","audio-keyboard-response","67","232571","0.0-3.0-1.40","../audio/33-2-masc.mp3"," ","","sabem","","","",""
"","1141","audio-keyboard-response","68","233995","0.0-3.0-1.41","../audio/33-3-masc.mp3"," ","","do","","","",""
"","1280","audio-keyboard-response","69","235564","0.0-3.0-1.42","../audio/33-4-masc.mp3"," ","","seu","","","",""
"","1440","audio-keyboard-response","70","237291","0.0-3.0-1.43","../audio/33-5-masc.mp3"," ","","privilégio","","","",""
"","1701","audio-keyboard-response","71","239260","0.0-3.0-1.44","../audio/33-6-masc.mp3"," ","","nessa","","","",""
"","2760","audio-keyboard-response","72","242316","0.0-3.0-1.45","../audio/33-7-masc.mp3"," ","","confusão.","","","",""
"","null","html-keyboard-response","73","243591","0.0-3.0-0.46-0.46","<span style= ""font-size:30px; font-family: monospace"">+</span>","null","fixation","","","","",""
"","2141","audio-keyboard-response","74","246028","0.0-3.0-1.46","../audio/31-1-masc.mp3"," ","","O","","","",""
"","1960","audio-keyboard-response","75","248284","0.0-3.0-1.47","../audio/31-2-masc.mp3"," ","","padeiro","","","",""
"","1851","audio-keyboard-response","76","250428","0.0-3.0-1.48","../audio/31-3-masc.mp3"," ","","usou","","","",""
"","1400","audio-keyboard-response","77","252124","0.0-3.0-1.49","../audio/31-4-masc.mp3"," ","","a","","","",""
"","13400","audio-keyboard-response","78","265819","0.0-3.0-1.50","../audio/31-5-masc.mp3"," ","","balança","","","",""
"","1480","audio-keyboard-response","79","267595","0.0-3.0-1.51","../audio/31-6-masc.mp3"," ","","o","","","",""
"","1419","audio-keyboard-response","80","269291","0.0-3.0-1.52","../audio/31-7-masc.mp3"," ","","dia","","","",""
"","1600","audio-keyboard-response","81","271179","0.0-3.0-1.53","../audio/31-8-masc.mp3"," ","","inteiro.","","","",""
"","null","html-keyboard-response","82","272455","0.0-3.0-0.54-0.54","<span style= ""font-size:30px; font-family: monospace"">+</span>","null","fixation","","","","",""
"","3651","audio-keyboard-response","83","276396","0.0-3.0-1.54","../audio/32-1-fem.mp3"," ","","A","","","",""
"","1331","audio-keyboard-response","84","277995","0.0-3.0-1.55","../audio/32-2-fem.mp3"," ","","tia","","","",""
"","2091","audio-keyboard-response","85","280380","0.0-3.0-1.56","../audio/32-3-fem.mp3"," ","","comprou","","","",""
"","1989","audio-keyboard-response","86","282667","0.0-3.0-1.57","../audio/32-4-fem.mp3"," ","","um","","","",""
"","2011","audio-keyboard-response","87","284971","0.0-3.0-1.58","../audio/32-5-fem.mp3"," ","","pilão","","","",""
"","2120","audio-keyboard-response","88","287388","0.0-3.0-1.59","../audio/32-6-fem.mp3"," ","","para","","","",""
"","1699","audio-keyboard-response","89","289371","0.0-3.0-1.60","../audio/32-7-fem.mp3"," ","","a","","","",""
"","4600","audio-keyboard-response","90","294251","0.0-3.0-1.61","../audio/32-8-fem.mp3"," ","","cozinha.","","","",""
"","null","html-keyboard-response","91","295526","0.0-3.0-0.62-0.62","<span style= ""font-size:30px; font-family: monospace"">+</span>","null","fixation","","","","",""
"","2421","audio-keyboard-response","92","298236","0.0-3.0-1.62","../audio/34-1-fem.mp3"," ","","Cobrança","","","",""
"","2040","audio-keyboard-response","93","300571","0.0-3.0-1.63","../audio/34-2-fem.mp3"," ","","excessiva","","","",""
"","9741","audio-keyboard-response","94","310588","0.0-3.0-1.64","../audio/34-3-fem.mp3"," ","","é","","","",""
"","2261","audio-keyboard-response","95","313147","0.0-3.0-1.65","../audio/34-4-fem.mp3"," ","","um","","","",""
"","5291","audio-keyboard-response","96","318730","0.0-3.0-1.66","../audio/34-5-fem.mp3"," ","","fardo","","","",""
"","2691","audio-keyboard-response","97","321691","0.0-3.0-1.67","../audio/34-6-fem.mp3"," ","","para","","","",""
"","1691","audio-keyboard-response","98","323659","0.0-3.0-1.68","../audio/34-7-fem.mp3"," ","","a","","","",""
"","2488","audio-keyboard-response","99","326442","0.0-3.0-1.69","../audio/34-8-fem.mp3"," ","","cabeça.","","","",""
"","null","html-keyboard-response","100","327705","0.0-3.0-0.70-0.70","<span style= ""font-size:30px; font-family: monospace"">+</span>","null","fixation","","","","",""
"","2211","audio-keyboard-response","101","330219","0.0-3.0-1.70","../audio/35-1-fem.mp3"," ","","A","","","",""
"","2421","audio-keyboard-response","102","332940","0.0-3.0-1.71","../audio/35-2-fem.mp3"," ","","receita","","","",""
"","1299","audio-keyboard-response","103","334539","0.0-3.0-1.72","../audio/35-3-fem.mp3"," ","","para","","","",""
"","2381","audio-keyboard-response","104","337195","0.0-3.0-1.73","../audio/35-4-fem.mp3"," ","","a","","","",""
"","2640","audio-keyboard-response","105","340122","0.0-3.0-1.74","../audio/35-5-fem.mp3"," ","","preparação","","","",""
"","1720","audio-keyboard-response","106","342138","0.0-3.0-1.75","../audio/35-6-fem.mp3"," ","","do","","","",""
"","1731","audio-keyboard-response","107","344155","0.0-3.0-1.76","../audio/35-7-fem.mp3"," ","","bolo","","","",""
"","1259","audio-keyboard-response","108","345691","0.0-3.0-1.77","../audio/35-8-fem.mp3"," ","","é","","","",""
"","1909","audio-keyboard-response","109","347899","0.0-3.0-1.78","../audio/35-9-fem.mp3"," ","","leve.","","","",""
"","6631","html-keyboard-response","110","354795","0.0-3.0-2.78-0.78","<span style=""font-size:25px; font-family: monospace"">A receita do bolo é pesada?</span>","n","","","A receita do bolo é pesada?","null","exp-sent","false"
"","null","html-keyboard-response","111","356325","0.0-3.0-0.79-0.79","<span style= ""font-size:30px; font-family: monospace"">+</span>","null","fixation","","","","",""
"","1501","audio-keyboard-response","112","358107","0.0-3.0-1.79","../audio/16-1-fem.mp3"," ","","Eu","","","",""
"","2581","audio-keyboard-response","113","360987","0.0-3.0-1.80","../audio/16-2-fem.mp3"," ","","nunca","","","",""
"","1549","audio-keyboard-response","114","362826","0.0-3.0-1.81","../audio/16-3-fem.mp3"," ","","conheci","","","",""
"","1469","audio-keyboard-response","115","364570","0.0-3.0-1.82","../audio/16-4-fem.mp3"," ","","um","","","",""
"","1691","audio-keyboard-response","116","366555","0.0-3.0-1.83","../audio/16-5-fem.mp3"," ","","general","","","",""
"","1109","audio-keyboard-response","117","367947","0.0-3.0-1.84","../audio/16-6-fem.mp3"," ","","do","","","",""
"","3280","audio-keyboard-response","118","371515","0.0-3.0-1.85","../audio/16-7-fem.mp3"," ","","exército.","","","",""
"","null","html-keyboard-response","119","372792","0.0-3.0-0.86-0.86","<span style= ""font-size:30px; font-family: monospace"">+</span>","null","fixation","","","","",""
"","2192","audio-keyboard-response","120","375274","0.0-3.0-1.86","../audio/18-1-masc.mp3"," ","","O","","","",""
"","1920","audio-keyboard-response","121","377482","0.0-3.0-1.87","../audio/18-2-masc.mp3"," ","","enredo","","","",""
"","1840","audio-keyboard-response","122","379610","0.0-3.0-1.88","../audio/18-3-masc.mp3"," ","","traz","","","",""
"","1360","audio-keyboard-response","123","381242","0.0-3.0-1.89","../audio/18-4-masc.mp3"," ","","um","","","",""
"","1480","audio-keyboard-response","124","383002","0.0-3.0-1.90","../audio/18-5-masc.mp3"," ","","dragão","","","",""
"","1131","audio-keyboard-response","125","384411","0.0-3.0-1.91","../audio/18-6-masc.mp3"," ","","forte","","","",""
"","971","audio-keyboard-response","126","385658","0.0-3.0-1.92","../audio/18-7-masc.mp3"," ","","e","","","",""
"","1928","audio-keyboard-response","127","387883","0.0-3.0-1.93","../audio/18-8-masc.mp3"," ","","solitário.","","","",""
"","null","html-keyboard-response","128","389148","0.0-3.0-0.94-0.94","<span style= ""font-size:30px; font-family: monospace"">+</span>","null","fixation","","","","",""
"","1429","audio-keyboard-response","129","390890","0.0-3.0-1.94","../audio/17-1-fem.mp3"," ","","Falaram","","","",""
"","1051","audio-keyboard-response","130","392234","0.0-3.0-1.95","../audio/17-2-fem.mp3"," ","","da","","","",""
"","1291","audio-keyboard-response","131","393818","0.0-3.0-1.96","../audio/17-3-fem.mp3"," ","","lei","","","",""
"","1160","audio-keyboard-response","132","395258","0.0-3.0-1.97","../audio/17-4-fem.mp3"," ","","no","","","",""
"","1699","audio-keyboard-response","133","397258","0.0-3.0-1.98","../audio/17-5-fem.mp3"," ","","ministério","","","",""
"","1189","audio-keyboard-response","134","398731","0.0-3.0-1.99","../audio/17-6-fem.mp3"," ","","diversas","","","",""
"","1189","audio-keyboard-response","135","400219","0.0-3.0-1.100","../audio/17-7-fem.mp3"," ","","vezes.","","","",""
"","null","html-keyboard-response","136","401491","0.0-3.0-0.101-0.101","<span style= ""font-size:30px; font-family: monospace"">+</span>","null","fixation","","","","",""
"","1520","audio-keyboard-response","137","403307","0.0-3.0-1.101","../audio/19-1-fem.mp3"," ","","O","","","",""
"","1891","audio-keyboard-response","138","405499","0.0-3.0-1.102","../audio/19-2-fem.mp3"," ","","menino","","","",""
"","1440","audio-keyboard-response","139","407226","0.0-3.0-1.103","../audio/19-3-fem.mp3"," ","","ganhou","","","",""
"","1291","audio-keyboard-response","140","408795","0.0-3.0-1.104","../audio/19-4-fem.mp3"," ","","uma","","","",""
"","1261","audio-keyboard-response","141","410346","0.0-3.0-1.105","../audio/19-5-fem.mp3"," ","","bala","","","",""
"","1360","audio-keyboard-response","142","411978","0.0-3.0-1.106","../audio/19-6-fem.mp3"," ","","depois","","","",""
"","1160","audio-keyboard-response","143","413419","0.0-3.0-1.107","../audio/19-7-fem.mp3"," ","","do","","","",""
"","1389","audio-keyboard-response","144","415098","0.0-3.0-1.108","../audio/19-8-fem.mp3"," ","","almoço.","","","",""
"","null","html-keyboard-response","145","416362","0.0-3.0-0.109-0.109","<span style= ""font-size:30px; font-family: monospace"">+</span>","null","fixation","","","","",""
"","1480","audio-keyboard-response","146","418139","0.0-3.0-1.109","../audio/20-1-fem.mp3"," ","","O","","","",""
"","1309","audio-keyboard-response","147","419739","0.0-3.0-1.110","../audio/20-2-fem.mp3"," ","","colega","","","",""
"","1429","audio-keyboard-response","148","421450","0.0-3.0-1.111","../audio/20-3-fem.mp3"," ","","parecia","","","",""
"","1440","audio-keyboard-response","149","423178","0.0-3.0-1.112","../audio/20-4-fem.mp3"," ","","muito","","","",""
"","1459","audio-keyboard-response","150","424922","0.0-3.0-1.113","../audio/20-5-fem.mp3"," ","","gripado","","","",""
"","1171","audio-keyboard-response","151","426378","0.0-3.0-1.114","../audio/20-6-fem.mp3"," ","","no","","","",""
"","1149","audio-keyboard-response","152","427818","0.0-3.0-1.115","../audio/20-7-fem.mp3"," ","","dia","","","",""
"","1589","audio-keyboard-response","153","429706","0.0-3.0-1.116","../audio/20-8-fem.mp3"," ","","anterior.","","","",""
"","7399","html-keyboard-response","154","437371","0.0-3.0-2.116-0.116","<span style=""font-size:25px; font-family: monospace"">O colega parecia muito gripado?</span>","s","","","O colega parecia muito gripado?","null","exp-sent","false"
"","null","html-keyboard-response","155","438888","0.0-3.0-0.117-0.117","<span style= ""font-size:30px; font-family: monospace"">+</span>","null","fixation","","","","",""
"","1611","audio-keyboard-response","156","440795","0.0-3.0-1.117","../audio/28-1-fem.mp3"," ","","O","","","",""
"","1952","audio-keyboard-response","157","443034","0.0-3.0-1.118","../audio/28-2-fem.mp3"," ","","time","","","",""
"","1099","audio-keyboard-response","158","444410","0.0-3.0-1.119","../audio/28-3-fem.mp3"," ","","quer","","","",""
"","941","audio-keyboard-response","159","445626","0.0-3.0-1.120","../audio/28-4-fem.mp3"," ","","a","","","",""
"","1360","audio-keyboard-response","160","447274","0.0-3.0-1.121","../audio/28-5-fem.mp3"," ","","vitória","","","",""
"","1189","audio-keyboard-response","161","448747","0.0-3.0-1.122","../audio/28-6-fem.mp3"," ","","no","","","",""
"","1568","audio-keyboard-response","162","450602","0.0-3.0-1.123","../audio/28-7-fem.mp3"," ","","jogo","","","",""
"","1259","audio-keyboard-response","163","452139","0.0-3.0-1.124","../audio/28-8-fem.mp3"," ","","de","","","",""
"","1549","audio-keyboard-response","164","453979","0.0-3.0-1.125","../audio/28-9-fem.mp3"," ","","vôlei.","","","",""
"","null","html-keyboard-response","165","455248","0.0-3.0-0.126-0.126","<span style= ""font-size:30px; font-family: monospace"">+</span>","null","fixation","","","","",""
"","1469","audio-keyboard-response","166","457019","0.0-3.0-1.126","../audio/29-1-fem.mp3"," ","","Hoje","","","",""
"","1331","audio-keyboard-response","167","458635","0.0-3.0-1.127","../audio/29-2-fem.mp3"," ","","vamos","","","",""
"","1379","audio-keyboard-response","168","460298","0.0-3.0-1.128","../audio/29-3-fem.mp3"," ","","fazer","","","",""
"","1219","audio-keyboard-response","169","461802","0.0-3.0-1.129","../audio/29-4-fem.mp3"," ","","uma","","","",""
"","1880","audio-keyboard-response","170","463979","0.0-3.0-1.130","../audio/29-5-fem.mp3"," ","","atividade","","","",""
"","1528","audio-keyboard-response","171","465802","0.0-3.0-1.131","../audio/29-6-fem.mp3"," ","","sobre","","","",""
"","1160","audio-keyboard-response","172","467242","0.0-3.0-1.132","../audio/29-7-fem.mp3"," ","","fauna","","","",""
"","1339","audio-keyboard-response","173","468859","0.0-3.0-1.133","../audio/29-8-fem.mp3"," ","","marinha.","","","",""
"","null","html-keyboard-response","174","470133","0.0-3.0-0.134-0.134","<span style= ""font-size:30px; font-family: monospace"">+</span>","null","fixation","","","","",""
"","1139","audio-keyboard-response","175","471562","0.0-3.0-1.134","../audio/27-1-fem.mp3"," ","","O","","","",""
"","1512","audio-keyboard-response","176","473354","0.0-3.0-1.135","../audio/27-2-fem.mp3"," ","","dinheiro","","","",""
"","1651","audio-keyboard-response","177","475289","0.0-3.0-1.136","../audio/27-3-fem.mp3"," ","","chegou","","","",""
"","1400","audio-keyboard-response","178","476970","0.0-3.0-1.137","../audio/27-4-fem.mp3"," ","","à","","","",""
"","1781","audio-keyboard-response","179","479034","0.0-3.0-1.138","../audio/27-5-fem.mp3"," ","","elite","","","",""
"","1651","audio-keyboard-response","180","480987","0.0-3.0-1.139","../audio/27-6-fem.mp3"," ","","deste","","","",""
"","3459","audio-keyboard-response","181","484731","0.0-3.0-1.140","../audio/27-7-fem.mp3"," ","","país.","","","",""
"","null","html-keyboard-response","182","485998","0.0-3.0-0.141-0.141","<span style= ""font-size:30px; font-family: monospace"">+</span>","null","fixation","","","","",""
"","1600","audio-keyboard-response","183","487882","0.0-3.0-1.141","../audio/26-1-masc.mp3"," ","","Amanhã","","","",""
"","1600","audio-keyboard-response","184","489770","0.0-3.0-1.142","../audio/26-2-masc.mp3"," ","","temos","","","",""
"","1371","audio-keyboard-response","185","491435","0.0-3.0-1.143","../audio/26-3-masc.mp3"," ","","festa","","","",""
"","1200","audio-keyboard-response","186","492922","0.0-3.0-1.144","../audio/26-4-masc.mp3"," ","","na","","","",""
"","1531","audio-keyboard-response","187","494730","0.0-3.0-1.145","../audio/26-5-masc.mp3"," ","","piscina","","","",""
"","1131","audio-keyboard-response","188","496155","0.0-3.0-1.146","../audio/26-6-masc.mp3"," ","","o","","","",""
"","1189","audio-keyboard-response","189","497627","0.0-3.0-1.147","../audio/26-7-masc.mp3"," ","","dia","","","",""
"","2219","audio-keyboard-response","190","500122","0.0-3.0-1.148","../audio/26-8-masc.mp3"," ","","todo.","","","",""
"","null","html-keyboard-response","191","501388","0.0-3.0-0.149-0.149","<span style= ""font-size:30px; font-family: monospace"">+</span>","null","fixation","","","","",""
"","1131","audio-keyboard-response","192","502810","0.0-3.0-1.149","../audio/30-1-masc.mp3"," ","","O","","","",""
"","1720","audio-keyboard-response","193","504810","0.0-3.0-1.150","../audio/30-2-masc.mp3"," ","","funcionário","","","",""
"","1640","audio-keyboard-response","194","506747","0.0-3.0-1.151","../audio/30-3-masc.mp3"," ","","entregou","","","",""
"","1389","audio-keyboard-response","195","508427","0.0-3.0-1.152","../audio/30-4-masc.mp3"," ","","o","","","",""
"","2800","audio-keyboard-response","196","511515","0.0-3.0-1.153","../audio/30-5-masc.mp3"," ","","restante","","","",""
"","1331","audio-keyboard-response","197","513130","0.0-3.0-1.154","../audio/30-6-masc.mp3"," ","","do","","","",""
"","1931","audio-keyboard-response","198","515355","0.0-3.0-1.155","../audio/30-7-masc.mp3"," ","","dinheiro.","","","",""
"","5558","html-keyboard-response","199","521180","0.0-3.0-2.155-0.155","<span style=""font-size:25px; font-family: monospace"">O funcionário entregou o contrato?</span>","n","","","O funcionário entregou o contrato?","null","exp-sent","false"
"","null","html-keyboard-response","200","522704","0.0-3.0-0.156-0.156","<span style= ""font-size:30px; font-family: monospace"">+</span>","null","fixation","","","","",""
"","1840","audio-keyboard-response","201","524827","0.0-3.0-1.156","../audio/73-1-masc.mp3"," ","","O","","","",""
"","1659","audio-keyboard-response","202","526779","0.0-3.0-1.157","../audio/73-2-masc.mp3"," ","","cliente","","","",""
"","1349","audio-keyboard-response","203","528410","0.0-3.0-1.158","../audio/73-3-masc.mp3"," ","","era","","","",""
"","1331","audio-keyboard-response","204","530010","0.0-3.0-1.159","../audio/73-4-masc.mp3"," ","","um","","","",""
"","1520","audio-keyboard-response","205","531819","0.0-3.0-1.160","../audio/73-5-masc.mp3"," ","","homem","","","",""
"","1360","audio-keyboard-response","206","533467","0.0-3.0-1.161","../audio/73-6-masc.mp3"," ","","muito","","","",""
"","3941","audio-keyboard-response","207","537707","0.0-3.0-1.162","../audio/73-7-masc.mp3"," ","","educado.","","","",""
"","null","html-keyboard-response","208","538971","0.0-3.0-0.163-0.163","<span style= ""font-size:30px; font-family: monospace"">+</span>","null","fixation","","","","",""
"","1160","audio-keyboard-response","209","540426","0.0-3.0-1.163","../audio/72-1-fem.mp3"," ","","A","","","",""
"","2149","audio-keyboard-response","210","542859","0.0-3.0-1.164","../audio/72-2-fem.mp3"," ","","vencedora","","","",""
"","1589","audio-keyboard-response","211","544747","0.0-3.0-1.165","../audio/72-3-fem.mp3"," ","","recebeu","","","",""
"","1080","audio-keyboard-response","212","546107","0.0-3.0-1.166","../audio/72-4-fem.mp3"," ","","um","","","",""
"","1269","audio-keyboard-response","213","547659","0.0-3.0-1.167","../audio/72-5-fem.mp3"," ","","prêmio","","","",""
"","1059","audio-keyboard-response","214","549002","0.0-3.0-1.168","../audio/72-6-fem.mp3"," ","","em","","","",""
"","2109","audio-keyboard-response","215","551403","0.0-3.0-1.169","../audio/72-7-fem.mp3"," ","","dinheiro.","","","",""
"","null","html-keyboard-response","216","552684","0.0-3.0-0.170-0.170","<span style= ""font-size:30px; font-family: monospace"">+</span>","null","fixation","","","","",""
"","2360","audio-keyboard-response","217","555339","0.0-3.0-1.170","../audio/74-1-masc.mp3"," ","","Este","","","",""
"","1600","audio-keyboard-response","218","557211","0.0-3.0-1.171","../audio/74-2-masc.mp3"," ","","emprego","","","",""
"","1040","audio-keyboard-response","219","558539","0.0-3.0-1.172","../audio/74-3-masc.mp3"," ","","é","","","",""
"","1299","audio-keyboard-response","220","560123","0.0-3.0-1.173","../audio/74-4-masc.mp3"," ","","muito","","","",""
"","1709","audio-keyboard-response","221","562123","0.0-3.0-1.174","../audio/74-5-masc.mp3"," ","","cansativo","","","",""
"","1011","audio-keyboard-response","222","563418","0.0-3.0-1.175","../audio/74-6-masc.mp3"," ","","a","","","",""
"","1379","audio-keyboard-response","223","565083","0.0-3.0-1.176","../audio/74-7-masc.mp3"," ","","longo","","","",""
"","2920","audio-keyboard-response","224","568299","0.0-3.0-1.177","../audio/74-8-masc.mp3"," ","","prazo.","","","",""
"","null","html-keyboard-response","225","569569","0.0-3.0-0.178-0.178","<span style= ""font-size:30px; font-family: monospace"">+</span>","null","fixation","","","","",""
"","1691","audio-keyboard-response","226","571531","0.0-3.0-1.178","../audio/71-1-masc.mp3"," ","","Minhas","","","",""
"","1349","audio-keyboard-response","227","573163","0.0-3.0-1.179","../audio/71-2-masc.mp3"," ","","comidas","","","",""
"","1512","audio-keyboard-response","228","574955","0.0-3.0-1.180","../audio/71-3-masc.mp3"," ","","favoritas","","","",""
"","1179","audio-keyboard-response","229","576411","0.0-3.0-1.181","../audio/71-4-masc.mp3"," ","","são","","","",""
"","1320","audio-keyboard-response","230","578011","0.0-3.0-1.182","../audio/71-5-masc.mp3"," ","","morango","","","",""
"","1029","audio-keyboard-response","231","579323","0.0-3.0-1.183","../audio/71-6-masc.mp3"," ","","e","","","",""
"","1659","audio-keyboard-response","232","581259","0.0-3.0-1.184","../audio/71-7-masc.mp3"," ","","uva.","","","",""
"","null","html-keyboard-response","233","582532","0.0-3.0-0.185-0.185","<span style= ""font-size:30px; font-family: monospace"">+</span>","null","fixation","","","","",""
"","1091","audio-keyboard-response","234","583915","0.0-3.0-1.185","../audio/75-1-masc.mp3"," ","","Só","","","",""
"","1211","audio-keyboard-response","235","585419","0.0-3.0-1.186","../audio/75-2-masc.mp3"," ","","existe","","","",""
"","1101","audio-keyboard-response","236","586795","0.0-3.0-1.187","../audio/75-3-masc.mp3"," ","","uma","","","",""
"","1189","audio-keyboard-response","237","588267","0.0-3.0-1.188","../audio/75-4-masc.mp3"," ","","pessoa","","","",""
"","1221","audio-keyboard-response","238","589787","0.0-3.0-1.189","../audio/75-5-masc.mp3"," ","","canhota","","","",""
"","1328","audio-keyboard-response","239","591403","0.0-3.0-1.190","../audio/75-6-masc.mp3"," ","","nesta","","","",""
"","1960","audio-keyboard-response","240","593642","0.0-3.0-1.191","../audio/75-7-masc.mp3"," ","","cidade.","","","",""
"","10589","html-keyboard-response","241","604492","0.0-3.0-2.191-0.191","<span style=""font-size:25px; font-family: monospace"">Só existe uma pessoa canhota na cidade?</span>","s","","","Só existe uma pessoa canhota na cidade?","null","exp-sent","false"
"","null","html-keyboard-response","242","606003","0.0-3.0-0.192-0.192","<span style= ""font-size:30px; font-family: monospace"">+</span>","null","fixation","","","","",""
"","3211","audio-keyboard-response","243","609514","0.0-3.0-1.192","../audio/13-1-masc.mp3"," ","","Para","","","",""
"","1891","audio-keyboard-response","244","611707","0.0-3.0-1.193","../audio/13-2-masc.mp3"," ","","mim","","","",""
"","5949","audio-keyboard-response","245","617947","0.0-3.0-1.194","../audio/13-3-masc.mp3"," ","","é","","","",""
"","2021","audio-keyboard-response","246","620268","0.0-3.0-1.195","../audio/13-4-masc.mp3"," ","","muito","","","",""
"","1629","audio-keyboard-response","247","622188","0.0-3.0-1.196","../audio/13-5-masc.mp3"," ","","difícil","","","",""
"","1520","audio-keyboard-response","248","623995","0.0-3.0-1.197","../audio/13-6-masc.mp3"," ","","acordar","","","",""
"","2568","audio-keyboard-response","249","626843","0.0-3.0-1.198","../audio/13-7-masc.mp3"," ","","cedo.","","","",""
"","null","html-keyboard-response","250","628116","0.0-3.0-0.199-0.199","<span style= ""font-size:30px; font-family: monospace"">+</span>","null","fixation","","","","",""
"","1011","audio-keyboard-response","251","629420","0.0-3.0-1.199","../audio/14-1-masc.mp3"," ","","O","","","",""
"","1109","audio-keyboard-response","252","630811","0.0-3.0-1.200","../audio/14-2-masc.mp3"," ","","cachorro","","","",""
"","941","audio-keyboard-response","253","632027","0.0-3.0-1.201","../audio/14-3-masc.mp3"," ","","é","","","",""
"","1229","audio-keyboard-response","254","633531","0.0-3.0-1.202","../audio/14-4-masc.mp3"," ","","muito","","","",""
"","1291","audio-keyboard-response","255","635100","0.0-3.0-1.203","../audio/14-5-masc.mp3"," ","","fiel","","","",""
"","1131","audio-keyboard-response","256","636508","0.0-3.0-1.204","../audio/14-6-masc.mp3"," ","","a","","","",""
"","1488","audio-keyboard-response","257","638284","0.0-3.0-1.205","../audio/14-7-masc.mp3"," ","","seus","","","",""
"","3080","audio-keyboard-response","258","641660","0.0-3.0-1.206","../audio/14-8-masc.mp3"," ","","donos.","","","",""
"","null","html-keyboard-response","259","642931","0.0-3.0-0.207-0.207","<span style= ""font-size:30px; font-family: monospace"">+</span>","null","fixation","","","","",""
"","461","audio-keyboard-response","260","643676","0.0-3.0-1.207","../audio/11-1-fem.mp3"," ","","Elas","","","",""
"","1349","audio-keyboard-response","261","645308","0.0-3.0-1.208","../audio/11-2-fem.mp3"," ","","gostam","","","",""
"","1408","audio-keyboard-response","262","647003","0.0-3.0-1.209","../audio/11-3-fem.mp3"," ","","muito","","","",""
"","1280","audio-keyboard-response","263","648556","0.0-3.0-1.210","../audio/11-4-fem.mp3"," ","","de","","","",""
"","1768","audio-keyboard-response","264","650604","0.0-3.0-1.211","../audio/11-5-fem.mp3"," ","","aritmética","","","",""
"","1141","audio-keyboard-response","265","652027","0.0-3.0-1.212","../audio/11-6-fem.mp3"," ","","e","","","",""
"","1229","audio-keyboard-response","266","653532","0.0-3.0-1.213","../audio/11-7-fem.mp3"," ","","de","","","",""
"","1659","audio-keyboard-response","267","655484","0.0-3.0-1.214","../audio/11-8-fem.mp3"," ","","leitura.","","","",""
"","null","html-keyboard-response","268","656757","0.0-3.0-0.215-0.215","<span style= ""font-size:30px; font-family: monospace"">+</span>","null","fixation","","","","",""
"","1069","audio-keyboard-response","269","658123","0.0-3.0-1.215","../audio/12-1-fem.mp3"," ","","O","","","",""
"","1168","audio-keyboard-response","270","659564","0.0-3.0-1.216","../audio/12-2-fem.mp3"," ","","dia","","","",""
"","1160","audio-keyboard-response","271","661003","0.0-3.0-1.217","../audio/12-3-fem.mp3"," ","","estava","","","",""
"","1432","audio-keyboard-response","272","662716","0.0-3.0-1.218","../audio/12-4-fem.mp3"," ","","quente,","","","",""
"","1621","audio-keyboard-response","273","664635","0.0-3.0-1.219","../audio/12-5-fem.mp3"," ","","tranquilo","","","",""
"","1029","audio-keyboard-response","274","665931","0.0-3.0-1.220","../audio/12-6-fem.mp3"," ","","e","","","",""
"","1829","audio-keyboard-response","275","668043","0.0-3.0-1.221","../audio/12-7-fem.mp3"," ","","ensolarado.","","","",""
"","null","html-keyboard-response","276","669321","0.0-3.0-0.222-0.222","<span style= ""font-size:30px; font-family: monospace"">+</span>","null","fixation","","","","",""
"","1301","audio-keyboard-response","277","670908","0.0-3.0-1.222","../audio/15-1-masc.mp3"," ","","Meu","","","",""
"","1189","audio-keyboard-response","278","672379","0.0-3.0-1.223","../audio/15-2-masc.mp3"," ","","primo","","","",""
"","989","audio-keyboard-response","279","673643","0.0-3.0-1.224","../audio/15-3-masc.mp3"," ","","é","","","",""
"","1051","audio-keyboard-response","280","674988","0.0-3.0-1.225","../audio/15-4-masc.mp3"," ","","um","","","",""
"","1488","audio-keyboard-response","281","676763","0.0-3.0-1.226","../audio/15-5-masc.mp3"," ","","grande","","","",""
"","1560","audio-keyboard-response","282","678620","0.0-3.0-1.227","../audio/15-6-masc.mp3"," ","","vendedor","","","",""
"","1128","audio-keyboard-response","283","680043","0.0-3.0-1.228","../audio/15-7-masc.mp3"," ","","de","","","",""
"","2619","audio-keyboard-response","284","682941","0.0-3.0-1.229","../audio/15-8-masc.mp3"," ","","carros.","","","",""
"","7790","html-keyboard-response","285","690988","0.0-3.0-2.229-0.229","<span style=""font-size:25px; font-family: monospace"">O primo é um vendedor de carros?</span>","s","","","O primo é um vendedor de carros?","null","exp-sent","false"
"","null","html-keyboard-response","286","692504","0.0-3.0-0.230-0.230","<span style= ""font-size:30px; font-family: monospace"">+</span>","null","fixation","","","","",""
"","1320","audio-keyboard-response","287","694108","0.0-3.0-1.230","../audio/02-2-masc.mp3"," ","","Havia","","","",""
"","1651","audio-keyboard-response","288","696013","0.0-3.0-1.231","../audio/02-2-masc.mp3"," ","","um","","","",""
"","2029","audio-keyboard-response","289","698332","0.0-3.0-1.232","../audio/02-3-masc.mp3"," ","","cheiro","","","",""
"","1480","audio-keyboard-response","290","700108","0.0-3.0-1.233","../audio/02-4-masc.mp3"," ","","de","","","",""
"","1539","audio-keyboard-response","291","701932","0.0-3.0-1.234","../audio/02-5-masc.mp3"," ","","gasolina","","","",""
"","1171","audio-keyboard-response","292","703388","0.0-3.0-1.235","../audio/02-6-masc.mp3"," ","","na","","","",""
"","1888","audio-keyboard-response","293","705564","0.0-3.0-1.236","../audio/02-7-masc.mp3"," ","","garagem.","","","",""
"","null","html-keyboard-response","294","706835","0.0-3.0-0.237-0.237","<span style= ""font-size:30px; font-family: monospace"">+</span>","null","fixation","","","","",""
"","691","audio-keyboard-response","295","707820","0.0-3.0-1.237","../audio/01-1-masc.mp3"," ","","O","","","",""
"","1379","audio-keyboard-response","296","709484","0.0-3.0-1.238","../audio/01-2-masc.mp3"," ","","menino","","","",""
"","1501","audio-keyboard-response","297","711276","0.0-3.0-1.239","../audio/01-3-masc.mp3"," ","","derrubou","","","",""
"","1011","audio-keyboard-response","298","712572","0.0-3.0-1.240","../audio/01-4-masc.mp3"," ","","a","","","",""
"","1499","audio-keyboard-response","299","714364","0.0-3.0-1.241","../audio/01-5-masc.mp3"," ","","guitarra","","","",""
"","1491","audio-keyboard-response","300","716140","0.0-3.0-1.242","../audio/01-6-masc.mp3"," ","","no","","","",""
"","2000","audio-keyboard-response","301","718428","0.0-3.0-1.243","../audio/01-7-masc.mp3"," ","","chão.","","","",""
"","null","html-keyboard-response","302","719695","0.0-3.0-0.244-0.244","<span style= ""font-size:30px; font-family: monospace"">+</span>","null","fixation","","","","",""
"","1699","audio-keyboard-response","303","721692","0.0-3.0-1.244","../audio/04-1-fem.mp3"," ","","Duzentos","","","",""
"","1200","audio-keyboard-response","304","723163","0.0-3.0-1.245","../audio/04-2-fem.mp3"," ","","carros","","","",""
"","1981","audio-keyboard-response","305","725436","0.0-3.0-1.246","../audio/04-3-fem.mp3"," ","","passaram","","","",""
"","1171","audio-keyboard-response","306","726908","0.0-3.0-1.247","../audio/04-4-fem.mp3"," ","","pela","","","",""
"","1240","audio-keyboard-response","307","728428","0.0-3.0-1.248","../audio/04-5-fem.mp3"," ","","ponte","","","",""
"","1440","audio-keyboard-response","308","730156","0.0-3.0-1.249","../audio/04-6-fem.mp3"," ","","hoje","","","",""
"","1139","audio-keyboard-response","309","731580","0.0-3.0-1.250","../audio/04-7-fem.mp3"," ","","de","","","",""
"","1829","audio-keyboard-response","310","733692","0.0-3.0-1.251","../audio/04-8-fem.mp3"," ","","tarde.","","","",""
"","null","html-keyboard-response","311","734959","0.0-3.0-0.252-0.252","<span style= ""font-size:30px; font-family: monospace"">+</span>","null","fixation","","","","",""
"","1120","audio-keyboard-response","312","736380","0.0-3.0-1.252","../audio/03-1-masc.mp3"," ","","O","","","",""
"","1469","audio-keyboard-response","313","738140","0.0-3.0-1.253","../audio/03-2-masc.mp3"," ","","coelho","","","",""
"","1219","audio-keyboard-response","314","739644","0.0-3.0-1.254","../audio/03-3-masc.mp3"," ","","foi","","","",""
"","1640","audio-keyboard-response","315","741580","0.0-3.0-1.255","../audio/03-4-masc.mp3"," ","","bastante","","","",""
"","1840","audio-keyboard-response","316","743708","0.0-3.0-1.256","../audio/03-5-masc.mp3"," ","","dócil","","","",""
"","1160","audio-keyboard-response","317","745148","0.0-3.0-1.257","../audio/03-6-masc.mp3"," ","","com","","","",""
"","1269","audio-keyboard-response","318","746684","0.0-3.0-1.258","../audio/03-7-masc.mp3"," ","","as","","","",""
"","1672","audio-keyboard-response","319","748636","0.0-3.0-1.259","../audio/03-8-masc.mp3"," ","","crianças.","","","",""
"","null","html-keyboard-response","320","749906","0.0-3.0-0.260-0.260","<span style= ""font-size:30px; font-family: monospace"">+</span>","null","fixation","","","","",""
"","1659","audio-keyboard-response","321","751852","0.0-3.0-1.260","../audio/05-1-masc.mp3"," ","","A","","","",""
"","2040","audio-keyboard-response","322","754172","0.0-3.0-1.261","../audio/05-2-masc.mp3"," ","","vendedora","","","",""
"","1651","audio-keyboard-response","323","756108","0.0-3.0-1.262","../audio/05-3-masc.mp3"," ","","ajudou","","","",""
"","1728","audio-keyboard-response","324","758124","0.0-3.0-1.263","../audio/05-4-masc.mp3"," ","","um","","","",""
"","1960","audio-keyboard-response","325","760364","0.0-3.0-1.264","../audio/05-5-masc.mp3"," ","","turista","","","",""
"","2429","audio-keyboard-response","326","763084","0.0-3.0-1.265","../audio/05-6-masc.mp3"," ","","na","","","",""
"","2509","audio-keyboard-response","327","765900","0.0-3.0-1.266","../audio/05-7-masc.mp3"," ","","loja.","","","",""
"","9985","html-keyboard-response","328","776141","0.0-3.0-2.266-0.266","<span style=""font-size:25px; font-family: monospace"">A vendedora ajudou um turista?</span>","n","","","A vendedora ajudou um turista?","null","exp-sent","false"
"","null","html-keyboard-response","329","777658","0.0-3.0-0.267-0.267","<span style= ""font-size:30px; font-family: monospace"">+</span>","null","fixation","","","","",""
"","1299","audio-keyboard-response","330","779244","0.0-3.0-1.267","../audio/62-1-fem.mp3"," ","","As","","","",""
"","1781","audio-keyboard-response","331","781308","0.0-3.0-1.268","../audio/62-2-fem.mp3"," ","","artesãs","","","",""
"","1651","audio-keyboard-response","332","783260","0.0-3.0-1.269","../audio/62-3-fem.mp3"," ","","gostam","","","",""
"","1629","audio-keyboard-response","333","785164","0.0-3.0-1.270","../audio/62-4-fem.mp3"," ","","de","","","",""
"","1912","audio-keyboard-response","334","787356","0.0-3.0-1.271","../audio/62-5-fem.mp3"," ","","maquiagem","","","",""
"","2979","audio-keyboard-response","335","790620","0.0-3.0-1.272","../audio/62-6-fem.mp3"," ","","e","","","",""
"","1259","audio-keyboard-response","336","792171","0.0-3.0-1.273","../audio/62-7-fem.mp3"," ","","de","","","",""
"","1621","audio-keyboard-response","337","794076","0.0-3.0-1.274","../audio/62-8-fem.mp3"," ","","crochê.","","","",""
"","null","html-keyboard-response","338","795343","0.0-3.0-0.275-0.275","<span style= ""font-size:30px; font-family: monospace"">+</span>","null","fixation","","","","",""
"","1491","audio-keyboard-response","339","797132","0.0-3.0-1.275","../audio/64-1-fem.mp3"," ","","O","","","",""
"","1331","audio-keyboard-response","340","798732","0.0-3.0-1.276","../audio/64-2-fem.mp3"," ","","dia","","","",""
"","2640","audio-keyboard-response","341","801644","0.0-3.0-1.277","../audio/64-3-fem.mp3"," ","","começou","","","",""
"","1229","audio-keyboard-response","342","803164","0.0-3.0-1.278","../audio/64-4-fem.mp3"," ","","com","","","",""
"","1789","audio-keyboard-response","343","805244","0.0-3.0-1.279","../audio/64-5-fem.mp3"," ","","garoa","","","",""
"","1709","audio-keyboard-response","344","807244","0.0-3.0-1.280","../audio/64-6-fem.mp3"," ","","gelada","","","",""
"","1221","audio-keyboard-response","345","808749","0.0-3.0-1.281","../audio/64-7-fem.mp3"," ","","e","","","",""
"","1880","audio-keyboard-response","346","810909","0.0-3.0-1.282","../audio/64-8-fem.mp3"," ","","leve.","","","",""
"","null","html-keyboard-response","347","812164","0.0-3.0-0.283-0.283","<span style= ""font-size:30px; font-family: monospace"">+</span>","null","fixation","","","","",""
"","1560","audio-keyboard-response","348","814013","0.0-3.0-1.283","../audio/61-1-fem.mp3"," ","","Aquele","","","",""
"","1571","audio-keyboard-response","349","815868","0.0-3.0-1.284","../audio/61-2-fem.mp3"," ","","senhor","","","",""
"","1179","audio-keyboard-response","350","817324","0.0-3.0-1.285","../audio/61-3-fem.mp3"," ","","é","","","",""
"","1891","audio-keyboard-response","351","819501","0.0-3.0-1.286","../audio/61-4-fem.mp3"," ","","muito","","","",""
"","1891","audio-keyboard-response","352","821676","0.0-3.0-1.287","../audio/61-5-fem.mp3"," ","","sovina","","","",""
"","1131","audio-keyboard-response","353","823101","0.0-3.0-1.288","../audio/61-6-fem.mp3"," ","","e","","","",""
"","2669","audio-keyboard-response","354","826044","0.0-3.0-1.289","../audio/61-7-fem.mp3"," ","","inflexível.","","","",""
"","null","html-keyboard-response","355","827307","0.0-3.0-0.290-0.290","<span style= ""font-size:30px; font-family: monospace"">+</span>","null","fixation","","","","",""
"","1211","audio-keyboard-response","356","828813","0.0-3.0-1.290","../audio/63-1-masc.mp3"," ","","A","","","",""
"","1381","audio-keyboard-response","357","830477","0.0-3.0-1.291","../audio/63-2-masc.mp3"," ","","chuva","","","",""
"","1299","audio-keyboard-response","358","832060","0.0-3.0-1.292","../audio/63-3-masc.mp3"," ","","entrou","","","",""
"","1229","audio-keyboard-response","359","833581","0.0-3.0-1.293","../audio/63-4-masc.mp3"," ","","pela","","","",""
"","1400","audio-keyboard-response","360","835260","0.0-3.0-1.294","../audio/63-5-masc.mp3"," ","","abertura","","","",""
"","1189","audio-keyboard-response","361","836732","0.0-3.0-1.295","../audio/63-6-masc.mp3"," ","","na","","","",""
"","2021","audio-keyboard-response","362","839036","0.0-3.0-1.296","../audio/63-7-masc.mp3"," ","","janela.","","","",""
"","null","html-keyboard-response","363","840295","0.0-3.0-0.297-0.297","<span style= ""font-size:30px; font-family: monospace"">+</span>","null","fixation","","","","",""
"","989","audio-keyboard-response","364","841580","0.0-3.0-1.297","../audio/65-1-fem.mp3"," ","","O","","","",""
"","1720","audio-keyboard-response","365","843596","0.0-3.0-1.298","../audio/65-2-fem.mp3"," ","","fantasma","","","",""
"","1341","audio-keyboard-response","366","845228","0.0-3.0-1.299","../audio/65-3-fem.mp3"," ","","veio","","","",""
"","1139","audio-keyboard-response","367","846653","0.0-3.0-1.300","../audio/65-4-fem.mp3"," ","","da","","","",""
"","1989","audio-keyboard-response","368","848924","0.0-3.0-1.301","../audio/65-5-fem.mp3"," ","","escuridão","","","",""
"","952","audio-keyboard-response","369","850157","0.0-3.0-1.302","../audio/65-6-fem.mp3"," ","","do","","","",""
"","2299","audio-keyboard-response","370","852733","0.0-3.0-1.303","../audio/65-7-fem.mp3"," ","","armário.","","","",""
"","8422","html-keyboard-response","371","861421","0.0-3.0-2.303-0.303","<span style=""font-size:25px; font-family: monospace"">O fantasma veio da escuridão do armário?</span>","s","","","O fantasma veio da escuridão do armário?","null","exp-sent","false"
"","null","html-keyboard-response","372","862946","0.0-3.0-0.304-0.304","<span style= ""font-size:30px; font-family: monospace"">+</span>","null","fixation","","","","",""
"","6011","audio-keyboard-response","373","869262","0.0-3.0-1.304","../audio/57-1-fem.mp3"," ","","O","","","",""
"","1848","audio-keyboard-response","374","871405","0.0-3.0-1.305","../audio/57-2-fem.mp3"," ","","capitão","","","",""
"","2141","audio-keyboard-response","375","873837","0.0-3.0-1.306","../audio/57-3-fem.mp3"," ","","deu","","","",""
"","1320","audio-keyboard-response","376","875437","0.0-3.0-1.307","../audio/57-4-fem.mp3"," ","","uma","","","",""
"","1608","audio-keyboard-response","377","877325","0.0-3.0-1.308","../audio/57-5-fem.mp3"," ","","instrução","","","",""
"","1040","audio-keyboard-response","378","878653","0.0-3.0-1.309","../audio/57-6-fem.mp3"," ","","para","","","",""
"","901","audio-keyboard-response","379","879838","0.0-3.0-1.310","../audio/57-7-fem.mp3"," ","","as","","","",""
"","1128","audio-keyboard-response","380","881245","0.0-3.0-1.311","../audio/57-8-fem.mp3"," ","","pessoas.","","","",""
"","null","html-keyboard-response","381","882525","0.0-3.0-0.312-0.312","<span style= ""font-size:30px; font-family: monospace"">+</span>","null","fixation","","","","",""
"","1211","audio-keyboard-response","382","884029","0.0-3.0-1.312","../audio/58-1-fem.mp3"," ","","Havia","","","",""
"","1469","audio-keyboard-response","383","885773","0.0-3.0-1.313","../audio/58-2-fem.mp3"," ","","apenas","","","",""
"","1072","audio-keyboard-response","384","887117","0.0-3.0-1.314","../audio/58-3-fem.mp3"," ","","um","","","",""
"","1619","audio-keyboard-response","385","889021","0.0-3.0-1.315","../audio/58-4-fem.mp3"," ","","último","","","",""
"","1491","audio-keyboard-response","386","890797","0.0-3.0-1.316","../audio/58-5-fem.mp3"," ","","herdeiro","","","",""
"","1288","audio-keyboard-response","387","892365","0.0-3.0-1.317","../audio/58-6-fem.mp3"," ","","do","","","",""
"","3040","audio-keyboard-response","388","895694","0.0-3.0-1.318","../audio/58-7-fem.mp3"," ","","dinheiro.","","","",""
"","null","html-keyboard-response","389","896968","0.0-3.0-0.319-0.319","<span style= ""font-size:30px; font-family: monospace"">+</span>","null","fixation","","","","",""
"","1080","audio-keyboard-response","390","898333","0.0-3.0-1.319","../audio/56-1-fem.mp3"," ","","A","","","",""
"","1221","audio-keyboard-response","391","899837","0.0-3.0-1.320","../audio/56-2-fem.mp3"," ","","moça","","","",""
"","1072","audio-keyboard-response","392","901197","0.0-3.0-1.321","../audio/56-3-fem.mp3"," ","","foi","","","",""
"","840","audio-keyboard-response","393","902317","0.0-3.0-1.322","../audio/56-4-fem.mp3"," ","","à","","","",""
"","1349","audio-keyboard-response","394","903949","0.0-3.0-1.323","../audio/56-5-fem.mp3"," ","","agência","","","",""
"","1229","audio-keyboard-response","395","905469","0.0-3.0-1.324","../audio/56-6-fem.mp3"," ","","bancária","","","",""
"","1549","audio-keyboard-response","396","907294","0.0-3.0-1.325","../audio/56-7-fem.mp3"," ","","ontem","","","",""
"","1080","audio-keyboard-response","397","908653","0.0-3.0-1.326","../audio/56-8-fem.mp3"," ","","de","","","",""
"","1541","audio-keyboard-response","398","910477","0.0-3.0-1.327","../audio/56-9-fem.mp3"," ","","tarde.","","","",""
"","null","html-keyboard-response","399","911755","0.0-3.0-0.328-0.328","<span style= ""font-size:30px; font-family: monospace"">+</span>","null","fixation","","","","",""
"","1011","audio-keyboard-response","400","913054","0.0-3.0-1.328","../audio/59-1-fem.mp3"," ","","O","","","",""
"","1189","audio-keyboard-response","401","914525","0.0-3.0-1.329","../audio/59-2-fem.mp3"," ","","carteiro","","","",""
"","981","audio-keyboard-response","402","915789","0.0-3.0-1.330","../audio/59-3-fem.mp3"," ","","fez","","","",""
"","891","audio-keyboard-response","403","916957","0.0-3.0-1.331","../audio/59-4-fem.mp3"," ","","uma","","","",""
"","1120","audio-keyboard-response","404","918365","0.0-3.0-1.332","../audio/59-5-fem.mp3"," ","","tentativa","","","",""
"","1112","audio-keyboard-response","405","919757","0.0-3.0-1.333","../audio/59-6-fem.mp3"," ","","de","","","",""
"","1869","audio-keyboard-response","406","921901","0.0-3.0-1.334","../audio/59-7-fem.mp3"," ","","entrega.","","","",""
"","null","html-keyboard-response","407","923166","0.0-3.0-0.335-0.335","<span style= ""font-size:30px; font-family: monospace"">+</span>","null","fixation","","","","",""
"","1739","audio-keyboard-response","408","925214","0.0-3.0-1.335","../audio/60-1-fem.mp3"," ","","Ondas","","","",""
"","1240","audio-keyboard-response","409","926749","0.0-3.0-1.336","../audio/60-2-fem.mp3"," ","","têm","","","",""
"","1240","audio-keyboard-response","410","928253","0.0-3.0-1.337","../audio/60-3-fem.mp3"," ","","um","","","",""
"","1669","audio-keyboard-response","411","930205","0.0-3.0-1.338","../audio/60-4-fem.mp3"," ","","impacto","","","",""
"","1400","audio-keyboard-response","412","931885","0.0-3.0-1.339","../audio/60-5-fem.mp3"," ","","destrutivo","","","",""
"","1171","audio-keyboard-response","413","933341","0.0-3.0-1.340","../audio/60-6-fem.mp3"," ","","no","","","",""
"","1709","audio-keyboard-response","414","935325","0.0-3.0-1.341","../audio/60-7-fem.mp3"," ","","litoral.","","","",""
"","8911","html-keyboard-response","415","944493","0.0-3.0-2.341-0.341","<span style=""font-size:25px; font-family: monospace"">Ondas têm um impacto destrutivo?</span>","s","","","Ondas têm um impacto destrutivo?","null","exp-sent","false"
"","null","html-keyboard-response","416","946010","0.0-3.0-0.342-0.342","<span style= ""font-size:30px; font-family: monospace"">+</span>","null","fixation","","","","",""
"","1301","audio-keyboard-response","417","947597","0.0-3.0-1.342","../audio/76-1-masc.mp3"," ","","O","","","",""
"","1392","audio-keyboard-response","418","949277","0.0-3.0-1.343","../audio/76-2-masc.mp3"," ","","bisavô","","","",""
"","1251","audio-keyboard-response","419","950813","0.0-3.0-1.344","../audio/76-3-masc.mp3"," ","","comprou","","","",""
"","901","audio-keyboard-response","420","951996","0.0-3.0-1.345","../audio/76-4-masc.mp3"," ","","um","","","",""
"","869","audio-keyboard-response","421","953149","0.0-3.0-1.346","../audio/76-5-masc.mp3"," ","","ralador","","","",""
"","949","audio-keyboard-response","422","954381","0.0-3.0-1.347","../audio/76-6-masc.mp3"," ","","de","","","",""
"","2189","audio-keyboard-response","423","956845","0.0-3.0-1.348","../audio/76-7-masc.mp3"," ","","queijo.","","","",""
"","null","html-keyboard-response","424","958112","0.0-3.0-0.349-0.349","<span style= ""font-size:30px; font-family: monospace"">+</span>","null","fixation","","","","",""
"","1451","audio-keyboard-response","425","959854","0.0-3.0-1.349","../audio/78-1-fem.mp3"," ","","Eles","","","",""
"","1291","audio-keyboard-response","426","961437","0.0-3.0-1.350","../audio/78-2-fem.mp3"," ","","trazem","","","",""
"","960","audio-keyboard-response","427","962685","0.0-3.0-1.351","../audio/78-3-fem.mp3"," ","","um","","","",""
"","1648","audio-keyboard-response","428","964605","0.0-3.0-1.352","../audio/78-4-fem.mp3"," ","","fato","","","",""
"","2189","audio-keyboard-response","429","967100","0.0-3.0-1.353","../audio/78-5-fem.mp3"," ","","urgente","","","",""
"","1320","audio-keyboard-response","430","968701","0.0-3.0-1.354","../audio/78-6-fem.mp3"," ","","todos","","","",""
"","1520","audio-keyboard-response","431","970494","0.0-3.0-1.355","../audio/78-7-fem.mp3"," ","","os","","","",""
"","1640","audio-keyboard-response","432","972429","0.0-3.0-1.356","../audio/78-8-fem.mp3"," ","","dias.","","","",""
"","null","html-keyboard-response","433","973710","0.0-3.0-0.357-0.357","<span style= ""font-size:30px; font-family: monospace"">+</span>","null","fixation","","","","",""
"","1408","audio-keyboard-response","434","975405","0.0-3.0-1.357","../audio/77-1-masc.mp3"," ","","A","","","",""
"","1512","audio-keyboard-response","435","977196","0.0-3.0-1.358","../audio/77-2-masc.mp3"," ","","criança","","","",""
"","1299","audio-keyboard-response","436","978765","0.0-3.0-1.359","../audio/77-3-masc.mp3"," ","","ficou","","","",""
"","1360","audio-keyboard-response","437","980397","0.0-3.0-1.360","../audio/77-4-masc.mp3"," ","","muito","","","",""
"","1139","audio-keyboard-response","438","981822","0.0-3.0-1.361","../audio/77-5-masc.mp3"," ","","feliz","","","",""
"","1211","audio-keyboard-response","439","983309","0.0-3.0-1.362","../audio/77-6-masc.mp3"," ","","com","","","",""
"","1339","audio-keyboard-response","440","984925","0.0-3.0-1.363","../audio/77-7-masc.mp3"," ","","o","","","",""
"","2240","audio-keyboard-response","441","987437","0.0-3.0-1.364","../audio/77-8-masc.mp3"," ","","brinquedo.","","","",""
"","null","html-keyboard-response","442","988705","0.0-3.0-0.365-0.365","<span style= ""font-size:30px; font-family: monospace"">+</span>","null","fixation","","","","",""
"","1419","audio-keyboard-response","443","990413","0.0-3.0-1.365","../audio/79-1-fem.mp3"," ","","A","","","",""
"","1589","audio-keyboard-response","444","992301","0.0-3.0-1.366","../audio/79-2-fem.mp3"," ","","médica","","","",""
"","1320","audio-keyboard-response","445","993917","0.0-3.0-1.367","../audio/79-3-fem.mp3"," ","","verificou","","","",""
"","1139","audio-keyboard-response","446","995341","0.0-3.0-1.368","../audio/79-4-fem.mp3"," ","","a","","","",""
"","1731","audio-keyboard-response","447","997357","0.0-3.0-1.369","../audio/79-5-fem.mp3"," ","","gengiva","","","",""
"","1099","audio-keyboard-response","448","998733","0.0-3.0-1.370","../audio/79-6-fem.mp3"," ","","por","","","",""
"","2171","audio-keyboard-response","449","1001181","0.0-3.0-1.371","../audio/79-7-fem.mp3"," ","","último.","","","",""
"","null","html-keyboard-response","450","1002458","0.0-3.0-0.372-0.372","<span style= ""font-size:30px; font-family: monospace"">+</span>","null","fixation","","","","",""
"","1309","audio-keyboard-response","451","1004045","0.0-3.0-1.372","../audio/80-1-masc.mp3"," ","","Meu","","","",""
"","1389","audio-keyboard-response","452","1005725","0.0-3.0-1.373","../audio/80-2-masc.mp3"," ","","primo","","","",""
"","1512","audio-keyboard-response","453","1007516","0.0-3.0-1.374","../audio/80-3-masc.mp3"," ","","conheceu","","","",""
"","1019","audio-keyboard-response","454","1008813","0.0-3.0-1.375","../audio/80-4-masc.mp3"," ","","um","","","",""
"","1421","audio-keyboard-response","455","1010509","0.0-3.0-1.376","../audio/80-5-masc.mp3"," ","","jovem","","","",""
"","1019","audio-keyboard-response","456","1011805","0.0-3.0-1.377","../audio/80-6-masc.mp3"," ","","amável","","","",""
"","1069","audio-keyboard-response","457","1013149","0.0-3.0-1.378","../audio/80-7-masc.mp3"," ","","e","","","",""
"","3701","audio-keyboard-response","458","1017149","0.0-3.0-1.379","../audio/80-8-masc.mp3"," ","","confiante.","","","",""
"","27689","html-keyboard-response","459","1045101","0.0-3.0-2.379-0.379","<span style=""font-size:25px; font-family: monospace"">O primo conheceu um jovem irritante?</span>","n","","","O primo conheceu um jovem irritante?","null","exp-sent","false"
"","null","html-keyboard-response","460","1046609","0.0-3.0-0.380-0.380","<span style= ""font-size:30px; font-family: monospace"">+</span>","null","fixation","","","","",""
"","200","audio-keyboard-response","461","1047085","0.0-3.0-1.380","../audio/07-1-fem.mp3"," ","","Meu","","","",""
"","9821","audio-keyboard-response","462","1057182","0.0-3.0-1.381","../audio/07-2-fem.mp3"," ","","filho","","","",""
"","1499","audio-keyboard-response","463","1058957","0.0-3.0-1.382","../audio/07-3-fem.mp3"," ","","é","","","",""
"","1371","audio-keyboard-response","464","1060605","0.0-3.0-1.383","../audio/07-4-fem.mp3"," ","","muito","","","",""
"","1419","audio-keyboard-response","465","1062317","0.0-3.0-1.384","../audio/07-5-fem.mp3"," ","","responsável","","","",""
"","1072","audio-keyboard-response","466","1063662","0.0-3.0-1.385","../audio/07-6-fem.mp3"," ","","nos","","","",""
"","1531","audio-keyboard-response","467","1065485","0.0-3.0-1.386","../audio/07-7-fem.mp3"," ","","estudos.","","","",""
"","null","html-keyboard-response","468","1066762","0.0-3.0-0.387-0.387","<span style= ""font-size:30px; font-family: monospace"">+</span>","null","fixation","","","","",""
"","1800","audio-keyboard-response","469","1068845","0.0-3.0-1.387","../audio/06-1-fem.mp3"," ","","Ouvimos","","","",""
"","2261","audio-keyboard-response","470","1071389","0.0-3.0-1.388","../audio/06-2-fem.mp3"," ","","a","","","",""
"","1491","audio-keyboard-response","471","1073165","0.0-3.0-1.389","../audio/06-3-fem.mp3"," ","","fala","","","",""
"","1269","audio-keyboard-response","472","1074717","0.0-3.0-1.390","../audio/06-4-fem.mp3"," ","","do","","","",""
"","1901","audio-keyboard-response","473","1076893","0.0-3.0-1.391","../audio/06-5-fem.mp3"," ","","profeta","","","",""
"","1528","audio-keyboard-response","474","1078717","0.0-3.0-1.392","../audio/06-6-fem.mp3"," ","","no","","","",""
"","2109","audio-keyboard-response","475","1081117","0.0-3.0-1.393","../audio/06-7-fem.mp3"," ","","púlpito","","","",""
"","1291","audio-keyboard-response","476","1082685","0.0-3.0-1.394","../audio/06-8-fem.mp3"," ","","da","","","",""
"","1880","audio-keyboard-response","477","1084845","0.0-3.0-1.395","../audio/06-9-fem.mp3"," ","","igreja.","","","",""
"","null","html-keyboard-response","478","1086107","0.0-3.0-0.396-0.396","<span style= ""font-size:30px; font-family: monospace"">+</span>","null","fixation","","","","",""
"","1171","audio-keyboard-response","479","1087565","0.0-3.0-1.396","../audio/09-1-masc.mp3"," ","","O","","","",""
"","1309","audio-keyboard-response","480","1089165","0.0-3.0-1.397","../audio/09-2-masc.mp3"," ","","rapaz","","","",""
"","1432","audio-keyboard-response","481","1090862","0.0-3.0-1.398","../audio/09-3-masc.mp3"," ","","limpou","","","",""
"","1149","audio-keyboard-response","482","1092285","0.0-3.0-1.399","../audio/09-4-masc.mp3"," ","","o","","","",""
"","1469","audio-keyboard-response","483","1094045","0.0-3.0-1.400","../audio/09-5-masc.mp3"," ","","terreno","","","",""
"","1200","audio-keyboard-response","484","1095533","0.0-3.0-1.401","../audio/09-6-masc.mp3"," ","","com","","","",""
"","1251","audio-keyboard-response","485","1097069","0.0-3.0-1.402","../audio/09-7-masc.mp3"," ","","uma","","","",""
"","2021","audio-keyboard-response","486","1099373","0.0-3.0-1.403","../audio/09-8-masc.mp3"," ","","pá.","","","",""
"","null","html-keyboard-response","487","1100649","0.0-3.0-0.404-0.404","<span style= ""font-size:30px; font-family: monospace"">+</span>","null","fixation","","","","",""
"","1171","audio-keyboard-response","488","1102125","0.0-3.0-1.404","../audio/08-1-masc.mp3"," ","","A","","","",""
"","1669","audio-keyboard-response","489","1104093","0.0-3.0-1.405","../audio/08-2-masc.mp3"," ","","receita","","","",""
"","1608","audio-keyboard-response","490","1105997","0.0-3.0-1.406","../audio/08-3-masc.mp3"," ","","pede","","","",""
"","1291","audio-keyboard-response","491","1107565","0.0-3.0-1.407","../audio/08-4-masc.mp3"," ","","um","","","",""
"","1349","audio-keyboard-response","492","1109198","0.0-3.0-1.408","../audio/08-5-masc.mp3"," ","","litro","","","",""
"","1101","audio-keyboard-response","493","1110589","0.0-3.0-1.409","../audio/08-6-masc.mp3"," ","","de","","","",""
"","1280","audio-keyboard-response","494","1112158","0.0-3.0-1.410","../audio/08-7-masc.mp3"," ","","leite","","","",""
"","2451","audio-keyboard-response","495","1114894","0.0-3.0-1.411","../audio/08-8-masc.mp3"," ","","integral.","","","",""
"","null","html-keyboard-response","496","1116165","0.0-3.0-0.412-0.412","<span style= ""font-size:30px; font-family: monospace"">+</span>","null","fixation","","","","",""
"","99","audio-keyboard-response","497","1116558","0.0-3.0-1.412","../audio/10-1-fem.mp3"," ","","O","","","",""
"","1781","audio-keyboard-response","498","1118622","0.0-3.0-1.413","../audio/10-2-fem.mp3"," ","","pássaro","","","",""
"","1232","audio-keyboard-response","499","1120142","0.0-3.0-1.414","../audio/10-3-fem.mp3"," ","","azul","","","",""
"","1408","audio-keyboard-response","500","1121838","0.0-3.0-1.415","../audio/10-4-fem.mp3"," ","","estava","","","",""
"","1211","audio-keyboard-response","501","1123325","0.0-3.0-1.416","../audio/10-5-fem.mp3"," ","","vivo","","","",""
"","1021","audio-keyboard-response","502","1124622","0.0-3.0-1.417","../audio/10-6-fem.mp3"," ","","e","","","",""
"","1189","audio-keyboard-response","503","1126094","0.0-3.0-1.418","../audio/10-7-fem.mp3"," ","","em","","","",""
"","1848","audio-keyboard-response","504","1128238","0.0-3.0-1.419","../audio/10-8-fem.mp3"," ","","segurança.","","","",""
"","4494","html-keyboard-response","505","1132990","0.0-3.0-2.419-0.419","<span style=""font-size:25px; font-family: monospace"">O pássaro vermelho estava em segurança?</span>","n","","","O pássaro vermelho estava em segurança?","null","exp-sent","false"
"","null","html-keyboard-response","506","1134506","0.0-3.0-0.420-0.420","<span style= ""font-size:30px; font-family: monospace"">+</span>","null","fixation","","","","",""
"","1360","audio-keyboard-response","507","1136158","0.0-3.0-1.420","../audio/41-1-fem.mp3"," ","","A","","","",""
"","1381","audio-keyboard-response","508","1137822","0.0-3.0-1.421","../audio/41-2-fem.mp3"," ","","novela","","","",""
"","1088","audio-keyboard-response","509","1139198","0.0-3.0-1.422","../audio/41-3-fem.mp3"," ","","falava","","","",""
"","1088","audio-keyboard-response","510","1140557","0.0-3.0-1.423","../audio/41-4-fem.mp3"," ","","de","","","",""
"","1072","audio-keyboard-response","511","1141902","0.0-3.0-1.424","../audio/41-5-fem.mp3"," ","","paixão","","","",""
"","880","audio-keyboard-response","512","1143053","0.0-3.0-1.425","../audio/41-6-fem.mp3"," ","","e","","","",""
"","760","audio-keyboard-response","513","1144077","0.0-3.0-1.426","../audio/41-7-fem.mp3"," ","","comédia.","","","",""
"","null","html-keyboard-response","514","1145348","0.0-3.0-0.427-0.427","<span style= ""font-size:30px; font-family: monospace"">+</span>","null","fixation","","","","",""
"","1240","audio-keyboard-response","515","1146878","0.0-3.0-1.427","../audio/44-1-fem.mp3"," ","","Meus","","","",""
"","861","audio-keyboard-response","516","1148029","0.0-3.0-1.428","../audio/44-2-fem.mp3"," ","","irmãos","","","",""
"","931","audio-keyboard-response","517","1149245","0.0-3.0-1.429","../audio/44-3-fem.mp3"," ","","brigam","","","",""
"","1061","audio-keyboard-response","518","1150573","0.0-3.0-1.430","../audio/44-4-fem.mp3"," ","","por","","","",""
"","1280","audio-keyboard-response","519","1152142","0.0-3.0-1.431","../audio/44-5-fem.mp3"," ","","bobagem","","","",""
"","1240","audio-keyboard-response","520","1153661","0.0-3.0-1.432","../audio/44-6-fem.mp3"," ","","todos","","","",""
"","1029","audio-keyboard-response","521","1154973","0.0-3.0-1.433","../audio/44-7-fem.mp3"," ","","os","","","",""
"","2499","audio-keyboard-response","522","1157758","0.0-3.0-1.434","../audio/44-8-fem.mp3"," ","","dias.","","","",""
"","null","html-keyboard-response","523","1159027","0.0-3.0-0.435-0.435","<span style= ""font-size:30px; font-family: monospace"">+</span>","null","fixation","","","","",""
"","1080","audio-keyboard-response","524","1160398","0.0-3.0-1.435","../audio/43-1-fem.mp3"," ","","Eu","","","",""
"","1752","audio-keyboard-response","525","1162429","0.0-3.0-1.436","../audio/43-2-fem.mp3"," ","","achei","","","",""
"","1099","audio-keyboard-response","526","1163805","0.0-3.0-1.437","../audio/43-3-fem.mp3"," ","","um","","","",""
"","1221","audio-keyboard-response","527","1165310","0.0-3.0-1.438","../audio/43-4-fem.mp3"," ","","colchão","","","",""
"","1312","audio-keyboard-response","528","1166909","0.0-3.0-1.439","../audio/43-5-fem.mp3"," ","","velho","","","",""
"","989","audio-keyboard-response","529","1168173","0.0-3.0-1.440","../audio/43-6-fem.mp3"," ","","e","","","",""
"","1219","audio-keyboard-response","530","1169677","0.0-3.0-1.441","../audio/43-7-fem.mp3"," ","","imundo","","","",""
"","1101","audio-keyboard-response","531","1171053","0.0-3.0-1.442","../audio/43-8-fem.mp3"," ","","na","","","",""
"","1560","audio-keyboard-response","532","1172893","0.0-3.0-1.443","../audio/43-9-fem.mp3"," ","","casa.","","","",""
"","null","html-keyboard-response","533","1174163","0.0-3.0-0.444-0.444","<span style= ""font-size:30px; font-family: monospace"">+</span>","null","fixation","","","","",""
"","1091","audio-keyboard-response","534","1175549","0.0-3.0-1.444","../audio/42-1-masc.mp3"," ","","Eu","","","",""
"","1032","audio-keyboard-response","535","1176862","0.0-3.0-1.445","../audio/42-2-masc.mp3"," ","","fui","","","",""
"","960","audio-keyboard-response","536","1178093","0.0-3.0-1.446","../audio/42-3-masc.mp3"," ","","a","","","",""
"","1011","audio-keyboard-response","537","1179373","0.0-3.0-1.447","../audio/42-4-masc.mp3"," ","","uma","","","",""
"","1019","audio-keyboard-response","538","1180685","0.0-3.0-1.448","../audio/42-5-masc.mp3"," ","","loja","","","",""
"","901","audio-keyboard-response","539","1181869","0.0-3.0-1.449","../audio/42-6-masc.mp3"," ","","de","","","",""
"","1040","audio-keyboard-response","540","1183197","0.0-3.0-1.450","../audio/42-7-masc.mp3"," ","","móveis","","","",""
"","1088","audio-keyboard-response","541","1184557","0.0-3.0-1.451","../audio/42-8-masc.mp3"," ","","no","","","",""
"","1341","audio-keyboard-response","542","1186189","0.0-3.0-1.452","../audio/42-9-masc.mp3"," ","","bairro.","","","",""
"","null","html-keyboard-response","543","1187462","0.0-3.0-0.453-0.453","<span style= ""font-size:30px; font-family: monospace"">+</span>","null","fixation","","","","",""
"","480","audio-keyboard-response","544","1188237","0.0-3.0-1.453","../audio/45-1-fem.mp3"," ","","O","","","",""
"","1261","audio-keyboard-response","545","1189773","0.0-3.0-1.454","../audio/45-2-fem.mp3"," ","","homem","","","",""
"","1451","audio-keyboard-response","546","1191502","0.0-3.0-1.455","../audio/45-3-fem.mp3"," ","","pagou","","","",""
"","1061","audio-keyboard-response","547","1192829","0.0-3.0-1.456","../audio/45-4-fem.mp3"," ","","o","","","",""
"","1120","audio-keyboard-response","548","1194237","0.0-3.0-1.457","../audio/45-5-fem.mp3"," ","","aluguel","","","",""
"","1280","audio-keyboard-response","549","1195805","0.0-3.0-1.458","../audio/45-6-fem.mp3"," ","","com","","","",""
"","2472","audio-keyboard-response","550","1198542","0.0-3.0-1.459","../audio/45-7-fem.mp3"," ","","atraso.","","","",""
"","18396","html-keyboard-response","551","1217198","0.0-3.0-2.459-0.459","<span style=""font-size:25px; font-family: monospace"">O homem pagou o aluguel em dia?</span>","n","","","O homem pagou o aluguel em dia?","null","exp-sent","false"
"","null","html-keyboard-response","552","1218723","0.0-3.0-0.460-0.460","<span style= ""font-size:30px; font-family: monospace"">+</span>","null","fixation","","","","",""
"","1371","audio-keyboard-response","553","1220382","0.0-3.0-1.460","../audio/67-1-fem.mp3"," ","","Minha","","","",""
"","1069","audio-keyboard-response","554","1221742","0.0-3.0-1.461","../audio/67-2-fem.mp3"," ","","tia","","","",""
"","909","audio-keyboard-response","555","1222941","0.0-3.0-1.462","../audio/67-3-fem.mp3"," ","","comprou","","","",""
"","1069","audio-keyboard-response","556","1224285","0.0-3.0-1.463","../audio/67-4-fem.mp3"," ","","um","","","",""
"","1381","audio-keyboard-response","557","1225932","0.0-3.0-1.464","../audio/67-5-fem.mp3"," ","","cordão","","","",""
"","949","audio-keyboard-response","558","1227165","0.0-3.0-1.465","../audio/67-6-fem.mp3"," ","","para","","","",""
"","941","audio-keyboard-response","559","1228382","0.0-3.0-1.466","../audio/67-7-fem.mp3"," ","","o","","","",""
"","1488","audio-keyboard-response","560","1230157","0.0-3.0-1.467","../audio/67-8-fem.mp3"," ","","varal.","","","",""
"","null","html-keyboard-response","561","1231426","0.0-3.0-0.468-0.468","<span style= ""font-size:30px; font-family: monospace"">+</span>","null","fixation","","","","",""
"","1280","audio-keyboard-response","562","1233004","0.0-3.0-1.468","../audio/66-1-fem.mp3"," ","","Não","","","",""
"","1280","audio-keyboard-response","563","1234573","0.0-3.0-1.469","../audio/66-2-fem.mp3"," ","","gosto","","","",""
"","1019","audio-keyboard-response","564","1235885","0.0-3.0-1.470","../audio/66-3-fem.mp3"," ","","de","","","",""
"","1381","audio-keyboard-response","565","1237549","0.0-3.0-1.471","../audio/66-4-fem.mp3"," ","","gente","","","",""
"","2592","audio-keyboard-response","566","1240429","0.0-3.0-1.472","../audio/66-5-fem.mp3"," ","","egoísta","","","",""
"","1171","audio-keyboard-response","567","1241869","0.0-3.0-1.473","../audio/66-6-fem.mp3"," ","","nem","","","",""
"","1520","audio-keyboard-response","568","1243677","0.0-3.0-1.474","../audio/66-7-fem.mp3"," ","","chata.","","","",""
"","null","html-keyboard-response","569","1244938","0.0-3.0-0.475-0.475","<span style= ""font-size:30px; font-family: monospace"">+</span>","null","fixation","","","","",""
"","2091","audio-keyboard-response","570","1247341","0.0-3.0-1.475","../audio/68-1-fem.mp3"," ","","Meu","","","",""
"","1309","audio-keyboard-response","571","1248941","0.0-3.0-1.476","../audio/68-2-fem.mp3"," ","","irmão","","","",""
"","1088","audio-keyboard-response","572","1250317","0.0-3.0-1.477","../audio/68-3-fem.mp3"," ","","teve","","","",""
"","1112","audio-keyboard-response","573","1251709","0.0-3.0-1.478","../audio/68-4-fem.mp3"," ","","um","","","",""
"","1411","audio-keyboard-response","574","1253421","0.0-3.0-1.479","../audio/68-5-fem.mp3"," ","","noivado","","","",""
"","1320","audio-keyboard-response","575","1255021","0.0-3.0-1.480","../audio/68-6-fem.mp3"," ","","longo","","","",""
"","1029","audio-keyboard-response","576","1256333","0.0-3.0-1.481","../audio/68-7-fem.mp3"," ","","e","","","",""
"","2880","audio-keyboard-response","577","1259484","0.0-3.0-1.482","../audio/68-8-fem.mp3"," ","","maravilhoso.","","","",""
"","null","html-keyboard-response","578","1260754","0.0-3.0-0.483-0.483","<span style= ""font-size:30px; font-family: monospace"">+</span>","null","fixation","","","","",""
"","1080","audio-keyboard-response","579","1262125","0.0-3.0-1.483","../audio/69-1-fem.mp3"," ","","A","","","",""
"","1360","audio-keyboard-response","580","1263773","0.0-3.0-1.484","../audio/69-2-fem.mp3"," ","","loja","","","",""
"","1379","audio-keyboard-response","581","1265437","0.0-3.0-1.485","../audio/69-3-fem.mp3"," ","","recebeu","","","",""
"","840","audio-keyboard-response","582","1266557","0.0-3.0-1.486","../audio/69-4-fem.mp3"," ","","uma","","","",""
"","1192","audio-keyboard-response","583","1268029","0.0-3.0-1.487","../audio/69-5-fem.mp3"," ","","poltrona","","","",""
"","1000","audio-keyboard-response","584","1269309","0.0-3.0-1.488","../audio/69-6-fem.mp3"," ","","de","","","",""
"","1171","audio-keyboard-response","585","1270749","0.0-3.0-1.489","../audio/69-7-fem.mp3"," ","","couro","","","",""
"","1971","audio-keyboard-response","586","1273005","0.0-3.0-1.490","../audio/69-8-fem.mp3"," ","","preto.","","","",""
"","null","html-keyboard-response","587","1274275","0.0-3.0-0.491-0.491","<span style= ""font-size:30px; font-family: monospace"">+</span>","null","fixation","","","","",""
"","1069","audio-keyboard-response","588","1275645","0.0-3.0-1.491","../audio/70-1-masc.mp3"," ","","O","","","",""
"","1109","audio-keyboard-response","589","1277037","0.0-3.0-1.492","../audio/70-2-masc.mp3"," ","","meu","","","",""
"","1101","audio-keyboard-response","590","1278429","0.0-3.0-1.493","../audio/70-3-masc.mp3"," ","","filho","","","",""
"","1021","audio-keyboard-response","591","1279740","0.0-3.0-1.494","../audio/70-4-masc.mp3"," ","","tem","","","",""
"","1040","audio-keyboard-response","592","1281069","0.0-3.0-1.495","../audio/70-5-masc.mp3"," ","","medo","","","",""
"","1069","audio-keyboard-response","593","1282412","0.0-3.0-1.496","../audio/70-6-masc.mp3"," ","","de","","","",""
"","1400","audio-keyboard-response","594","1284110","0.0-3.0-1.497","../audio/70-7-masc.mp3"," ","","enguia","","","",""
"","1011","audio-keyboard-response","595","1285405","0.0-3.0-1.498","../audio/70-8-masc.mp3"," ","","e","","","",""
"","2299","audio-keyboard-response","596","1287997","0.0-3.0-1.499","../audio/70-9-masc.mp3"," ","","beija-flor.","","","",""
"","6195","html-keyboard-response","597","1294445","0.0-3.0-2.499-0.499","<span style=""font-size:25px; font-family: monospace"">O filho tem medo de tigre?</span>","n","","","O filho tem medo de tigre?","null","exp-sent","false"
"","null","html-keyboard-response","598","1295975","0.0-3.0-0.500-0.500","<span style= ""font-size:30px; font-family: monospace"">+</span>","null","fixation","","","","",""
"","1120","audio-keyboard-response","599","1297389","0.0-3.0-1.500","../audio/39-1-fem.mp3"," ","","O","","","",""
"","1368","audio-keyboard-response","600","1299037","0.0-3.0-1.501","../audio/39-2-fem.mp3"," ","","conselho","","","",""
"","1040","audio-keyboard-response","601","1300365","0.0-3.0-1.502","../audio/39-3-fem.mp3"," ","","foi","","","",""
"","1829","audio-keyboard-response","602","1302477","0.0-3.0-1.503","../audio/39-4-fem.mp3"," ","","muito","","","",""
"","1629","audio-keyboard-response","603","1304397","0.0-3.0-1.504","../audio/39-5-fem.mp3"," ","","útil","","","",""
"","1051","audio-keyboard-response","604","1305741","0.0-3.0-1.505","../audio/39-6-fem.mp3"," ","","para","","","",""
"","1069","audio-keyboard-response","605","1307085","0.0-3.0-1.506","../audio/39-7-fem.mp3"," ","","minha","","","",""
"","1120","audio-keyboard-response","606","1308477","0.0-3.0-1.507","../audio/39-8-fem.mp3"," ","","tia.","","","",""
"","null","html-keyboard-response","607","1309754","0.0-3.0-0.508-0.508","<span style= ""font-size:30px; font-family: monospace"">+</span>","null","fixation","","","","",""
"","1021","audio-keyboard-response","608","1311069","0.0-3.0-1.508","../audio/38-1-masc.mp3"," ","","A","","","",""
"","1171","audio-keyboard-response","609","1312525","0.0-3.0-1.509","../audio/38-2-masc.mp3"," ","","empresa","","","",""
"","821","audio-keyboard-response","610","1313629","0.0-3.0-1.510","../audio/38-3-masc.mp3"," ","","criou","","","",""
"","888","audio-keyboard-response","611","1314797","0.0-3.0-1.511","../audio/38-4-masc.mp3"," ","","a","","","",""
"","992","audio-keyboard-response","612","1316062","0.0-3.0-1.512","../audio/38-5-masc.mp3"," ","","patente","","","",""
"","960","audio-keyboard-response","613","1317309","0.0-3.0-1.513","../audio/38-6-masc.mp3"," ","","da","","","",""
"","1069","audio-keyboard-response","614","1318653","0.0-3.0-1.514","../audio/38-7-masc.mp3"," ","","frigideira.","","","",""
"","null","html-keyboard-response","615","1319920","0.0-3.0-0.515-0.515","<span style= ""font-size:30px; font-family: monospace"">+</span>","null","fixation","","","","",""
"","291","audio-keyboard-response","616","1320509","0.0-3.0-1.515","../audio/36-1-masc.mp3"," ","","Meu","","","",""
"","1189","audio-keyboard-response","617","1321981","0.0-3.0-1.516","../audio/36-2-masc.mp3"," ","","tio","","","",""
"","1160","audio-keyboard-response","618","1323421","0.0-3.0-1.517","../audio/36-3-masc.mp3"," ","","comprou","","","",""
"","859","audio-keyboard-response","619","1324556","0.0-3.0-1.518","../audio/36-4-masc.mp3"," ","","um","","","",""
"","872","audio-keyboard-response","620","1325709","0.0-3.0-1.519","../audio/36-5-masc.mp3"," ","","filtro","","","",""
"","920","audio-keyboard-response","621","1326893","0.0-3.0-1.520","../audio/36-6-masc.mp3"," ","","de","","","",""
"","909","audio-keyboard-response","622","1328093","0.0-3.0-1.521","../audio/36-7-masc.mp3"," ","","água","","","",""
"","941","audio-keyboard-response","623","1329309","0.0-3.0-1.522","../audio/36-8-masc.mp3"," ","","hoje","","","",""
"","1709","audio-keyboard-response","624","1331293","0.0-3.0-1.523","../audio/36-9-masc.mp3"," ","","cedo.","","","",""
"","null","html-keyboard-response","625","1332574","0.0-3.0-0.524-0.524","<span style= ""font-size:30px; font-family: monospace"">+</span>","null","fixation","","","","",""
"","291","audio-keyboard-response","626","1333165","0.0-3.0-1.524","../audio/37-1-fem.mp3"," ","","Eu","","","",""
"","949","audio-keyboard-response","627","1334397","0.0-3.0-1.525","../audio/37-2-fem.mp3"," ","","adoro","","","",""
"","1291","audio-keyboard-response","628","1335965","0.0-3.0-1.526","../audio/37-3-fem.mp3"," ","","suco","","","",""
"","1109","audio-keyboard-response","629","1337357","0.0-3.0-1.527","../audio/37-4-fem.mp3"," ","","de","","","",""
"","1131","audio-keyboard-response","630","1338765","0.0-3.0-1.528","../audio/37-5-fem.mp3"," ","","manga","","","",""
"","1261","audio-keyboard-response","631","1340302","0.0-3.0-1.529","../audio/37-6-fem.mp3"," ","","com","","","",""
"","1400","audio-keyboard-response","632","1341997","0.0-3.0-1.530","../audio/37-7-fem.mp3"," ","","hortelã.","","","",""
"","null","html-keyboard-response","633","1343263","0.0-3.0-0.531-0.531","<span style= ""font-size:30px; font-family: monospace"">+</span>","null","fixation","","","","",""
"","571","audio-keyboard-response","634","1344141","0.0-3.0-1.531","../audio/40-1-masc.mp3"," ","","O","","","",""
"","1219","audio-keyboard-response","635","1345645","0.0-3.0-1.532","../audio/40-2-masc.mp3"," ","","jogo","","","",""
"","1051","audio-keyboard-response","636","1346989","0.0-3.0-1.533","../audio/40-3-masc.mp3"," ","","falava","","","",""
"","931","audio-keyboard-response","637","1348205","0.0-3.0-1.534","../audio/40-4-masc.mp3"," ","","de","","","",""
"","1339","audio-keyboard-response","638","1349837","0.0-3.0-1.535","../audio/40-5-masc.mp3"," ","","fantasia","","","",""
"","1011","audio-keyboard-response","639","1351149","0.0-3.0-1.536","../audio/40-6-masc.mp3"," ","","e","","","",""
"","1080","audio-keyboard-response","640","1352509","0.0-3.0-1.537","../audio/40-7-masc.mp3"," ","","de","","","",""
"","1581","audio-keyboard-response","641","1354381","0.0-3.0-1.538","../audio/40-8-masc.mp3"," ","","aventura.","","","",""
"","8857","html-keyboard-response","642","1363501","0.0-3.0-2.538-0.538","<span style=""font-size:25px; font-family: monospace"">O jogo tinha fantasia e aventura?</span>","s","","","O jogo tinha fantasia e aventura?","null","exp-sent","false"
"","null","html-keyboard-response","643","1365009","0.0-3.0-0.539-0.539","<span style= ""font-size:30px; font-family: monospace"">+</span>","null","fixation","","","","",""
"","1931","audio-keyboard-response","644","1367229","0.0-3.0-1.539","../audio/49-1-masc.mp3"," ","","Eu","","","",""
"","931","audio-keyboard-response","645","1368445","0.0-3.0-1.540","../audio/49-2-masc.mp3"," ","","quero","","","",""
"","971","audio-keyboard-response","646","1369693","0.0-3.0-1.541","../audio/49-3-masc.mp3"," ","","um","","","",""
"","2229","audio-keyboard-response","647","1372205","0.0-3.0-1.542","../audio/49-4-masc.mp3"," ","","lanche","","","",""
"","1581","audio-keyboard-response","648","1374062","0.0-3.0-1.543","../audio/49-5-masc.mp3"," ","","duplo","","","",""
"","3320","audio-keyboard-response","649","1377662","0.0-3.0-1.544","../audio/49-6-masc.mp3"," ","","e","","","",""
"","3909","audio-keyboard-response","650","1381853","0.0-3.0-1.545","../audio/49-7-masc.mp3"," ","","um","","","",""
"","1440","audio-keyboard-response","651","1383564","0.0-3.0-1.546","../audio/49-8-masc.mp3"," ","","suco.","","","",""
"","null","html-keyboard-response","652","1384833","0.0-3.0-0.547-0.547","<span style= ""font-size:30px; font-family: monospace"">+</span>","null","fixation","","","","",""
"","1189","audio-keyboard-response","653","1386317","0.0-3.0-1.547","../audio/47-1-masc.mp3"," ","","O","","","",""
"","1221","audio-keyboard-response","654","1387821","0.0-3.0-1.548","../audio/47-2-masc.mp3"," ","","tio","","","",""
"","1309","audio-keyboard-response","655","1389405","0.0-3.0-1.549","../audio/47-3-masc.mp3"," ","","recusou","","","",""
"","931","audio-keyboard-response","656","1390621","0.0-3.0-1.550","../audio/47-4-masc.mp3"," ","","a","","","",""
"","1168","audio-keyboard-response","657","1392077","0.0-3.0-1.551","../audio/47-5-masc.mp3"," ","","sobremesa","","","",""
"","1069","audio-keyboard-response","658","1393437","0.0-3.0-1.552","../audio/47-6-masc.mp3"," ","","no","","","",""
"","2251","audio-keyboard-response","659","1395981","0.0-3.0-1.553","../audio/47-7-masc.mp3"," ","","almoço.","","","",""
"","null","html-keyboard-response","660","1397263","0.0-3.0-0.554-0.554","<span style= ""font-size:30px; font-family: monospace"">+</span>","null","fixation","","","","",""
"","461","audio-keyboard-response","661","1398029","0.0-3.0-1.554","../audio/46-1-masc.mp3"," ","","Meu","","","",""
"","1208","audio-keyboard-response","662","1399517","0.0-3.0-1.555","../audio/46-2-masc.mp3"," ","","primo","","","",""
"","1160","audio-keyboard-response","663","1400973","0.0-3.0-1.556","../audio/46-3-masc.mp3"," ","","estava","","","",""
"","1149","audio-keyboard-response","664","1402397","0.0-3.0-1.557","../audio/46-4-masc.mp3"," ","","muito","","","",""
"","1651","audio-keyboard-response","665","1404333","0.0-3.0-1.558","../audio/46-5-masc.mp3"," ","","deprimido","","","",""
"","1120","audio-keyboard-response","666","1405741","0.0-3.0-1.559","../audio/46-6-masc.mp3"," ","","no","","","",""
"","1960","audio-keyboard-response","667","1407981","0.0-3.0-1.560","../audio/46-7-masc.mp3"," ","","inverno.","","","",""
"","null","html-keyboard-response","668","1409252","0.0-3.0-0.561-0.561","<span style= ""font-size:30px; font-family: monospace"">+</span>","null","fixation","","","","",""
"","651","audio-keyboard-response","669","1410205","0.0-3.0-1.561","../audio/48-1-fem.mp3"," ","","Ela","","","",""
"","1371","audio-keyboard-response","670","1411852","0.0-3.0-1.562","../audio/48-2-fem.mp3"," ","","come","","","",""
"","1211","audio-keyboard-response","671","1413341","0.0-3.0-1.563","../audio/48-3-fem.mp3"," ","","feijão","","","",""
"","1051","audio-keyboard-response","672","1414669","0.0-3.0-1.564","../audio/48-4-fem.mp3"," ","","com","","","",""
"","1331","audio-keyboard-response","673","1416301","0.0-3.0-1.565","../audio/48-5-fem.mp3"," ","","arroz","","","",""
"","1101","audio-keyboard-response","674","1417693","0.0-3.0-1.566","../audio/48-6-fem.mp3"," ","","todos","","","",""
"","960","audio-keyboard-response","675","1418941","0.0-3.0-1.567","../audio/48-7-fem.mp3"," ","","os","","","",""
"","1389","audio-keyboard-response","676","1420605","0.0-3.0-1.568","../audio/48-8-fem.mp3"," ","","dias.","","","",""
"","null","html-keyboard-response","677","1421885","0.0-3.0-0.569-0.569","<span style= ""font-size:30px; font-family: monospace"">+</span>","null","fixation","","","","",""
"","1088","audio-keyboard-response","678","1423262","0.0-3.0-1.569","../audio/50-1-fem.mp3"," ","","O","","","",""
"","1600","audio-keyboard-response","679","1425148","0.0-3.0-1.570","../audio/50-2-fem.mp3"," ","","pássaro","","","",""
"","1259","audio-keyboard-response","680","1426684","0.0-3.0-1.571","../audio/50-3-fem.mp3"," ","","fugiu","","","",""
"","1029","audio-keyboard-response","681","1427996","0.0-3.0-1.572","../audio/50-4-fem.mp3"," ","","da","","","",""
"","1171","audio-keyboard-response","682","1429452","0.0-3.0-1.573","../audio/50-5-fem.mp3"," ","","gaiola","","","",""
"","1189","audio-keyboard-response","683","1430924","0.0-3.0-1.574","../audio/50-6-fem.mp3"," ","","pela","","","",""
"","1680","audio-keyboard-response","684","1432892","0.0-3.0-1.575","../audio/50-7-fem.mp3"," ","","portinhola.","","","",""
"","9438","html-keyboard-response","685","1442589","0.0-3.0-2.575-0.575","<span style=""font-size:25px; font-family: monospace"">O pássaro fugiu da gaiola?</span>","s","","","O pássaro fugiu da gaiola?","null","exp-sent","false"
"","null","html-keyboard-response","686","1444102","0.0-3.0-0.576-0.576","<span style= ""font-size:30px; font-family: monospace"">+</span>","null","fixation","","","","",""
"","579","audio-keyboard-response","687","1444957","0.0-3.0-1.576","../audio/53-1-fem.mp3"," ","","O","","","",""
"","1229","audio-keyboard-response","688","1446492","0.0-3.0-1.577","../audio/53-2-fem.mp3"," ","","médico","","","",""
"","1189","audio-keyboard-response","689","1447965","0.0-3.0-1.578","../audio/53-3-fem.mp3"," ","","foi","","","",""
"","1389","audio-keyboard-response","690","1449644","0.0-3.0-1.579","../audio/53-4-fem.mp3"," ","","bastante","","","",""
"","1240","audio-keyboard-response","691","1451181","0.0-3.0-1.580","../audio/53-5-fem.mp3"," ","","preciso","","","",""
"","1272","audio-keyboard-response","692","1452749","0.0-3.0-1.581","../audio/53-6-fem.mp3"," ","","durante","","","",""
"","1109","audio-keyboard-response","693","1454124","0.0-3.0-1.582","../audio/53-7-fem.mp3"," ","","a","","","",""
"","1941","audio-keyboard-response","694","1456349","0.0-3.0-1.583","../audio/53-8-fem.mp3"," ","","cirurgia.","","","",""
"","null","html-keyboard-response","695","1457629","0.0-3.0-0.584-0.584","<span style= ""font-size:30px; font-family: monospace"">+</span>","null","fixation","","","","",""
"","128","audio-keyboard-response","696","1458077","0.0-3.0-1.584","../audio/54-1-fem.mp3"," ","","Estou","","","",""
"","1080","audio-keyboard-response","697","1459437","0.0-3.0-1.585","../audio/54-2-fem.mp3"," ","","com","","","",""
"","1309","audio-keyboard-response","698","1461036","0.0-3.0-1.586","../audio/54-3-fem.mp3"," ","","medo","","","",""
"","1000","audio-keyboard-response","699","1462317","0.0-3.0-1.587","../audio/54-4-fem.mp3"," ","","da","","","",""
"","1389","audio-keyboard-response","700","1463997","0.0-3.0-1.588","../audio/54-5-fem.mp3"," ","","atual","","","",""
"","2051","audio-keyboard-response","701","1466332","0.0-3.0-1.589","../audio/54-6-fem.mp3"," ","","organização","","","",""
"","1109","audio-keyboard-response","702","1467741","0.0-3.0-1.590","../audio/54-7-fem.mp3"," ","","do","","","",""
"","1669","audio-keyboard-response","703","1469693","0.0-3.0-1.591","../audio/54-8-fem.mp3"," ","","país.","","","",""
"","null","html-keyboard-response","704","1470959","0.0-3.0-0.592-0.592","<span style= ""font-size:30px; font-family: monospace"">+</span>","null","fixation","","","","",""
"","1251","audio-keyboard-response","705","1472509","0.0-3.0-1.592","../audio/51-1-masc.mp3"," ","","Suco","","","",""
"","1109","audio-keyboard-response","706","1473901","0.0-3.0-1.593","../audio/51-2-masc.mp3"," ","","de","","","",""
"","1579","audio-keyboard-response","707","1475758","0.0-3.0-1.594","../audio/51-3-masc.mp3"," ","","acerola","","","",""
"","1091","audio-keyboard-response","708","1477133","0.0-3.0-1.595","../audio/51-4-masc.mp3"," ","","é","","","",""
"","1280","audio-keyboard-response","709","1478701","0.0-3.0-1.596","../audio/51-5-masc.mp3"," ","","azedo","","","",""
"","1019","audio-keyboard-response","710","1479997","0.0-3.0-1.597","../audio/51-6-masc.mp3"," ","","e","","","",""
"","1400","audio-keyboard-response","711","1481677","0.0-3.0-1.598","../audio/51-7-masc.mp3"," ","","até","","","",""
"","1800","audio-keyboard-response","712","1483757","0.0-3.0-1.599","../audio/51-8-masc.mp3"," ","","barato.","","","",""
"","null","html-keyboard-response","713","1485029","0.0-3.0-0.600-0.600","<span style= ""font-size:30px; font-family: monospace"">+</span>","null","fixation","","","","",""
"","1309","audio-keyboard-response","714","1486637","0.0-3.0-1.600","../audio/52-1-masc.mp3"," ","","Às","","","",""
"","1291","audio-keyboard-response","715","1488221","0.0-3.0-1.601","../audio/52-2-masc.mp3"," ","","vezes","","","",""
"","1939","audio-keyboard-response","716","1490445","0.0-3.0-1.602","../audio/52-3-masc.mp3"," ","","eu","","","",""
"","1232","audio-keyboard-response","717","1491949","0.0-3.0-1.603","../audio/52-4-masc.mp3"," ","","tenho","","","",""
"","1221","audio-keyboard-response","718","1493453","0.0-3.0-1.604","../audio/52-5-masc.mp3"," ","","azia","","","",""
"","3760","audio-keyboard-response","719","1497485","0.0-3.0-1.605","../audio/52-6-masc.mp3"," ","","depois","","","",""
"","1160","audio-keyboard-response","720","1498925","0.0-3.0-1.606","../audio/52-7-masc.mp3"," ","","da","","","",""
"","1701","audio-keyboard-response","721","1500909","0.0-3.0-1.607","../audio/52-8-masc.mp3"," ","","janta.","","","",""
"","null","html-keyboard-response","722","1502173","0.0-3.0-0.608-0.608","<span style= ""font-size:30px; font-family: monospace"">+</span>","null","fixation","","","","",""
"","1240","audio-keyboard-response","723","1503709","0.0-3.0-1.608","../audio/55-1-fem.mp3"," ","","O","","","",""
"","1232","audio-keyboard-response","724","1505229","0.0-3.0-1.609","../audio/55-2-fem.mp3"," ","","insulto","","","",""
"","1792","audio-keyboard-response","725","1507309","0.0-3.0-1.610","../audio/55-3-fem.mp3"," ","","recente","","","",""
"","1341","audio-keyboard-response","726","1508942","0.0-3.0-1.611","../audio/55-4-fem.mp3"," ","","causou","","","",""
"","2000","audio-keyboard-response","727","1511229","0.0-3.0-1.612","../audio/55-5-fem.mp3"," ","","indignação","","","",""
"","2600","audio-keyboard-response","728","1514109","0.0-3.0-1.613","../audio/55-6-fem.mp3"," ","","em","","","",""
"","1461","audio-keyboard-response","729","1515853","0.0-3.0-1.614","../audio/55-7-fem.mp3"," ","","todos.","","","",""
"","4939","html-keyboard-response","730","1521054","0.0-3.0-2.614-0.614","<span style=""font-size:25px; font-family: monospace"">O insulto causou calmaria?</span>","n","","","O insulto causou calmaria?","null","exp-sent","false"
"[{""page_index"":0,""viewing_time"":15368}]","15368","instructions","731","1536932","0.0-4.0","","","","","","","",""
