"view_history","rt","trial_type","trial_index","time_elapsed","internal_node_id","stimulus","response","class","status","answer","correct","trial","letters"
"[{""page_index"":0,""viewing_time"":36140}]","36141","instructions","0","36141","0.0-0.0","","","","","","","",""
"","null","html-keyboard-response","1","36743","0.0-1.0-0.0","+","null","","","","","",""
"","54477","html-keyboard-response","2","91223","0.0-1.0-1.0","crante","n","null","noncog","pseudo","N","prac","null"
"","null","html-keyboard-response","3","91727","0.0-1.0-0.1","+","null","","","","","",""
"","42856","html-keyboard-response","4","134583","0.0-1.0-1.1","chassi","n","null","cog","word","S","prac","null"
"","null","html-keyboard-response","5","135086","0.0-1.0-0.2","+","null","","","","","",""
"","3015","html-keyboard-response","6","138103","0.0-1.0-1.2","órgão","s","null","noncog","word","S","prac","null"
"","null","html-keyboard-response","7","138605","0.0-1.0-0.3","+","null","","","","","",""
"","5337","html-keyboard-response","8","143943","0.0-1.0-1.3","plibar","n","null","noncog","pseudo","N","prac","null"
"","null","html-keyboard-response","9","144444","0.0-1.0-0.4","+","null","","","","","",""
"","3481","html-keyboard-response","10","147927","0.0-1.0-1.4","daja","s","null","noncog","pseudo","N","prac","null"
"","null","html-keyboard-response","11","148429","0.0-1.0-0.5","+","null","","","","","",""
"","3705","html-keyboard-response","12","152134","0.0-1.0-1.5","calmaria","s","null","noncog","word","S","prac","null"
"","null","html-keyboard-response","13","152636","0.0-1.0-0.6","+","null","","","","","",""
"","2569","html-keyboard-response","14","155206","0.0-1.0-1.6","oliva","s","null","cog","word","S","prac","null"
"[{""page_index"":0,""viewing_time"":9791}]","9791","instructions","15","164998","0.0-2.0","","","","","","","",""
"","null","html-keyboard-response","16","165600","0.0-3.0-0.0","+","null","","","","","",""
"","5876","html-keyboard-response","17","171478","0.0-3.0-1.0","traduzir","s","v","cog","word","S","exp","8"
"","null","html-keyboard-response","18","171979","0.0-3.0-0.1","+","null","","","","","",""
"","8249","html-keyboard-response","19","180230","0.0-3.0-1.1","cenada","s","null","noncog","pseudo","N","exp","null"
"","null","html-keyboard-response","20","180731","0.0-3.0-0.2","+","null","","","","","",""
"","4970","html-keyboard-response","21","185702","0.0-3.0-1.2","ofreta","s","null","noncog","pseudo","N","exp","null"
"","null","html-keyboard-response","22","186203","0.0-3.0-0.3","+","null","","","","","",""
"","4458","html-keyboard-response","23","190662","0.0-3.0-1.3","aperor","n","null","noncog","pseudo","N","exp","null"
"","null","html-keyboard-response","24","191164","0.0-3.0-0.4","+","null","","","","","",""
"","16409","html-keyboard-response","25","207574","0.0-3.0-1.4","uçar","n","null","noncog","pseudo","N","exp","null"
"","null","html-keyboard-response","26","208086","0.0-3.0-0.5","+","null","","","","","",""
"","3471","html-keyboard-response","27","211557","0.0-3.0-1.5","farcas","s","null","noncog","pseudo","N","exp","null"
"","null","html-keyboard-response","28","212059","0.0-3.0-0.6","+","null","","","","","",""
"","3082","html-keyboard-response","29","215142","0.0-3.0-1.6","distraído","s","a","cog","word","S","exp","9"
"","null","html-keyboard-response","30","215644","0.0-3.0-0.7","+","null","","","","","",""
"","9561","html-keyboard-response","31","225206","0.0-3.0-1.7","abieso","n","null","noncog","pseudo","N","exp","null"
"","null","html-keyboard-response","32","225708","0.0-3.0-0.8","+","null","","","","","",""
"","3273","html-keyboard-response","33","228982","0.0-3.0-1.8","podilo","n","null","noncog","pseudo","N","exp","null"
"","null","html-keyboard-response","34","229484","0.0-3.0-0.9","+","null","","","","","",""
"","10521","html-keyboard-response","35","240006","0.0-3.0-1.9","trenos","s","null","noncog","pseudo","N","exp","null"
"","null","html-keyboard-response","36","240508","0.0-3.0-0.10","+","null","","","","","",""
"","7593","html-keyboard-response","37","248102","0.0-3.0-1.10","hipócrita","s","a","noncog","word","S","exp","9"
"","null","html-keyboard-response","38","248605","0.0-3.0-0.11","+","null","","","","","",""
"","4169","html-keyboard-response","39","252774","0.0-3.0-1.11","jantar","s","v","noncog","word","S","exp","6"
"","null","html-keyboard-response","40","253275","0.0-3.0-0.12","+","null","","","","","",""
"","4746","html-keyboard-response","41","258022","0.0-3.0-1.12","planalto","s","n","cog","word","S","exp","8"
"","null","html-keyboard-response","42","258524","0.0-3.0-0.13","+","null","","","","","",""
"","4681","html-keyboard-response","43","263206","0.0-3.0-1.13","pantufa","n","n","cog","word","S","exp","7"
"","null","html-keyboard-response","44","263708","0.0-3.0-0.14","+","null","","","","","",""
"","3977","html-keyboard-response","45","267686","0.0-3.0-1.14","carregar","n","v","noncog","word","S","exp","8"
"","null","html-keyboard-response","46","268188","0.0-3.0-0.15","+","null","","","","","",""
"","3625","html-keyboard-response","47","271814","0.0-3.0-1.15","sustentar","s","v","noncog","word","S","exp","9"
"","null","html-keyboard-response","48","272319","0.0-3.0-0.16","+","null","","","","","",""
"","4470","html-keyboard-response","49","276790","0.0-3.0-1.16","uchães","n","null","noncog","pseudo","N","exp","null"
"","null","html-keyboard-response","50","277292","0.0-3.0-0.17","+","null","","","","","",""
"","3417","html-keyboard-response","51","280710","0.0-3.0-1.17","anjo","s","n","cog","word","S","exp","4"
"","null","html-keyboard-response","52","281212","0.0-3.0-0.18","+","null","","","","","",""
"","6457","html-keyboard-response","53","287670","0.0-3.0-1.18","agravar","s","v","cog","word","S","exp","7"
"","null","html-keyboard-response","54","288172","0.0-3.0-0.19","+","null","","","","","",""
"","3833","html-keyboard-response","55","292006","0.0-3.0-1.19","burtos","n","null","noncog","pseudo","N","exp","null"
"","null","html-keyboard-response","56","292507","0.0-3.0-0.20","+","null","","","","","",""
"","2219","html-keyboard-response","57","294726","0.0-3.0-1.20","costra","s","null","noncog","pseudo","N","exp","null"
"","null","html-keyboard-response","58","295227","0.0-3.0-0.21","+","null","","","","","",""
"","1482","html-keyboard-response","59","296710","0.0-3.0-1.21","morar","s","v","noncog","word","S","exp","5"
"","null","html-keyboard-response","60","297211","0.0-3.0-0.22","+","null","","","","","",""
"","2346","html-keyboard-response","61","299558","0.0-3.0-1.22","tronca","s","null","noncog","pseudo","N","exp","null"
"","null","html-keyboard-response","62","300059","0.0-3.0-0.23","+","null","","","","","",""
"","5817","html-keyboard-response","63","305878","0.0-3.0-1.23","manais","n","null","noncog","pseudo","N","exp","null"
"","null","html-keyboard-response","64","306379","0.0-3.0-0.24","+","null","","","","","",""
"","4745","html-keyboard-response","65","311125","0.0-3.0-1.24","loaco","n","null","noncog","pseudo","N","exp","null"
"","null","html-keyboard-response","66","311627","0.0-3.0-0.25","+","null","","","","","",""
"","4458","html-keyboard-response","67","316086","0.0-3.0-1.25","protas","s","null","noncog","pseudo","N","exp","null"
"","null","html-keyboard-response","68","316587","0.0-3.0-0.26","+","null","","","","","",""
"","4378","html-keyboard-response","69","320966","0.0-3.0-1.26","nervoso","s","a","noncog","word","S","exp","7"
"","null","html-keyboard-response","70","321467","0.0-3.0-0.27","+","null","","","","","",""
"","2987","html-keyboard-response","71","324454","0.0-3.0-1.27","nacional","s","a","cog","word","S","exp","8"
"","null","html-keyboard-response","72","324956","0.0-3.0-0.28","+","null","","","","","",""
"","2201","html-keyboard-response","73","327158","0.0-3.0-1.28","atrasar","s","v","noncog","word","S","exp","7"
"","null","html-keyboard-response","74","327660","0.0-3.0-0.29","+","null","","","","","",""
"","1513","html-keyboard-response","75","329174","0.0-3.0-1.29","país","s","n","noncog","word","S","exp","4"
"","null","html-keyboard-response","76","329685","0.0-3.0-0.30","+","null","","","","","",""
"","4208","html-keyboard-response","77","333894","0.0-3.0-1.30","pangos","n","null","noncog","pseudo","N","exp","null"
"","null","html-keyboard-response","78","334402","0.0-3.0-0.31","+","null","","","","","",""
"","9107","html-keyboard-response","79","343510","0.0-3.0-1.31","socorro","n","n","noncog","word","S","exp","7"
"","null","html-keyboard-response","80","344012","0.0-3.0-0.32","+","null","","","","","",""
"","2393","html-keyboard-response","81","346406","0.0-3.0-1.32","espionar","s","v","cog","word","S","exp","8"
"","null","html-keyboard-response","82","346908","0.0-3.0-0.33","+","null","","","","","",""
"","5162","html-keyboard-response","83","352070","0.0-3.0-1.33","suipestar","s","null","noncog","pseudo","N","exp","null"
"","null","html-keyboard-response","84","352572","0.0-3.0-0.34","+","null","","","","","",""
"","5369","html-keyboard-response","85","357942","0.0-3.0-1.34","esprotiar","n","null","noncog","pseudo","N","exp","null"
"","null","html-keyboard-response","86","358444","0.0-3.0-0.35","+","null","","","","","",""
"","3465","html-keyboard-response","87","361910","0.0-3.0-1.35","quenzina","s","null","noncog","pseudo","N","exp","null"
"","null","html-keyboard-response","88","362412","0.0-3.0-0.36","+","null","","","","","",""
"","2810","html-keyboard-response","89","365222","0.0-3.0-1.36","preferir","s","v","cog","word","S","exp","8"
"","null","html-keyboard-response","90","365723","0.0-3.0-0.37","+","null","","","","","",""
"","1946","html-keyboard-response","91","367670","0.0-3.0-1.37","filme","s","n","cog","word","S","exp","5"
"","null","html-keyboard-response","92","368172","0.0-3.0-0.38","+","null","","","","","",""
"","1064","html-keyboard-response","93","369237","0.0-3.0-1.38","viver","s","v","cog","word","S","exp","5"
"","null","html-keyboard-response","94","369738","0.0-3.0-0.39","+","null","","","","","",""
"","1787","html-keyboard-response","95","371526","0.0-3.0-1.39","nevela","s","null","noncog","pseudo","N","exp","null"
"","null","html-keyboard-response","96","372027","0.0-3.0-0.40","+","null","","","","","",""
"","2426","html-keyboard-response","97","374454","0.0-3.0-1.40","gordo","s","a","noncog","word","S","exp","5"
"","null","html-keyboard-response","98","374955","0.0-3.0-0.41","+","null","","","","","",""
"","2250","html-keyboard-response","99","377206","0.0-3.0-1.41","raspar","n","v","noncog","word","S","exp","6"
"","null","html-keyboard-response","100","377708","0.0-3.0-0.42","+","null","","","","","",""
"","1834","html-keyboard-response","101","379543","0.0-3.0-1.42","pitada","n","n","noncog","word","S","exp","6"
"","null","html-keyboard-response","102","380044","0.0-3.0-0.43","+","null","","","","","",""
"","1593","html-keyboard-response","103","381638","0.0-3.0-1.43","braras","n","null","noncog","pseudo","N","exp","null"
"","null","html-keyboard-response","104","382140","0.0-3.0-0.44","+","null","","","","","",""
"","4569","html-keyboard-response","105","386710","0.0-3.0-1.44","candifência","n","null","noncog","pseudo","N","exp","null"
"","null","html-keyboard-response","106","387213","0.0-3.0-0.45","+","null","","","","","",""
"","2472","html-keyboard-response","107","389686","0.0-3.0-1.45","atapdar","s","null","noncog","pseudo","N","exp","null"
"","null","html-keyboard-response","108","390188","0.0-3.0-0.46","+","null","","","","","",""
"","6425","html-keyboard-response","109","396614","0.0-3.0-1.46","terdia","n","null","noncog","pseudo","N","exp","null"
"","null","html-keyboard-response","110","397115","0.0-3.0-0.47","+","null","","","","","",""
"","3802","html-keyboard-response","111","400918","0.0-3.0-1.47","reduzir","s","v","cog","word","S","exp","7"
"","null","html-keyboard-response","112","401420","0.0-3.0-0.48","+","null","","","","","",""
"","2762","html-keyboard-response","113","404182","0.0-3.0-1.48","chorão","s","a","noncog","word","S","exp","6"
"","null","html-keyboard-response","114","404684","0.0-3.0-0.49","+","null","","","","","",""
"","1401","html-keyboard-response","115","406086","0.0-3.0-1.49","papai","s","n","cog","word","S","exp","5"
"","null","html-keyboard-response","116","406589","0.0-3.0-0.50","+","null","","","","","",""
"","2505","html-keyboard-response","117","409094","0.0-3.0-1.50","aparme","s","null","noncog","pseudo","N","exp","null"
"","null","html-keyboard-response","118","409596","0.0-3.0-0.51","+","null","","","","","",""
"","3097","html-keyboard-response","119","412695","0.0-3.0-1.51","lagoa","n","n","cog","word","S","exp","5"
"","null","html-keyboard-response","120","413200","0.0-3.0-0.52","+","null","","","","","",""
"","1238","html-keyboard-response","121","414438","0.0-3.0-1.52","tio","s","n","noncog","word","S","exp","3"
"","null","html-keyboard-response","122","414940","0.0-3.0-0.53","+","null","","","","","",""
"","4905","html-keyboard-response","123","419846","0.0-3.0-1.53","aivões","n","null","noncog","pseudo","N","exp","null"
"","null","html-keyboard-response","124","420347","0.0-3.0-0.54","+","null","","","","","",""
"","3034","html-keyboard-response","125","423382","0.0-3.0-1.54","perbas","n","null","noncog","pseudo","N","exp","null"
"","null","html-keyboard-response","126","423884","0.0-3.0-0.55","+","null","","","","","",""
"","2441","html-keyboard-response","127","426326","0.0-3.0-1.55","alpica","n","null","noncog","pseudo","N","exp","null"
"","null","html-keyboard-response","128","426827","0.0-3.0-0.56","+","null","","","","","",""
"","2490","html-keyboard-response","129","429318","0.0-3.0-1.56","afonher","n","null","noncog","pseudo","N","exp","null"
"","null","html-keyboard-response","130","429820","0.0-3.0-0.57","+","null","","","","","",""
"","1817","html-keyboard-response","131","431638","0.0-3.0-1.57","temperar","s","v","noncog","word","S","exp","8"
"","null","html-keyboard-response","132","432139","0.0-3.0-0.58","+","null","","","","","",""
"","1386","html-keyboard-response","133","433527","0.0-3.0-1.58","telefone","s","n","cog","word","S","exp","8"
"","null","html-keyboard-response","134","434028","0.0-3.0-0.59","+","null","","","","","",""
"","3577","html-keyboard-response","135","437606","0.0-3.0-1.59","árovre","n","null","noncog","pseudo","N","exp","null"
"","null","html-keyboard-response","136","438107","0.0-3.0-0.60","+","null","","","","","",""
"","2458","html-keyboard-response","137","440566","0.0-3.0-1.60","bandido","s","n","cog","word","S","exp","7"
"","null","html-keyboard-response","138","441068","0.0-3.0-0.61","+","null","","","","","",""
"","3338","html-keyboard-response","139","444406","0.0-3.0-1.61","tatear","n","v","cog","word","S","exp","6"
"","null","html-keyboard-response","140","444907","0.0-3.0-0.62","+","null","","","","","",""
"","3257","html-keyboard-response","141","448166","0.0-3.0-1.62","propaganda","s","n","cog","word","S","exp","10"
"","null","html-keyboard-response","142","448667","0.0-3.0-0.63","+","null","","","","","",""
"","1658","html-keyboard-response","143","450325","0.0-3.0-1.63","chato","s","n","noncog","word","S","exp","5"
"","null","html-keyboard-response","144","450826","0.0-3.0-0.64","+","null","","","","","",""
"","2539","html-keyboard-response","145","453366","0.0-3.0-1.64","rovaz","n","null","noncog","pseudo","N","exp","null"
"","null","html-keyboard-response","146","453868","0.0-3.0-0.65","+","null","","","","","",""
"","2281","html-keyboard-response","147","456150","0.0-3.0-1.65","mudança","n","n","noncog","word","S","exp","7"
"","null","html-keyboard-response","148","456651","0.0-3.0-0.66","+","null","","","","","",""
"","3114","html-keyboard-response","149","459766","0.0-3.0-1.66","boreta","s","null","noncog","pseudo","N","exp","null"
"","null","html-keyboard-response","150","460268","0.0-3.0-0.67","+","null","","","","","",""
"","2953","html-keyboard-response","151","463222","0.0-3.0-1.67","nivelado","s","a","cog","word","S","exp","8"
"","null","html-keyboard-response","152","463724","0.0-3.0-0.68","+","null","","","","","",""
"","2009","html-keyboard-response","153","465734","0.0-3.0-1.68","pedaço","n","n","noncog","word","S","exp","6"
"","null","html-keyboard-response","154","466236","0.0-3.0-0.69","+","null","","","","","",""
"","8730","html-keyboard-response","155","474966","0.0-3.0-1.69","fofo","n","a","noncog","word","S","exp","4"
"","null","html-keyboard-response","156","475467","0.0-3.0-0.70","+","null","","","","","",""
"","6105","html-keyboard-response","157","481573","0.0-3.0-1.70","dilheira","s","null","noncog","pseudo","N","exp","null"
"","null","html-keyboard-response","158","482075","0.0-3.0-0.71","+","null","","","","","",""
"","2666","html-keyboard-response","159","484742","0.0-3.0-1.71","ocinto","s","null","noncog","pseudo","N","exp","null"
"","null","html-keyboard-response","160","485245","0.0-3.0-0.72","+","null","","","","","",""
"","3385","html-keyboard-response","161","488630","0.0-3.0-1.72","dencosto","n","null","noncog","pseudo","N","exp","null"
"","null","html-keyboard-response","162","489131","0.0-3.0-0.73","+","null","","","","","",""
"","2666","html-keyboard-response","163","491798","0.0-3.0-1.73","comércio","s","n","noncog","word","S","exp","8"
"","null","html-keyboard-response","164","492299","0.0-3.0-0.74","+","null","","","","","",""
"","1930","html-keyboard-response","165","494230","0.0-3.0-1.74","tênis","s","n","cog","word","S","exp","5"
"","null","html-keyboard-response","166","494731","0.0-3.0-0.75","+","null","","","","","",""
"","1978","html-keyboard-response","167","496710","0.0-3.0-1.75","vervas","s","null","noncog","pseudo","N","exp","null"
"","null","html-keyboard-response","168","497212","0.0-3.0-0.76","+","null","","","","","",""
"","2282","html-keyboard-response","169","499494","0.0-3.0-1.76","animado","s","a","noncog","word","S","exp","7"
"","null","html-keyboard-response","170","500005","0.0-3.0-0.77","+","null","","","","","",""
"","2400","html-keyboard-response","171","502406","0.0-3.0-1.77","detative","s","null","noncog","pseudo","N","exp","null"
"","null","html-keyboard-response","172","502908","0.0-3.0-0.78","+","null","","","","","",""
"","3114","html-keyboard-response","173","506022","0.0-3.0-1.78","bachir","n","null","noncog","pseudo","N","exp","null"
"","null","html-keyboard-response","174","506523","0.0-3.0-0.79","+","null","","","","","",""
"","1770","html-keyboard-response","175","508294","0.0-3.0-1.79","açúcar","s","n","noncog","word","S","exp","6"
"","null","html-keyboard-response","176","508796","0.0-3.0-0.80","+","null","","","","","",""
"","1322","html-keyboard-response","177","510118","0.0-3.0-1.80","civil","s","a","cog","word","S","exp","5"
"","null","html-keyboard-response","178","510619","0.0-3.0-0.81","+","null","","","","","",""
"","2394","html-keyboard-response","179","513014","0.0-3.0-1.81","lapestra","n","null","noncog","pseudo","N","exp","null"
"","null","html-keyboard-response","180","513517","0.0-3.0-0.82","+","null","","","","","",""
"","1640","html-keyboard-response","181","515158","0.0-3.0-1.82","ensuas","n","null","noncog","pseudo","N","exp","null"
"","null","html-keyboard-response","182","515660","0.0-3.0-0.83","+","null","","","","","",""
"","1065","html-keyboard-response","183","516726","0.0-3.0-1.83","ênclio","n","null","noncog","pseudo","N","exp","null"
"","null","html-keyboard-response","184","517228","0.0-3.0-0.84","+","null","","","","","",""
"","2617","html-keyboard-response","185","519846","0.0-3.0-1.84","tartos","s","null","noncog","pseudo","N","exp","null"
"","null","html-keyboard-response","186","520347","0.0-3.0-0.85","+","null","","","","","",""
"","5850","html-keyboard-response","187","526198","0.0-3.0-1.85","plinta","n","null","noncog","pseudo","N","exp","null"
"","null","html-keyboard-response","188","526700","0.0-3.0-0.86","+","null","","","","","",""
"","1833","html-keyboard-response","189","528534","0.0-3.0-1.86","prantal","n","null","noncog","pseudo","N","exp","null"
"","null","html-keyboard-response","190","529036","0.0-3.0-0.87","+","null","","","","","",""
"","1881","html-keyboard-response","191","530918","0.0-3.0-1.87","dipata","n","null","noncog","pseudo","N","exp","null"
"","null","html-keyboard-response","192","531419","0.0-3.0-0.88","+","null","","","","","",""
"","2506","html-keyboard-response","193","533926","0.0-3.0-1.88","deselegante","s","a","noncog","word","S","exp","11"
"","null","html-keyboard-response","194","534427","0.0-3.0-0.89","+","null","","","","","",""
"","2458","html-keyboard-response","195","536886","0.0-3.0-1.89","areia","n","n","noncog","word","S","exp","5"
"","null","html-keyboard-response","196","537387","0.0-3.0-0.90","+","null","","","","","",""
"","1562","html-keyboard-response","197","538950","0.0-3.0-1.90","agressivo","s","a","cog","word","S","exp","9"
"","null","html-keyboard-response","198","539452","0.0-3.0-0.91","+","null","","","","","",""
"","2025","html-keyboard-response","199","541478","0.0-3.0-1.91","morija","s","null","noncog","pseudo","N","exp","null"
"","null","html-keyboard-response","200","541980","0.0-3.0-0.92","+","null","","","","","",""
"","2265","html-keyboard-response","201","544246","0.0-3.0-1.92","pimada","s","null","noncog","pseudo","N","exp","null"
"","null","html-keyboard-response","202","544747","0.0-3.0-0.93","+","null","","","","","",""
"","3306","html-keyboard-response","203","548054","0.0-3.0-1.93","ideisa","n","null","noncog","pseudo","N","exp","null"
"","null","html-keyboard-response","204","548555","0.0-3.0-0.94","+","null","","","","","",""
"","3178","html-keyboard-response","205","551734","0.0-3.0-1.94","cerca","s","n","noncog","word","S","exp","5"
"","null","html-keyboard-response","206","552249","0.0-3.0-0.95","+","null","","","","","",""
"","1452","html-keyboard-response","207","553702","0.0-3.0-1.95","cinema","s","n","cog","word","S","exp","6"
"","null","html-keyboard-response","208","554203","0.0-3.0-0.96","+","null","","","","","",""
"","2329","html-keyboard-response","209","556533","0.0-3.0-1.96","destino","s","n","cog","word","S","exp","7"
"","null","html-keyboard-response","210","557034","0.0-3.0-0.97","+","null","","","","","",""
"","4300","html-keyboard-response","211","561334","0.0-3.0-1.97","selir","n","null","noncog","pseudo","N","exp","null"
"","null","html-keyboard-response","212","561840","0.0-3.0-0.98","+","null","","","","","",""
"","4021","html-keyboard-response","213","565862","0.0-3.0-1.98","enxerido","n","a","noncog","word","S","exp","8"
"","null","html-keyboard-response","214","566370","0.0-3.0-0.99","+","null","","","","","",""
"","1875","html-keyboard-response","215","568246","0.0-3.0-1.99","delomir","n","null","noncog","pseudo","N","exp","null"
"","null","html-keyboard-response","216","568747","0.0-3.0-0.100","+","null","","","","","",""
"","2042","html-keyboard-response","217","570790","0.0-3.0-1.100","barco","s","n","cog","word","S","exp","5"
"","null","html-keyboard-response","218","571291","0.0-3.0-0.101","+","null","","","","","",""
"","2667","html-keyboard-response","219","573958","0.0-3.0-1.101","independente","s","a","noncog","word","S","exp","12"
"","null","html-keyboard-response","220","574460","0.0-3.0-0.102","+","null","","","","","",""
"","2953","html-keyboard-response","221","577414","0.0-3.0-1.102","mania","s","n","cog","word","S","exp","5"
"","null","html-keyboard-response","222","577916","0.0-3.0-0.103","+","null","","","","","",""
"","1849","html-keyboard-response","223","579766","0.0-3.0-1.103","matinal","s","a","cog","word","S","exp","7"
"","null","html-keyboard-response","224","580267","0.0-3.0-0.104","+","null","","","","","",""
"","1386","html-keyboard-response","225","581654","0.0-3.0-1.104","mal","s","a","cog","word","S","exp","3"
"","null","html-keyboard-response","226","582156","0.0-3.0-0.105","+","null","","","","","",""
"","2154","html-keyboard-response","227","584310","0.0-3.0-1.105","taberia","n","null","noncog","pseudo","N","exp","null"
"","null","html-keyboard-response","228","584811","0.0-3.0-0.106","+","null","","","","","",""
"","1514","html-keyboard-response","229","586326","0.0-3.0-1.106","escumo","n","null","noncog","pseudo","N","exp","null"
"","null","html-keyboard-response","230","586827","0.0-3.0-0.107","+","null","","","","","",""
"","2026","html-keyboard-response","231","588854","0.0-3.0-1.107","irratinte","n","null","noncog","pseudo","N","exp","null"
"","null","html-keyboard-response","232","589365","0.0-3.0-0.108","+","null","","","","","",""
"","2592","html-keyboard-response","233","591958","0.0-3.0-1.108","pritas","n","null","noncog","pseudo","N","exp","null"
"","null","html-keyboard-response","234","592460","0.0-3.0-0.109","+","null","","","","","",""
"","1641","html-keyboard-response","235","594102","0.0-3.0-1.109","multiplicar","s","v","cog","word","S","exp","11"
"","null","html-keyboard-response","236","594604","0.0-3.0-0.110","+","null","","","","","",""
"","3257","html-keyboard-response","237","597862","0.0-3.0-1.110","glória","s","n","cog","word","S","exp","6"
"","null","html-keyboard-response","238","598364","0.0-3.0-0.111","+","null","","","","","",""
"","3224","html-keyboard-response","239","601589","0.0-3.0-1.111","espinho","n","n","noncog","word","S","exp","7"
"","null","html-keyboard-response","240","602091","0.0-3.0-0.112","+","null","","","","","",""
"","3004","html-keyboard-response","241","605095","0.0-3.0-1.112","orupas","n","null","noncog","pseudo","N","exp","null"
"","null","html-keyboard-response","242","605597","0.0-3.0-0.113","+","null","","","","","",""
"","3241","html-keyboard-response","243","608838","0.0-3.0-1.113","usnado","n","null","noncog","pseudo","N","exp","null"
"","null","html-keyboard-response","244","609340","0.0-3.0-0.114","+","null","","","","","",""
"","3161","html-keyboard-response","245","612502","0.0-3.0-1.114","hébies","n","null","noncog","pseudo","N","exp","null"
"","null","html-keyboard-response","246","613004","0.0-3.0-0.115","+","null","","","","","",""
"","1705","html-keyboard-response","247","614710","0.0-3.0-1.115","esperar","s","v","cog","word","S","exp","7"
"","null","html-keyboard-response","248","615211","0.0-3.0-0.116","+","null","","","","","",""
"","1690","html-keyboard-response","249","616902","0.0-3.0-1.116","cravo","s","n","noncog","word","S","exp","5"
"","null","html-keyboard-response","250","617403","0.0-3.0-0.117","+","null","","","","","",""
"","1770","html-keyboard-response","251","619174","0.0-3.0-1.117","fogão","s","n","noncog","word","S","exp","5"
"","null","html-keyboard-response","252","619675","0.0-3.0-0.118","+","null","","","","","",""
"","1322","html-keyboard-response","253","620998","0.0-3.0-1.118","grave","s","a","cog","word","S","exp","5"
"","null","html-keyboard-response","254","621499","0.0-3.0-0.119","+","null","","","","","",""
"","2154","html-keyboard-response","255","623654","0.0-3.0-1.119","motros","s","null","noncog","pseudo","N","exp","null"
"","null","html-keyboard-response","256","624156","0.0-3.0-0.120","+","null","","","","","",""
"","2441","html-keyboard-response","257","626598","0.0-3.0-1.120","casuas","s","null","noncog","pseudo","N","exp","null"
"","null","html-keyboard-response","258","627100","0.0-3.0-0.121","+","null","","","","","",""
"","2554","html-keyboard-response","259","629654","0.0-3.0-1.121","usfiga","n","null","noncog","pseudo","N","exp","null"
"","null","html-keyboard-response","260","630156","0.0-3.0-0.122","+","null","","","","","",""
"","1657","html-keyboard-response","261","631814","0.0-3.0-1.122","trabalhar","s","v","noncog","word","S","exp","9"
"","null","html-keyboard-response","262","632316","0.0-3.0-0.123","+","null","","","","","",""
"","1337","html-keyboard-response","263","633654","0.0-3.0-1.123","liberal","s","a","cog","word","S","exp","7"
"","null","html-keyboard-response","264","634171","0.0-3.0-0.124","+","null","","","","","",""
"","1882","html-keyboard-response","265","636054","0.0-3.0-1.124","lagras","s","null","noncog","pseudo","N","exp","null"
"","null","html-keyboard-response","266","636561","0.0-3.0-0.125","+","null","","","","","",""
"","4261","html-keyboard-response","267","640822","0.0-3.0-1.125","salpicado","s","a","noncog","word","S","exp","9"
"","null","html-keyboard-response","268","641324","0.0-3.0-0.126","+","null","","","","","",""
"","1321","html-keyboard-response","269","642646","0.0-3.0-1.126","azul","s","n","noncog","word","S","exp","4"
"","null","html-keyboard-response","270","643148","0.0-3.0-0.127","+","null","","","","","",""
"","2762","html-keyboard-response","271","645910","0.0-3.0-1.127","medalha","s","n","cog","word","S","exp","7"
"","null","html-keyboard-response","272","646412","0.0-3.0-0.128","+","null","","","","","",""
"","7321","html-keyboard-response","273","653733","0.0-3.0-1.128","incomodar","s","v","noncog","word","S","exp","9"
"","null","html-keyboard-response","274","654235","0.0-3.0-0.129","+","null","","","","","",""
"","3850","html-keyboard-response","275","658086","0.0-3.0-1.129","convidado","s","n","noncog","word","S","exp","9"
"","null","html-keyboard-response","276","658588","0.0-3.0-0.130","+","null","","","","","",""
"","7865","html-keyboard-response","277","666454","0.0-3.0-1.130","senareta","n","null","noncog","pseudo","N","exp","null"
"","null","html-keyboard-response","278","666957","0.0-3.0-0.131","+","null","","","","","",""
"","2905","html-keyboard-response","279","669862","0.0-3.0-1.131","telafonir","n","null","noncog","pseudo","N","exp","null"
"","null","html-keyboard-response","280","670363","0.0-3.0-0.132","+","null","","","","","",""
"","2074","html-keyboard-response","281","672438","0.0-3.0-1.132","grátis","s","a","cog","word","S","exp","6"
"","null","html-keyboard-response","282","672939","0.0-3.0-0.133","+","null","","","","","",""
"","2458","html-keyboard-response","283","675398","0.0-3.0-1.133","risbos","n","null","noncog","pseudo","N","exp","null"
"","null","html-keyboard-response","284","675900","0.0-3.0-0.134","+","null","","","","","",""
"","2521","html-keyboard-response","285","678422","0.0-3.0-1.134","delirar","n","v","noncog","word","S","exp","7"
"","null","html-keyboard-response","286","678923","0.0-3.0-0.135","+","null","","","","","",""
"","2554","html-keyboard-response","287","681478","0.0-3.0-1.135","tela","s","n","noncog","word","S","exp","4"
"","null","html-keyboard-response","288","681980","0.0-3.0-0.136","+","null","","","","","",""
"","1705","html-keyboard-response","289","683686","0.0-3.0-1.136","montanha","s","n","cog","word","S","exp","8"
"","null","html-keyboard-response","290","684188","0.0-3.0-0.137","+","null","","","","","",""
"","3785","html-keyboard-response","291","687974","0.0-3.0-1.137","refletir","s","v","cog","word","S","exp","8"
"","null","html-keyboard-response","292","688476","0.0-3.0-0.138","+","null","","","","","",""
"","7161","html-keyboard-response","293","695638","0.0-3.0-1.138","mua","n","null","noncog","pseudo","N","exp","null"
"","null","html-keyboard-response","294","696139","0.0-3.0-0.139","+","null","","","","","",""
"","2746","html-keyboard-response","295","698886","0.0-3.0-1.139","crolatário","n","null","noncog","pseudo","N","exp","null"
"","null","html-keyboard-response","296","699388","0.0-3.0-0.140","+","null","","","","","",""
"","2089","html-keyboard-response","297","701478","0.0-3.0-1.140","tinta","s","n","cog","word","S","exp","5"
"","null","html-keyboard-response","298","701980","0.0-3.0-0.141","+","null","","","","","",""
"","2281","html-keyboard-response","299","704262","0.0-3.0-1.141","perdão","s","n","noncog","word","S","exp","6"
"","null","html-keyboard-response","300","704763","0.0-3.0-0.142","+","null","","","","","",""
"","3546","html-keyboard-response","301","708310","0.0-3.0-1.142","frotes","n","null","noncog","pseudo","N","exp","null"
"","null","html-keyboard-response","302","708812","0.0-3.0-0.143","+","null","","","","","",""
"","2809","html-keyboard-response","303","711622","0.0-3.0-1.143","ronronar","n","v","cog","word","S","exp","8"
"","null","html-keyboard-response","304","712123","0.0-3.0-0.144","+","null","","","","","",""
"","1369","html-keyboard-response","305","713493","0.0-3.0-1.144","gertas","n","null","noncog","pseudo","N","exp","null"
"","null","html-keyboard-response","306","713995","0.0-3.0-0.145","+","null","","","","","",""
"","1562","html-keyboard-response","307","715557","0.0-3.0-1.145","aletiê","n","null","noncog","pseudo","N","exp","null"
"","null","html-keyboard-response","308","716059","0.0-3.0-0.146","+","null","","","","","",""
"","4490","html-keyboard-response","309","720550","0.0-3.0-1.146","prenas","n","null","noncog","pseudo","N","exp","null"
"","null","html-keyboard-response","310","721051","0.0-3.0-0.147","+","null","","","","","",""
"","3065","html-keyboard-response","311","724117","0.0-3.0-1.147","memória","s","n","cog","word","S","exp","7"
"","null","html-keyboard-response","312","724619","0.0-3.0-0.148","+","null","","","","","",""
"","1914","html-keyboard-response","313","726534","0.0-3.0-1.148","verdade","s","n","cog","word","S","exp","7"
"","null","html-keyboard-response","314","727035","0.0-3.0-0.149","+","null","","","","","",""
"","2186","html-keyboard-response","315","729222","0.0-3.0-1.149","aitrou","n","null","noncog","pseudo","N","exp","null"
"","null","html-keyboard-response","316","729724","0.0-3.0-0.150","+","null","","","","","",""
"","5593","html-keyboard-response","317","735318","0.0-3.0-1.150","conjerto","s","null","noncog","pseudo","N","exp","null"
"","null","html-keyboard-response","318","735819","0.0-3.0-0.151","+","null","","","","","",""
"","2505","html-keyboard-response","319","738325","0.0-3.0-1.151","bracos","n","null","noncog","pseudo","N","exp","null"
"","null","html-keyboard-response","320","738827","0.0-3.0-0.152","+","null","","","","","",""
"","2601","html-keyboard-response","321","741429","0.0-3.0-1.152","grótis","n","null","noncog","pseudo","N","exp","null"
"","null","html-keyboard-response","322","741931","0.0-3.0-0.153","+","null","","","","","",""
"","1930","html-keyboard-response","323","743861","0.0-3.0-1.153","crutas","n","null","noncog","pseudo","N","exp","null"
"","null","html-keyboard-response","324","744363","0.0-3.0-0.154","+","null","","","","","",""
"","1562","html-keyboard-response","325","745926","0.0-3.0-1.154","especial","s","a","cog","word","S","exp","8"
"","null","html-keyboard-response","326","746427","0.0-3.0-0.155","+","null","","","","","",""
"","2857","html-keyboard-response","327","749285","0.0-3.0-1.155","faínas","n","null","noncog","pseudo","N","exp","null"
"","null","html-keyboard-response","328","749787","0.0-3.0-0.156","+","null","","","","","",""
"","4202","html-keyboard-response","329","753990","0.0-3.0-1.156","enxarto","s","null","noncog","pseudo","N","exp","null"
"","null","html-keyboard-response","330","754491","0.0-3.0-0.157","+","null","","","","","",""
"","2009","html-keyboard-response","331","756502","0.0-3.0-1.157","pulmão","s","n","noncog","word","S","exp","6"
"","null","html-keyboard-response","332","757003","0.0-3.0-0.158","+","null","","","","","",""
"","2346","html-keyboard-response","333","759349","0.0-3.0-1.158","aemaça","n","null","noncog","pseudo","N","exp","null"
"","null","html-keyboard-response","334","759851","0.0-3.0-0.159","+","null","","","","","",""
"","2442","html-keyboard-response","335","762294","0.0-3.0-1.159","fusbão","n","null","noncog","pseudo","N","exp","null"
"","null","html-keyboard-response","336","762802","0.0-3.0-0.160","+","null","","","","","",""
"","3171","html-keyboard-response","337","765973","0.0-3.0-1.160","pega-pega","s","n","noncog","word","S","exp","8"
"","null","html-keyboard-response","338","766475","0.0-3.0-0.161","+","null","","","","","",""
"","2169","html-keyboard-response","339","768645","0.0-3.0-1.161","apontar","n","v","noncog","word","S","exp","7"
"","null","html-keyboard-response","340","769147","0.0-3.0-0.162","+","null","","","","","",""
"","1961","html-keyboard-response","341","771110","0.0-3.0-1.162","garastia","n","null","noncog","pseudo","N","exp","null"
"","null","html-keyboard-response","342","771612","0.0-3.0-0.163","+","null","","","","","",""
"","1799","html-keyboard-response","343","773413","0.0-3.0-1.163","âgnulo","n","null","noncog","pseudo","N","exp","null"
"","null","html-keyboard-response","344","773914","0.0-3.0-0.164","+","null","","","","","",""
"","2730","html-keyboard-response","345","776645","0.0-3.0-1.164","resmungar","n","v","noncog","word","S","exp","9"
"","null","html-keyboard-response","346","777146","0.0-3.0-0.165","+","null","","","","","",""
"","2842","html-keyboard-response","347","779989","0.0-3.0-1.165","manfa","n","null","noncog","pseudo","N","exp","null"
"","null","html-keyboard-response","348","780491","0.0-3.0-0.166","+","null","","","","","",""
"","1512","html-keyboard-response","349","782005","0.0-3.0-1.166","carro","s","n","noncog","word","S","exp","5"
"","null","html-keyboard-response","350","782508","0.0-3.0-0.167","+","null","","","","","",""
"","1465","html-keyboard-response","351","783973","0.0-3.0-1.167","verde","s","a","noncog","word","S","exp","5"
"","null","html-keyboard-response","352","784476","0.0-3.0-0.168","+","null","","","","","",""
"","1609","html-keyboard-response","353","786085","0.0-3.0-1.168","fino","s","a","cog","word","S","exp","4"
"","null","html-keyboard-response","354","786587","0.0-3.0-0.169","+","null","","","","","",""
"","1769","html-keyboard-response","355","788357","0.0-3.0-1.169","brincar","s","v","noncog","word","S","exp","7"
"","null","html-keyboard-response","356","788858","0.0-3.0-0.170","+","null","","","","","",""
"","2235","html-keyboard-response","357","791094","0.0-3.0-1.170","morno","s","a","noncog","word","S","exp","5"
"","null","html-keyboard-response","358","791603","0.0-3.0-0.171","+","null","","","","","",""
"","2498","html-keyboard-response","359","794101","0.0-3.0-1.171","cascata","s","n","noncog","word","S","exp","7"
"","null","html-keyboard-response","360","794603","0.0-3.0-0.172","+","null","","","","","",""
"","4569","html-keyboard-response","361","799173","0.0-3.0-1.172","berquesa","n","null","noncog","pseudo","N","exp","null"
"","null","html-keyboard-response","362","799675","0.0-3.0-0.173","+","null","","","","","",""
"","1898","html-keyboard-response","363","801573","0.0-3.0-1.173","alfabeto","s","n","cog","word","S","exp","8"
"","null","html-keyboard-response","364","802075","0.0-3.0-0.174","+","null","","","","","",""
"","2041","html-keyboard-response","365","804117","0.0-3.0-1.174","lorfaz","n","null","noncog","pseudo","N","exp","null"
"","null","html-keyboard-response","366","804619","0.0-3.0-0.175","+","null","","","","","",""
"","1977","html-keyboard-response","367","806597","0.0-3.0-1.175","fratos","n","null","noncog","pseudo","N","exp","null"
"","null","html-keyboard-response","368","807099","0.0-3.0-0.176","+","null","","","","","",""
"","1961","html-keyboard-response","369","809061","0.0-3.0-1.176","melão","n","n","cog","word","S","exp","5"
"","null","html-keyboard-response","370","809562","0.0-3.0-0.177","+","null","","","","","",""
"","5594","html-keyboard-response","371","815157","0.0-3.0-1.177","dacada","n","null","noncog","pseudo","N","exp","null"
"","null","html-keyboard-response","372","815659","0.0-3.0-0.178","+","null","","","","","",""
"","5225","html-keyboard-response","373","820885","0.0-3.0-1.178","sintonizar","n","v","noncog","word","S","exp","10"
"","null","html-keyboard-response","374","821386","0.0-3.0-0.179","+","null","","","","","",""
"","1418","html-keyboard-response","375","822805","0.0-3.0-1.179","revear","n","null","noncog","pseudo","N","exp","null"
"","null","html-keyboard-response","376","823307","0.0-3.0-0.180","+","null","","","","","",""
"","2249","html-keyboard-response","377","825557","0.0-3.0-1.180","ilhure","n","null","noncog","pseudo","N","exp","null"
"","null","html-keyboard-response","378","826059","0.0-3.0-0.181","+","null","","","","","",""
"","2809","html-keyboard-response","379","828870","0.0-3.0-1.181","instruído","s","a","noncog","word","S","exp","9"
"","null","html-keyboard-response","380","829371","0.0-3.0-0.182","+","null","","","","","",""
"","2218","html-keyboard-response","381","831590","0.0-3.0-1.182","oricia","n","null","noncog","pseudo","N","exp","null"
"","null","html-keyboard-response","382","832091","0.0-3.0-0.183","+","null","","","","","",""
"","4090","html-keyboard-response","383","836182","0.0-3.0-1.183","filosofia","s","n","cog","word","S","exp","9"
"","null","html-keyboard-response","384","836684","0.0-3.0-0.184","+","null","","","","","",""
"","1849","html-keyboard-response","385","838534","0.0-3.0-1.184","imitar","s","v","cog","word","S","exp","6"
"","null","html-keyboard-response","386","839036","0.0-3.0-0.185","+","null","","","","","",""
"","2376","html-keyboard-response","387","841414","0.0-3.0-1.185","motre","n","null","noncog","pseudo","N","exp","null"
"","null","html-keyboard-response","388","841915","0.0-3.0-0.186","+","null","","","","","",""
"","1642","html-keyboard-response","389","843558","0.0-3.0-1.186","euorpa","n","null","noncog","pseudo","N","exp","null"
"","null","html-keyboard-response","390","844059","0.0-3.0-0.187","+","null","","","","","",""
"","3097","html-keyboard-response","391","847158","0.0-3.0-1.187","prever","n","v","cog","word","S","exp","6"
"","null","html-keyboard-response","392","847660","0.0-3.0-0.188","+","null","","","","","",""
"","4025","html-keyboard-response","393","851686","0.0-3.0-1.188","gruja","n","null","noncog","pseudo","N","exp","null"
"","null","html-keyboard-response","394","852188","0.0-3.0-0.189","+","null","","","","","",""
"","1160","html-keyboard-response","395","853349","0.0-3.0-1.189","oper","n","null","noncog","pseudo","N","exp","null"
"","null","html-keyboard-response","396","853850","0.0-3.0-0.190","+","null","","","","","",""
"","3273","html-keyboard-response","397","857125","0.0-3.0-1.190","extravagante","s","a","cog","word","S","exp","12"
"","null","html-keyboard-response","398","857625","0.0-3.0-0.191","+","null","","","","","",""
"","1787","html-keyboard-response","399","859414","0.0-3.0-1.191","franda","n","null","noncog","pseudo","N","exp","null"
"","null","html-keyboard-response","400","859915","0.0-3.0-0.192","+","null","","","","","",""
"","2234","html-keyboard-response","401","862150","0.0-3.0-1.192","bambu","n","n","cog","word","S","exp","5"
"","null","html-keyboard-response","402","862651","0.0-3.0-0.193","+","null","","","","","",""
"","1386","html-keyboard-response","403","864038","0.0-3.0-1.193","ótimo","s","a","noncog","word","S","exp","5"
"","null","html-keyboard-response","404","864539","0.0-3.0-0.194","+","null","","","","","",""
"","2569","html-keyboard-response","405","867110","0.0-3.0-1.194","undivídio","s","null","noncog","pseudo","N","exp","null"
"","null","html-keyboard-response","406","867612","0.0-3.0-0.195","+","null","","","","","",""
"","1337","html-keyboard-response","407","868950","0.0-3.0-1.195","livro","s","n","cog","word","S","exp","5"
"","null","html-keyboard-response","408","869451","0.0-3.0-0.196","+","null","","","","","",""
"","2009","html-keyboard-response","409","871462","0.0-3.0-1.196","sábio","s","n","noncog","word","S","exp","5"
"","null","html-keyboard-response","410","871963","0.0-3.0-0.197","+","null","","","","","",""
"","2314","html-keyboard-response","411","874278","0.0-3.0-1.197","esfoce","n","null","noncog","pseudo","N","exp","null"
"","null","html-keyboard-response","412","874779","0.0-3.0-0.198","+","null","","","","","",""
"","921","html-keyboard-response","413","875701","0.0-3.0-1.198","oecano","n","null","noncog","pseudo","N","exp","null"
"","null","html-keyboard-response","414","876203","0.0-3.0-0.199","+","null","","","","","",""
"","2361","html-keyboard-response","415","878566","0.0-3.0-1.199","arranjar","s","v","cog","word","S","exp","8"
"","null","html-keyboard-response","416","879068","0.0-3.0-0.200","+","null","","","","","",""
"","2633","html-keyboard-response","417","881702","0.0-3.0-1.200","promeção","s","null","noncog","pseudo","N","exp","null"
"","null","html-keyboard-response","418","882203","0.0-3.0-0.201","+","null","","","","","",""
"","1977","html-keyboard-response","419","884182","0.0-3.0-1.201","macras","n","null","noncog","pseudo","N","exp","null"
"","null","html-keyboard-response","420","884683","0.0-3.0-0.202","+","null","","","","","",""
"","2458","html-keyboard-response","421","887141","0.0-3.0-1.202","vitrive","n","null","noncog","pseudo","N","exp","null"
"","null","html-keyboard-response","422","887643","0.0-3.0-0.203","+","null","","","","","",""
"","1897","html-keyboard-response","423","889542","0.0-3.0-1.203","drama","s","n","cog","word","S","exp","5"
"","null","html-keyboard-response","424","890043","0.0-3.0-0.204","+","null","","","","","",""
"","1113","html-keyboard-response","425","891158","0.0-3.0-1.204","dia","s","n","noncog","word","S","exp","3"
"","null","html-keyboard-response","426","891659","0.0-3.0-0.205","+","null","","","","","",""
"","2026","html-keyboard-response","427","893686","0.0-3.0-1.205","sanque","n","null","noncog","pseudo","N","exp","null"
"","null","html-keyboard-response","428","894188","0.0-3.0-0.206","+","null","","","","","",""
"","4056","html-keyboard-response","429","898245","0.0-3.0-1.206","encelhor","s","null","noncog","pseudo","N","exp","null"
"","null","html-keyboard-response","430","898747","0.0-3.0-0.207","+","null","","","","","",""
"","2233","html-keyboard-response","431","900982","0.0-3.0-1.207","hedoru","n","null","noncog","pseudo","N","exp","null"
"","null","html-keyboard-response","432","901484","0.0-3.0-0.208","+","null","","","","","",""
"","922","html-keyboard-response","433","902406","0.0-3.0-1.208","liso","n","n","noncog","word","S","exp","4"
"","null","html-keyboard-response","434","902908","0.0-3.0-0.209","+","null","","","","","",""
"","1417","html-keyboard-response","435","904326","0.0-3.0-1.209","beima","n","null","noncog","pseudo","N","exp","null"
"","null","html-keyboard-response","436","904829","0.0-3.0-0.210","+","null","","","","","",""
"","551","html-keyboard-response","437","905382","0.0-3.0-1.210","nome","n","n","cog","word","S","exp","4"
"","null","html-keyboard-response","438","905883","0.0-3.0-0.211","+","null","","","","","",""
"","10377","html-keyboard-response","439","916262","0.0-3.0-1.211","disbrituir","s","null","noncog","pseudo","N","exp","null"
"","null","html-keyboard-response","440","916763","0.0-3.0-0.212","+","null","","","","","",""
"","12250","html-keyboard-response","441","929014","0.0-3.0-1.212","tímido","s","a","cog","word","S","exp","6"
"","null","html-keyboard-response","442","929515","0.0-3.0-0.213","+","null","","","","","",""
"","7289","html-keyboard-response","443","936805","0.0-3.0-1.213","avenas","n","null","noncog","pseudo","N","exp","null"
"","null","html-keyboard-response","444","937306","0.0-3.0-0.214","+","null","","","","","",""
"","2187","html-keyboard-response","445","939494","0.0-3.0-1.214","francês","s","a","cog","word","S","exp","7"
"","null","html-keyboard-response","446","939995","0.0-3.0-0.215","+","null","","","","","",""
"","3946","html-keyboard-response","447","943942","0.0-3.0-1.215","verceja","s","null","noncog","pseudo","N","exp","null"
"","null","html-keyboard-response","448","944443","0.0-3.0-0.216","+","null","","","","","",""
"","2809","html-keyboard-response","449","947253","0.0-3.0-1.216","dobradiça","n","n","noncog","word","S","exp","9"
"","null","html-keyboard-response","450","947754","0.0-3.0-0.217","+","null","","","","","",""
"","5178","html-keyboard-response","451","952934","0.0-3.0-1.217","cirado","n","null","noncog","pseudo","N","exp","null"
"","null","html-keyboard-response","452","953435","0.0-3.0-0.218","+","null","","","","","",""
"","2282","html-keyboard-response","453","955718","0.0-3.0-1.218","rédesa","n","null","noncog","pseudo","N","exp","null"
"","null","html-keyboard-response","454","956220","0.0-3.0-0.219","+","null","","","","","",""
"","3257","html-keyboard-response","455","959478","0.0-3.0-1.219","adoçar","n","v","noncog","word","S","exp","6"
"","null","html-keyboard-response","456","959980","0.0-3.0-0.220","+","null","","","","","",""
"","1897","html-keyboard-response","457","961878","0.0-3.0-1.220","espaço","n","n","cog","word","S","exp","6"
"","null","html-keyboard-response","458","962379","0.0-3.0-0.221","+","null","","","","","",""
"","2106","html-keyboard-response","459","964486","0.0-3.0-1.221","parceter","n","null","noncog","pseudo","N","exp","null"
"","null","html-keyboard-response","460","964987","0.0-3.0-0.222","+","null","","","","","",""
"","1802","html-keyboard-response","461","966790","0.0-3.0-1.222","pneucania","n","null","noncog","pseudo","N","exp","null"
"","null","html-keyboard-response","462","967292","0.0-3.0-0.223","+","null","","","","","",""
"","825","html-keyboard-response","463","968118","0.0-3.0-1.223","fasdas","n","null","noncog","pseudo","N","exp","null"
"","null","html-keyboard-response","464","968619","0.0-3.0-0.224","+","null","","","","","",""
"","1226","html-keyboard-response","465","969845","0.0-3.0-1.224","enedro","n","null","noncog","pseudo","N","exp","null"
"","null","html-keyboard-response","466","970346","0.0-3.0-0.225","+","null","","","","","",""
"","3434","html-keyboard-response","467","973781","0.0-3.0-1.225","bibarconato","n","null","noncog","pseudo","N","exp","null"
"","null","html-keyboard-response","468","974282","0.0-3.0-0.226","+","null","","","","","",""
"","1995","html-keyboard-response","469","976277","0.0-3.0-1.226","cristal","s","n","cog","word","S","exp","7"
"","null","html-keyboard-response","470","976779","0.0-3.0-0.227","+","null","","","","","",""
"","2234","html-keyboard-response","471","979014","0.0-3.0-1.227","bagunceira","n","a","noncog","word","S","exp","10"
"","null","html-keyboard-response","472","979524","0.0-3.0-0.228","+","null","","","","","",""
"","2497","html-keyboard-response","473","982022","0.0-3.0-1.228","carona","n","n","noncog","word","S","exp","6"
"","null","html-keyboard-response","474","982524","0.0-3.0-0.229","+","null","","","","","",""
"","2313","html-keyboard-response","475","984838","0.0-3.0-1.229","mabras","n","null","noncog","pseudo","N","exp","null"
"","null","html-keyboard-response","476","985339","0.0-3.0-0.230","+","null","","","","","",""
"","2074","html-keyboard-response","477","987414","0.0-3.0-1.230","atitro","n","null","noncog","pseudo","N","exp","null"
"","null","html-keyboard-response","478","987915","0.0-3.0-0.231","+","null","","","","","",""
"","2490","html-keyboard-response","479","990406","0.0-3.0-1.231","cápsula","s","n","noncog","word","S","exp","7"
"","null","html-keyboard-response","480","990908","0.0-3.0-0.232","+","null","","","","","",""
"","1961","html-keyboard-response","481","992870","0.0-3.0-1.232","ejerro","n","null","noncog","pseudo","N","exp","null"
"","null","html-keyboard-response","482","993371","0.0-3.0-0.233","+","null","","","","","",""
"","906","html-keyboard-response","483","994278","0.0-3.0-1.233","afual","n","null","noncog","pseudo","N","exp","null"
"","null","html-keyboard-response","484","994780","0.0-3.0-0.234","+","null","","","","","",""
"","1289","html-keyboard-response","485","996070","0.0-3.0-1.234","revista","n","n","cog","word","S","exp","7"
"","null","html-keyboard-response","486","996572","0.0-3.0-0.235","+","null","","","","","",""
"","2249","html-keyboard-response","487","998822","0.0-3.0-1.235","gilha","n","null","noncog","pseudo","N","exp","null"
"","null","html-keyboard-response","488","999323","0.0-3.0-0.236","+","null","","","","","",""
"","3050","html-keyboard-response","489","1002374","0.0-3.0-1.236","bancada","n","n","noncog","word","S","exp","7"
"","null","html-keyboard-response","490","1002875","0.0-3.0-0.237","+","null","","","","","",""
"","6249","html-keyboard-response","491","1009126","0.0-3.0-1.237","promessa","n","n","noncog","word","S","exp","8"
"","null","html-keyboard-response","492","1009629","0.0-3.0-0.238","+","null","","","","","",""
"","5608","html-keyboard-response","493","1015237","0.0-3.0-1.238","trair","n","v","cog","word","S","exp","5"
"","null","html-keyboard-response","494","1015738","0.0-3.0-0.239","+","null","","","","","",""
"","1402","html-keyboard-response","495","1017141","0.0-3.0-1.239","jastor","n","null","noncog","pseudo","N","exp","null"
