[
	{
		"view_history": [
			{
				"page_index": 0,
				"viewing_time": 17230
			}
		],
		"rt": 17230,
		"trial_type": "instructions",
		"trial_index": 0,
		"time_elapsed": 17233,
		"internal_node_id": "0.0-0.0"
	},
	{
		"rt": null,
		"stimulus": "+",
		"response": null,
		"trial_type": "html-keyboard-response",
		"trial_index": 1,
		"time_elapsed": 17835,
		"internal_node_id": "0.0-1.0-0.0"
	},
	{
		"rt": 46971,
		"stimulus": "../audio/teste-vocab--02.mp3",
		"response": "s",
		"portuguese": "homem",
		"kreyol": "gason",
		"trial_type": "audio-keyboard-response",
		"trial_index": 2,
		"time_elapsed": 64815,
		"internal_node_id": "0.0-1.0-1.0"
	},
	{
		"rt": null,
		"stimulus": "+",
		"response": null,
		"trial_type": "html-keyboard-response",
		"trial_index": 3,
		"time_elapsed": 65316,
		"internal_node_id": "0.0-1.0-0.1"
	},
	{
		"rt": 3520,
		"stimulus": "../audio/teste-vocab--116.mp3",
		"response": "s",
		"portuguese": "vestuário",
		"kreyol": "vestyè",
		"trial_type": "audio-keyboard-response",
		"trial_index": 4,
		"time_elapsed": 69054,
		"internal_node_id": "0.0-1.0-1.1"
	},
	{
		"rt": null,
		"stimulus": "+",
		"response": null,
		"trial_type": "html-keyboard-response",
		"trial_index": 5,
		"time_elapsed": 69556,
		"internal_node_id": "0.0-1.0-0.2"
	},
	{
		"rt": 10560,
		"stimulus": "../audio/teste-vocab--17.mp3",
		"response": "s",
		"portuguese": "móvel",
		"kreyol": "mobil",
		"trial_type": "audio-keyboard-response",
		"trial_index": 6,
		"time_elapsed": 80143,
		"internal_node_id": "0.0-1.0-1.2"
	},
	{
		"rt": null,
		"stimulus": "+",
		"response": null,
		"trial_type": "html-keyboard-response",
		"trial_index": 7,
		"time_elapsed": 80655,
		"internal_node_id": "0.0-1.0-0.3"
	},
	{
		"rt": 6531,
		"stimulus": "../audio/teste-vocab--08.mp3",
		"response": "s",
		"portuguese": "vaca",
		"kreyol": "vach",
		"trial_type": "audio-keyboard-response",
		"trial_index": 8,
		"time_elapsed": 87231,
		"internal_node_id": "0.0-1.0-1.3"
	},
	{
		"rt": null,
		"stimulus": "+",
		"response": null,
		"trial_type": "html-keyboard-response",
		"trial_index": 9,
		"time_elapsed": 87740,
		"internal_node_id": "0.0-1.0-0.4"
	},
	{
		"rt": 5261,
		"stimulus": "../audio/teste-vocab--107.mp3",
		"response": "s",
		"portuguese": "elo",
		"kreyol": "emay",
		"trial_type": "audio-keyboard-response",
		"trial_index": 10,
		"time_elapsed": 93008,
		"internal_node_id": "0.0-1.0-1.4"
	},
	{
		"rt": null,
		"stimulus": "+",
		"response": null,
		"trial_type": "html-keyboard-response",
		"trial_index": 11,
		"time_elapsed": 93511,
		"internal_node_id": "0.0-1.0-0.5"
	},
	{
		"rt": 3800,
		"stimulus": "../audio/teste-vocab--44.mp3",
		"response": "s",
		"portuguese": "premiar",
		"kreyol": "rekonpanse",
		"trial_type": "audio-keyboard-response",
		"trial_index": 12,
		"time_elapsed": 97343,
		"internal_node_id": "0.0-1.0-1.5"
	},
	{
		"rt": null,
		"stimulus": "+",
		"response": null,
		"trial_type": "html-keyboard-response",
		"trial_index": 13,
		"time_elapsed": 97845,
		"internal_node_id": "0.0-1.0-0.6"
	},
	{
		"rt": 13131,
		"stimulus": "../audio/teste-vocab--04.mp3",
		"response": "s",
		"portuguese": "roda",
		"kreyol": "wonn",
		"trial_type": "audio-keyboard-response",
		"trial_index": 14,
		"time_elapsed": 111008,
		"internal_node_id": "0.0-1.0-1.6"
	},
	{
		"rt": null,
		"stimulus": "+",
		"response": null,
		"trial_type": "html-keyboard-response",
		"trial_index": 15,
		"time_elapsed": 111524,
		"internal_node_id": "0.0-1.0-0.7"
	},
	{
		"rt": 3661,
		"stimulus": "../audio/teste-vocab--109.mp3",
		"response": "n",
		"portuguese": "anfíbio",
		"kreyol": "anfibyen",
		"trial_type": "audio-keyboard-response",
		"trial_index": 16,
		"time_elapsed": 115247,
		"internal_node_id": "0.0-1.0-1.7"
	},
	{
		"rt": null,
		"stimulus": "+",
		"response": null,
		"trial_type": "html-keyboard-response",
		"trial_index": 17,
		"time_elapsed": 115755,
		"internal_node_id": "0.0-1.0-0.8"
	},
	{
		"rt": 2920,
		"stimulus": "../audio/teste-vocab--11.mp3",
		"response": "s",
		"portuguese": "joelho",
		"kreyol": "jenou",
		"trial_type": "audio-keyboard-response",
		"trial_index": 18,
		"time_elapsed": 118703,
		"internal_node_id": "0.0-1.0-1.8"
	},
	{
		"rt": null,
		"stimulus": "+",
		"response": null,
		"trial_type": "html-keyboard-response",
		"trial_index": 19,
		"time_elapsed": 119209,
		"internal_node_id": "0.0-1.0-0.9"
	},
	{
		"rt": 3171,
		"stimulus": "../audio/teste-vocab--20.mp3",
		"response": "s",
		"portuguese": "medir",
		"kreyol": "mezire",
		"trial_type": "audio-keyboard-response",
		"trial_index": 20,
		"time_elapsed": 122399,
		"internal_node_id": "0.0-1.0-1.9"
	},
	{
		"rt": null,
		"stimulus": "+",
		"response": null,
		"trial_type": "html-keyboard-response",
		"trial_index": 21,
		"time_elapsed": 122915,
		"internal_node_id": "0.0-1.0-0.10"
	},
	{
		"rt": 2749,
		"stimulus": "../audio/teste-vocab--86.mp3",
		"response": "s",
		"portuguese": "pensar",
		"kreyol": "panse",
		"trial_type": "audio-keyboard-response",
		"trial_index": 22,
		"time_elapsed": 125709,
		"internal_node_id": "0.0-1.0-1.10"
	},
	{
		"rt": null,
		"stimulus": "+",
		"response": null,
		"trial_type": "html-keyboard-response",
		"trial_index": 23,
		"time_elapsed": 126225,
		"internal_node_id": "0.0-1.0-0.11"
	},
	{
		"rt": 4829,
		"stimulus": "../audio/teste-vocab--36.mp3",
		"response": "s",
		"portuguese": "grupo",
		"kreyol": "gwoup",
		"trial_type": "audio-keyboard-response",
		"trial_index": 24,
		"time_elapsed": 131085,
		"internal_node_id": "0.0-1.0-1.11"
	},
	{
		"rt": null,
		"stimulus": "+",
		"response": null,
		"trial_type": "html-keyboard-response",
		"trial_index": 25,
		"time_elapsed": 131591,
		"internal_node_id": "0.0-1.0-0.12"
	},
	{
		"rt": 4989,
		"stimulus": "../audio/teste-vocab--19.mp3",
		"response": "s",
		"portuguese": "hora",
		"kreyol": "è",
		"trial_type": "audio-keyboard-response",
		"trial_index": 26,
		"time_elapsed": 136622,
		"internal_node_id": "0.0-1.0-1.12"
	},
	{
		"rt": null,
		"stimulus": "+",
		"response": null,
		"trial_type": "html-keyboard-response",
		"trial_index": 27,
		"time_elapsed": 137137,
		"internal_node_id": "0.0-1.0-0.13"
	},
	{
		"rt": 2701,
		"stimulus": "../audio/teste-vocab--106.mp3",
		"response": "n",
		"portuguese": "lubrificar",
		"kreyol": "grese",
		"trial_type": "audio-keyboard-response",
		"trial_index": 28,
		"time_elapsed": 139885,
		"internal_node_id": "0.0-1.0-1.13"
	},
	{
		"rt": null,
		"stimulus": "+",
		"response": null,
		"trial_type": "html-keyboard-response",
		"trial_index": 29,
		"time_elapsed": 140400,
		"internal_node_id": "0.0-1.0-0.14"
	},
	{
		"rt": 3779,
		"stimulus": "../audio/teste-vocab--83.mp3",
		"response": "n",
		"portuguese": "morsa",
		"kreyol": "mòs",
		"trial_type": "audio-keyboard-response",
		"trial_index": 30,
		"time_elapsed": 144221,
		"internal_node_id": "0.0-1.0-1.14"
	},
	{
		"rt": null,
		"stimulus": "+",
		"response": null,
		"trial_type": "html-keyboard-response",
		"trial_index": 31,
		"time_elapsed": 144727,
		"internal_node_id": "0.0-1.0-0.15"
	},
	{
		"rt": 2971,
		"stimulus": "../audio/teste-vocab--124.mp3",
		"response": "n",
		"portuguese": "obelisco",
		"kreyol": "obelisk",
		"trial_type": "audio-keyboard-response",
		"trial_index": 32,
		"time_elapsed": 147758,
		"internal_node_id": "0.0-1.0-1.15"
	},
	{
		"rt": null,
		"stimulus": "+",
		"response": null,
		"trial_type": "html-keyboard-response",
		"trial_index": 33,
		"time_elapsed": 148269,
		"internal_node_id": "0.0-1.0-0.16"
	},
	{
		"rt": 2360,
		"stimulus": "../audio/teste-vocab--03.mp3",
		"response": "s",
		"portuguese": "balançar",
		"kreyol": "balanse",
		"trial_type": "audio-keyboard-response",
		"trial_index": 34,
		"time_elapsed": 150669,
		"internal_node_id": "0.0-1.0-1.16"
	},
	{
		"rt": null,
		"stimulus": "+",
		"response": null,
		"trial_type": "html-keyboard-response",
		"trial_index": 35,
		"time_elapsed": 151177,
		"internal_node_id": "0.0-1.0-0.17"
	},
	{
		"rt": 2920,
		"stimulus": "../audio/teste-vocab--80.mp3",
		"response": "s",
		"portuguese": "binóculo",
		"kreyol": "longvi",
		"trial_type": "audio-keyboard-response",
		"trial_index": 36,
		"time_elapsed": 154141,
		"internal_node_id": "0.0-1.0-1.17"
	},
	{
		"rt": null,
		"stimulus": "+",
		"response": null,
		"trial_type": "html-keyboard-response",
		"trial_index": 37,
		"time_elapsed": 154651,
		"internal_node_id": "0.0-1.0-0.18"
	},
	{
		"rt": 2400,
		"stimulus": "../audio/teste-vocab--57.mp3",
		"response": "s",
		"portuguese": "raiz",
		"kreyol": "rasin",
		"trial_type": "audio-keyboard-response",
		"trial_index": 38,
		"time_elapsed": 157101,
		"internal_node_id": "0.0-1.0-1.18"
	},
	{
		"rt": null,
		"stimulus": "+",
		"response": null,
		"trial_type": "html-keyboard-response",
		"trial_index": 39,
		"time_elapsed": 157609,
		"internal_node_id": "0.0-1.0-0.19"
	},
	{
		"rt": 3899,
		"stimulus": "../audio/teste-vocab--125.mp3",
		"response": "s",
		"portuguese": "lamaçal",
		"kreyol": "labou",
		"trial_type": "audio-keyboard-response",
		"trial_index": 40,
		"time_elapsed": 161549,
		"internal_node_id": "0.0-1.0-1.19"
	},
	{
		"rt": null,
		"stimulus": "+",
		"response": null,
		"trial_type": "html-keyboard-response",
		"trial_index": 41,
		"time_elapsed": 162053,
		"internal_node_id": "0.0-1.0-0.20"
	},
	{
		"rt": 2792,
		"stimulus": "../audio/teste-vocab--43.mp3",
		"response": "s",
		"portuguese": "mecânico",
		"kreyol": "mekanisyen",
		"trial_type": "audio-keyboard-response",
		"trial_index": 42,
		"time_elapsed": 164893,
		"internal_node_id": "0.0-1.0-1.20"
	},
	{
		"rt": null,
		"stimulus": "+",
		"response": null,
		"trial_type": "html-keyboard-response",
		"trial_index": 43,
		"time_elapsed": 165402,
		"internal_node_id": "0.0-1.0-0.21"
	},
	{
		"rt": 9861,
		"stimulus": "../audio/teste-vocab--78.mp3",
		"response": "s",
		"portuguese": "quarteto",
		"kreyol": "qwatèt",
		"trial_type": "audio-keyboard-response",
		"trial_index": 44,
		"time_elapsed": 175293,
		"internal_node_id": "0.0-1.0-1.21"
	},
	{
		"rt": null,
		"stimulus": "+",
		"response": null,
		"trial_type": "html-keyboard-response",
		"trial_index": 45,
		"time_elapsed": 175801,
		"internal_node_id": "0.0-1.0-0.22"
	},
	{
		"rt": 2581,
		"stimulus": "../audio/teste-vocab--37.mp3",
		"response": "s",
		"portuguese": "músico",
		"kreyol": "mizisyen",
		"trial_type": "audio-keyboard-response",
		"trial_index": 46,
		"time_elapsed": 178413,
		"internal_node_id": "0.0-1.0-1.22"
	},
	{
		"rt": null,
		"stimulus": "+",
		"response": null,
		"trial_type": "html-keyboard-response",
		"trial_index": 47,
		"time_elapsed": 178917,
		"internal_node_id": "0.0-1.0-0.23"
	},
	{
		"rt": 3131,
		"stimulus": "../audio/teste-vocab--66.mp3",
		"response": "n",
		"portuguese": "cooperação",
		"kreyol": "koperasyon",
		"trial_type": "audio-keyboard-response",
		"trial_index": 48,
		"time_elapsed": 182093,
		"internal_node_id": "0.0-1.0-1.23"
	},
	{
		"rt": null,
		"stimulus": "+",
		"response": null,
		"trial_type": "html-keyboard-response",
		"trial_index": 49,
		"time_elapsed": 182610,
		"internal_node_id": "0.0-1.0-0.24"
	},
	{
		"rt": 2160,
		"stimulus": "../audio/teste-vocab--92.mp3",
		"response": "n",
		"portuguese": "esférico",
		"kreyol": "won",
		"trial_type": "audio-keyboard-response",
		"trial_index": 50,
		"time_elapsed": 184814,
		"internal_node_id": "0.0-1.0-1.24"
	},
	{
		"rt": null,
		"stimulus": "+",
		"response": null,
		"trial_type": "html-keyboard-response",
		"trial_index": 51,
		"time_elapsed": 185323,
		"internal_node_id": "0.0-1.0-0.25"
	},
	{
		"rt": 1979,
		"stimulus": "../audio/teste-vocab--10.mp3",
		"response": "n",
		"portuguese": "corneta",
		"kreyol": "kòn",
		"trial_type": "audio-keyboard-response",
		"trial_index": 52,
		"time_elapsed": 187340,
		"internal_node_id": "0.0-1.0-1.25"
	},
	{
		"rt": null,
		"stimulus": "+",
		"response": null,
		"trial_type": "html-keyboard-response",
		"trial_index": 53,
		"time_elapsed": 187843,
		"internal_node_id": "0.0-1.0-0.26"
	},
	{
		"rt": 3251,
		"stimulus": "../audio/teste-vocab--81.mp3",
		"response": "s",
		"portuguese": "judicial",
		"kreyol": "jidisyè",
		"trial_type": "audio-keyboard-response",
		"trial_index": 54,
		"time_elapsed": 191132,
		"internal_node_id": "0.0-1.0-1.26"
	},
	{
		"rt": null,
		"stimulus": "+",
		"response": null,
		"trial_type": "html-keyboard-response",
		"trial_index": 55,
		"time_elapsed": 191639,
		"internal_node_id": "0.0-1.0-0.27"
	},
	{
		"rt": 2459,
		"stimulus": "../audio/teste-vocab--119.mp3",
		"response": "s",
		"portuguese": "numeroso",
		"kreyol": "anpil",
		"trial_type": "audio-keyboard-response",
		"trial_index": 56,
		"time_elapsed": 194140,
		"internal_node_id": "0.0-1.0-1.27"
	},
	{
		"rt": null,
		"stimulus": "+",
		"response": null,
		"trial_type": "html-keyboard-response",
		"trial_index": 57,
		"time_elapsed": 194646,
		"internal_node_id": "0.0-1.0-0.28"
	},
	{
		"rt": 2419,
		"stimulus": "../audio/teste-vocab--49.mp3",
		"response": "s",
		"portuguese": "humano",
		"kreyol": "moun",
		"trial_type": "audio-keyboard-response",
		"trial_index": 58,
		"time_elapsed": 197100,
		"internal_node_id": "0.0-1.0-1.28"
	},
	{
		"rt": null,
		"stimulus": "+",
		"response": null,
		"trial_type": "html-keyboard-response",
		"trial_index": 59,
		"time_elapsed": 197608,
		"internal_node_id": "0.0-1.0-0.29"
	},
	{
		"rt": 2619,
		"stimulus": "../audio/teste-vocab--30.mp3",
		"response": "n",
		"portuguese": "pintor",
		"kreyol": "pent",
		"trial_type": "audio-keyboard-response",
		"trial_index": 60,
		"time_elapsed": 200268,
		"internal_node_id": "0.0-1.0-1.29"
	},
	{
		"rt": null,
		"stimulus": "+",
		"response": null,
		"trial_type": "html-keyboard-response",
		"trial_index": 61,
		"time_elapsed": 200770,
		"internal_node_id": "0.0-1.0-0.30"
	},
	{
		"rt": 2411,
		"stimulus": "../audio/teste-vocab--88.mp3",
		"response": "s",
		"portuguese": "portátil",
		"kreyol": "pòtab",
		"trial_type": "audio-keyboard-response",
		"trial_index": 62,
		"time_elapsed": 203243,
		"internal_node_id": "0.0-1.0-1.30"
	},
	{
		"rt": null,
		"stimulus": "+",
		"response": null,
		"trial_type": "html-keyboard-response",
		"trial_index": 63,
		"time_elapsed": 203759,
		"internal_node_id": "0.0-1.0-0.31"
	},
	{
		"rt": 2221,
		"stimulus": "../audio/teste-vocab--14.mp3",
		"response": "s",
		"portuguese": "ler",
		"kreyol": "li",
		"trial_type": "audio-keyboard-response",
		"trial_index": 64,
		"time_elapsed": 205996,
		"internal_node_id": "0.0-1.0-1.31"
	},
	{
		"rt": null,
		"stimulus": "+",
		"response": null,
		"trial_type": "html-keyboard-response",
		"trial_index": 65,
		"time_elapsed": 206503,
		"internal_node_id": "0.0-1.0-0.32"
	},
	{
		"rt": 2309,
		"stimulus": "../audio/teste-vocab--41.mp3",
		"response": "s",
		"portuguese": "médico",
		"kreyol": "doktè,",
		"trial_type": "audio-keyboard-response",
		"trial_index": 66,
		"time_elapsed": 208860,
		"internal_node_id": "0.0-1.0-1.32"
	},
	{
		"rt": null,
		"stimulus": "+",
		"response": null,
		"trial_type": "html-keyboard-response",
		"trial_index": 67,
		"time_elapsed": 209367,
		"internal_node_id": "0.0-1.0-0.33"
	},
	{
		"rt": 3451,
		"stimulus": "../audio/teste-vocab--84.mp3",
		"response": "s",
		"portuguese": "confiar",
		"kreyol": "konfye",
		"trial_type": "audio-keyboard-response",
		"trial_index": 68,
		"time_elapsed": 212844,
		"internal_node_id": "0.0-1.0-1.33"
	},
	{
		"rt": null,
		"stimulus": "+",
		"response": null,
		"trial_type": "html-keyboard-response",
		"trial_index": 69,
		"time_elapsed": 213354,
		"internal_node_id": "0.0-1.0-0.34"
	},
	{
		"rt": 2149,
		"stimulus": "../audio/teste-vocab--98.mp3",
		"response": "s",
		"portuguese": "instruir",
		"kreyol": "enstwi",
		"trial_type": "audio-keyboard-response",
		"trial_index": 70,
		"time_elapsed": 215516,
		"internal_node_id": "0.0-1.0-1.34"
	},
	{
		"rt": null,
		"stimulus": "+",
		"response": null,
		"trial_type": "html-keyboard-response",
		"trial_index": 71,
		"time_elapsed": 216026,
		"internal_node_id": "0.0-1.0-0.35"
	},
	{
		"rt": 2888,
		"stimulus": "../audio/teste-vocab--123.mp3",
		"response": "n",
		"portuguese": "emissão",
		"kreyol": "emisyon",
		"trial_type": "audio-keyboard-response",
		"trial_index": 72,
		"time_elapsed": 218940,
		"internal_node_id": "0.0-1.0-1.35"
	},
	{
		"rt": null,
		"stimulus": "+",
		"response": null,
		"trial_type": "html-keyboard-response",
		"trial_index": 73,
		"time_elapsed": 219447,
		"internal_node_id": "0.0-1.0-0.36"
	},
	{
		"rt": 3280,
		"stimulus": "../audio/teste-vocab--75.mp3",
		"response": "s",
		"portuguese": "carpinteiro",
		"kreyol": "chapantye",
		"trial_type": "audio-keyboard-response",
		"trial_index": 74,
		"time_elapsed": 222748,
		"internal_node_id": "0.0-1.0-1.36"
	},
	{
		"rt": null,
		"stimulus": "+",
		"response": null,
		"trial_type": "html-keyboard-response",
		"trial_index": 75,
		"time_elapsed": 223260,
		"internal_node_id": "0.0-1.0-0.37"
	},
	{
		"rt": 3301,
		"stimulus": "../audio/teste-vocab--96.mp3",
		"response": "n",
		"portuguese": "árido",
		"kreyol": "sechrès",
		"trial_type": "audio-keyboard-response",
		"trial_index": 76,
		"time_elapsed": 226604,
		"internal_node_id": "0.0-1.0-1.37"
	},
	{
		"rt": null,
		"stimulus": "+",
		"response": null,
		"trial_type": "html-keyboard-response",
		"trial_index": 77,
		"time_elapsed": 227114,
		"internal_node_id": "0.0-1.0-0.38"
	},
	{
		"rt": 3728,
		"stimulus": "../audio/teste-vocab--26.mp3",
		"response": "s",
		"portuguese": "cotovelo",
		"kreyol": "koud",
		"trial_type": "audio-keyboard-response",
		"trial_index": 78,
		"time_elapsed": 230860,
		"internal_node_id": "0.0-1.0-1.38"
	},
	{
		"rt": null,
		"stimulus": "+",
		"response": null,
		"trial_type": "html-keyboard-response",
		"trial_index": 79,
		"time_elapsed": 231374,
		"internal_node_id": "0.0-1.0-0.39"
	},
	{
		"rt": 2752,
		"stimulus": "../audio/teste-vocab--87.mp3",
		"response": "n",
		"portuguese": "ave",
		"kreyol": "zwazo",
		"trial_type": "audio-keyboard-response",
		"trial_index": 80,
		"time_elapsed": 234172,
		"internal_node_id": "0.0-1.0-1.39"
	},
	{
		"rt": null,
		"stimulus": "+",
		"response": null,
		"trial_type": "html-keyboard-response",
		"trial_index": 81,
		"time_elapsed": 234682,
		"internal_node_id": "0.0-1.0-0.40"
	},
	{
		"rt": 5651,
		"stimulus": "../audio/teste-vocab--118.mp3",
		"response": "n",
		"portuguese": "paralelogramo",
		"kreyol": "paralelogram",
		"trial_type": "audio-keyboard-response",
		"trial_index": 82,
		"time_elapsed": 240364,
		"internal_node_id": "0.0-1.0-1.40"
	},
	{
		"rt": null,
		"stimulus": "+",
		"response": null,
		"trial_type": "html-keyboard-response",
		"trial_index": 83,
		"time_elapsed": 240876,
		"internal_node_id": "0.0-1.0-0.41"
	},
	{
		"rt": 2880,
		"stimulus": "../audio/teste-vocab--120.mp3",
		"response": "n",
		"portuguese": "induzir",
		"kreyol": "pwovoke",
		"trial_type": "audio-keyboard-response",
		"trial_index": 84,
		"time_elapsed": 243804,
		"internal_node_id": "0.0-1.0-1.41"
	},
	{
		"rt": null,
		"stimulus": "+",
		"response": null,
		"trial_type": "html-keyboard-response",
		"trial_index": 85,
		"time_elapsed": 244311,
		"internal_node_id": "0.0-1.0-0.42"
	},
	{
		"rt": 2659,
		"stimulus": "../audio/teste-vocab--12.mp3",
		"response": "n",
		"portuguese": "jaula",
		"kreyol": "kaj",
		"trial_type": "audio-keyboard-response",
		"trial_index": 86,
		"time_elapsed": 247020,
		"internal_node_id": "0.0-1.0-1.42"
	},
	{
		"rt": null,
		"stimulus": "+",
		"response": null,
		"trial_type": "html-keyboard-response",
		"trial_index": 87,
		"time_elapsed": 247525,
		"internal_node_id": "0.0-1.0-0.43"
	},
	{
		"rt": 2989,
		"stimulus": "../audio/teste-vocab--38.mp3",
		"response": "s",
		"portuguese": "cerimônia",
		"kreyol": "seremoni",
		"trial_type": "audio-keyboard-response",
		"trial_index": 88,
		"time_elapsed": 250555,
		"internal_node_id": "0.0-1.0-1.43"
	},
	{
		"rt": null,
		"stimulus": "+",
		"response": null,
		"trial_type": "html-keyboard-response",
		"trial_index": 89,
		"time_elapsed": 251068,
		"internal_node_id": "0.0-1.0-0.44"
	},
	{
		"rt": 3211,
		"stimulus": "../audio/teste-vocab--63.mp3",
		"response": "s",
		"portuguese": "transparente",
		"kreyol": "transparan",
		"trial_type": "audio-keyboard-response",
		"trial_index": 90,
		"time_elapsed": 254315,
		"internal_node_id": "0.0-1.0-1.44"
	},
	{
		"rt": null,
		"stimulus": "+",
		"response": null,
		"trial_type": "html-keyboard-response",
		"trial_index": 91,
		"time_elapsed": 254824,
		"internal_node_id": "0.0-1.0-0.45"
	},
	{
		"rt": 5528,
		"stimulus": "../audio/teste-vocab--32.mp3",
		"response": "n",
		"portuguese": "descascar",
		"kreyol": "dekale",
		"trial_type": "audio-keyboard-response",
		"trial_index": 92,
		"time_elapsed": 260379,
		"internal_node_id": "0.0-1.0-1.45"
	},
	{
		"rt": null,
		"stimulus": "+",
		"response": null,
		"trial_type": "html-keyboard-response",
		"trial_index": 93,
		"time_elapsed": 260892,
		"internal_node_id": "0.0-1.0-0.46"
	},
	{
		"rt": 3059,
		"stimulus": "../audio/teste-vocab--77.mp3",
		"response": "s",
		"portuguese": "comércio",
		"kreyol": "komès",
		"trial_type": "audio-keyboard-response",
		"trial_index": 94,
		"time_elapsed": 263979,
		"internal_node_id": "0.0-1.0-1.46"
	},
	{
		"rt": null,
		"stimulus": "+",
		"response": null,
		"trial_type": "html-keyboard-response",
		"trial_index": 95,
		"time_elapsed": 264480,
		"internal_node_id": "0.0-1.0-0.47"
	},
	{
		"rt": 2691,
		"stimulus": "../audio/teste-vocab--79.mp3",
		"response": "n",
		"portuguese": "moldura",
		"kreyol": " chanbranl",
		"trial_type": "audio-keyboard-response",
		"trial_index": 96,
		"time_elapsed": 267211,
		"internal_node_id": "0.0-1.0-1.47"
	},
	{
		"rt": null,
		"stimulus": "+",
		"response": null,
		"trial_type": "html-keyboard-response",
		"trial_index": 97,
		"time_elapsed": 267722,
		"internal_node_id": "0.0-1.0-0.48"
	},
	{
		"rt": 3579,
		"stimulus": "../audio/teste-vocab--28.mp3",
		"response": "s",
		"portuguese": "águia",
		"kreyol": "èg",
		"trial_type": "audio-keyboard-response",
		"trial_index": 98,
		"time_elapsed": 271339,
		"internal_node_id": "0.0-1.0-1.48"
	},
	{
		"rt": null,
		"stimulus": "+",
		"response": null,
		"trial_type": "html-keyboard-response",
		"trial_index": 99,
		"time_elapsed": 271854,
		"internal_node_id": "0.0-1.0-0.49"
	},
	{
		"rt": 4869,
		"stimulus": "../audio/teste-vocab--104.mp3",
		"response": "n",
		"portuguese": "ira",
		"kreyol": "pwal",
		"trial_type": "audio-keyboard-response",
		"trial_index": 100,
		"time_elapsed": 276762,
		"internal_node_id": "0.0-1.0-1.49"
	},
	{
		"rt": null,
		"stimulus": "+",
		"response": null,
		"trial_type": "html-keyboard-response",
		"trial_index": 101,
		"time_elapsed": 277275,
		"internal_node_id": "0.0-1.0-0.50"
	},
	{
		"rt": 2480,
		"stimulus": "../audio/teste-vocab--64.mp3",
		"response": "s",
		"portuguese": "colher",
		"kreyol": "kiyè",
		"trial_type": "audio-keyboard-response",
		"trial_index": 102,
		"time_elapsed": 279803,
		"internal_node_id": "0.0-1.0-1.50"
	},
	{
		"rt": null,
		"stimulus": "+",
		"response": null,
		"trial_type": "html-keyboard-response",
		"trial_index": 103,
		"time_elapsed": 280317,
		"internal_node_id": "0.0-1.0-0.51"
	},
	{
		"rt": 3461,
		"stimulus": "../audio/teste-vocab--82.mp3",
		"response": "n",
		"portuguese": "roer",
		"kreyol": "ronje",
		"trial_type": "audio-keyboard-response",
		"trial_index": 104,
		"time_elapsed": 283803,
		"internal_node_id": "0.0-1.0-1.51"
	},
	{
		"rt": null,
		"stimulus": "+",
		"response": null,
		"trial_type": "html-keyboard-response",
		"trial_index": 105,
		"time_elapsed": 284315,
		"internal_node_id": "0.0-1.0-0.52"
	},
	{
		"rt": 3672,
		"stimulus": "../audio/teste-vocab--97.mp3",
		"response": "s",
		"portuguese": "frágil",
		"kreyol": "frajil",
		"trial_type": "audio-keyboard-response",
		"trial_index": 106,
		"time_elapsed": 288011,
		"internal_node_id": "0.0-1.0-1.52"
	},
	{
		"rt": null,
		"stimulus": "+",
		"response": null,
		"trial_type": "html-keyboard-response",
		"trial_index": 107,
		"time_elapsed": 288525,
		"internal_node_id": "0.0-1.0-0.53"
	},
	{
		"rt": 2368,
		"stimulus": "../audio/teste-vocab--50.mp3",
		"response": "s",
		"portuguese": "artista",
		"kreyol": "atis",
		"trial_type": "audio-keyboard-response",
		"trial_index": 108,
		"time_elapsed": 290939,
		"internal_node_id": "0.0-1.0-1.53"
	},
	{
		"rt": null,
		"stimulus": "+",
		"response": null,
		"trial_type": "html-keyboard-response",
		"trial_index": 109,
		"time_elapsed": 291454,
		"internal_node_id": "0.0-1.0-0.54"
	},
	{
		"rt": 2968,
		"stimulus": "../audio/teste-vocab--73.mp3",
		"response": "s",
		"portuguese": "ângulo",
		"kreyol": "ang",
		"trial_type": "audio-keyboard-response",
		"trial_index": 110,
		"time_elapsed": 294459,
		"internal_node_id": "0.0-1.0-1.54"
	},
	{
		"rt": null,
		"stimulus": "+",
		"response": null,
		"trial_type": "html-keyboard-response",
		"trial_index": 111,
		"time_elapsed": 294969,
		"internal_node_id": "0.0-1.0-0.55"
	},
	{
		"rt": 2800,
		"stimulus": "../audio/teste-vocab--27.mp3",
		"response": "n",
		"portuguese": "rio",
		"kreyol": "rivyè",
		"trial_type": "audio-keyboard-response",
		"trial_index": 112,
		"time_elapsed": 297819,
		"internal_node_id": "0.0-1.0-1.55"
	},
	{
		"rt": null,
		"stimulus": "+",
		"response": null,
		"trial_type": "html-keyboard-response",
		"trial_index": 113,
		"time_elapsed": 298321,
		"internal_node_id": "0.0-1.0-0.56"
	},
	{
		"rt": 3960,
		"stimulus": "../audio/teste-vocab--62.mp3",
		"response": "n",
		"portuguese": "carretel",
		"kreyol": "bobin",
		"trial_type": "audio-keyboard-response",
		"trial_index": 114,
		"time_elapsed": 302315,
		"internal_node_id": "0.0-1.0-1.56"
	},
	{
		"rt": null,
		"stimulus": "+",
		"response": null,
		"trial_type": "html-keyboard-response",
		"trial_index": 115,
		"time_elapsed": 302824,
		"internal_node_id": "0.0-1.0-0.57"
	},
	{
		"rt": 3179,
		"stimulus": "../audio/teste-vocab--126.mp3",
		"response": "n",
		"portuguese": "ambulante",
		"kreyol": "promennen",
		"trial_type": "audio-keyboard-response",
		"trial_index": 116,
		"time_elapsed": 306059,
		"internal_node_id": "0.0-1.0-1.57"
	},
	{
		"rt": null,
		"stimulus": "+",
		"response": null,
		"trial_type": "html-keyboard-response",
		"trial_index": 117,
		"time_elapsed": 306562,
		"internal_node_id": "0.0-1.0-0.58"
	},
	{
		"rt": 2760,
		"stimulus": "../audio/teste-vocab--91.mp3",
		"response": "n",
		"portuguese": "bússola",
		"kreyol": "bousòl",
		"trial_type": "audio-keyboard-response",
		"trial_index": 118,
		"time_elapsed": 309338,
		"internal_node_id": "0.0-1.0-1.58"
	},
	{
		"rt": null,
		"stimulus": "+",
		"response": null,
		"trial_type": "html-keyboard-response",
		"trial_index": 119,
		"time_elapsed": 309841,
		"internal_node_id": "0.0-1.0-0.59"
	},
	{
		"rt": 2840,
		"stimulus": "../audio/teste-vocab--01.mp3",
		"response": "n",
		"portuguese": "boneca",
		"kreyol": "pope",
		"trial_type": "audio-keyboard-response",
		"trial_index": 120,
		"time_elapsed": 312714,
		"internal_node_id": "0.0-1.0-1.59"
	},
	{
		"rt": null,
		"stimulus": "+",
		"response": null,
		"trial_type": "html-keyboard-response",
		"trial_index": 121,
		"time_elapsed": 313220,
		"internal_node_id": "0.0-1.0-0.60"
	},
	{
		"rt": 3560,
		"stimulus": "../audio/teste-vocab--85.mp3",
		"response": "n",
		"portuguese": "trio",
		"kreyol": "trio",
		"trial_type": "audio-keyboard-response",
		"trial_index": 122,
		"time_elapsed": 316810,
		"internal_node_id": "0.0-1.0-1.60"
	},
	{
		"rt": null,
		"stimulus": "+",
		"response": null,
		"trial_type": "html-keyboard-response",
		"trial_index": 123,
		"time_elapsed": 317324,
		"internal_node_id": "0.0-1.0-0.61"
	},
	{
		"rt": 2659,
		"stimulus": "../audio/teste-vocab--54.mp3",
		"response": "n",
		"portuguese": "arbusto",
		"kreyol": "raje",
		"trial_type": "audio-keyboard-response",
		"trial_index": 124,
		"time_elapsed": 320026,
		"internal_node_id": "0.0-1.0-1.61"
	},
	{
		"rt": null,
		"stimulus": "+",
		"response": null,
		"trial_type": "html-keyboard-response",
		"trial_index": 125,
		"time_elapsed": 320537,
		"internal_node_id": "0.0-1.0-0.62"
	},
	{
		"rt": 2701,
		"stimulus": "../audio/teste-vocab--40.mp3",
		"response": "s",
		"portuguese": "bebida",
		"kreyol": "bwason",
		"trial_type": "audio-keyboard-response",
		"trial_index": 126,
		"time_elapsed": 323274,
		"internal_node_id": "0.0-1.0-1.62"
	},
	{
		"rt": null,
		"stimulus": "+",
		"response": null,
		"trial_type": "html-keyboard-response",
		"trial_index": 127,
		"time_elapsed": 323786,
		"internal_node_id": "0.0-1.0-0.63"
	},
	{
		"rt": 2171,
		"stimulus": "../audio/teste-vocab--21.mp3",
		"response": "s",
		"portuguese": "baleia",
		"kreyol": "balèn",
		"trial_type": "audio-keyboard-response",
		"trial_index": 128,
		"time_elapsed": 325994,
		"internal_node_id": "0.0-1.0-1.63"
	},
	{
		"rt": null,
		"stimulus": "+",
		"response": null,
		"trial_type": "html-keyboard-response",
		"trial_index": 129,
		"time_elapsed": 326501,
		"internal_node_id": "0.0-1.0-0.64"
	},
	{
		"rt": 2091,
		"stimulus": "../audio/teste-vocab--05.mp3",
		"response": "s",
		"portuguese": "limpar",
		"kreyol": "netwaye",
		"trial_type": "audio-keyboard-response",
		"trial_index": 130,
		"time_elapsed": 328634,
		"internal_node_id": "0.0-1.0-1.64"
	},
	{
		"rt": null,
		"stimulus": "+",
		"response": null,
		"trial_type": "html-keyboard-response",
		"trial_index": 131,
		"time_elapsed": 329147,
		"internal_node_id": "0.0-1.0-0.65"
	},
	{
		"rt": 2821,
		"stimulus": "../audio/teste-vocab--72.mp3",
		"response": "n",
		"portuguese": "ilha",
		"kreyol": "zile",
		"trial_type": "audio-keyboard-response",
		"trial_index": 132,
		"time_elapsed": 332010,
		"internal_node_id": "0.0-1.0-1.65"
	},
	{
		"rt": null,
		"stimulus": "+",
		"response": null,
		"trial_type": "html-keyboard-response",
		"trial_index": 133,
		"time_elapsed": 332515,
		"internal_node_id": "0.0-1.0-0.66"
	},
	{
		"rt": 2589,
		"stimulus": "../audio/teste-vocab--121.mp3",
		"response": "s",
		"portuguese": "atônito",
		"kreyol": "sezi",
		"trial_type": "audio-keyboard-response",
		"trial_index": 134,
		"time_elapsed": 335146,
		"internal_node_id": "0.0-1.0-1.66"
	},
	{
		"rt": null,
		"stimulus": "+",
		"response": null,
		"trial_type": "html-keyboard-response",
		"trial_index": 135,
		"time_elapsed": 335648,
		"internal_node_id": "0.0-1.0-0.67"
	},
	{
		"rt": 2232,
		"stimulus": "../audio/teste-vocab--68.mp3",
		"response": "s",
		"portuguese": "surpreendido",
		"kreyol": "sezi",
		"trial_type": "audio-keyboard-response",
		"trial_index": 136,
		"time_elapsed": 337930,
		"internal_node_id": "0.0-1.0-1.67"
	},
	{
		"rt": null,
		"stimulus": "+",
		"response": null,
		"trial_type": "html-keyboard-response",
		"trial_index": 137,
		"time_elapsed": 338434,
		"internal_node_id": "0.0-1.0-0.68"
	},
	{
		"rt": 2872,
		"stimulus": "../audio/teste-vocab--58.mp3",
		"response": "s",
		"portuguese": "nutritivo",
		"kreyol": "nourisan",
		"trial_type": "audio-keyboard-response",
		"trial_index": 138,
		"time_elapsed": 341370,
		"internal_node_id": "0.0-1.0-1.68"
	},
	{
		"rt": null,
		"stimulus": "+",
		"response": null,
		"trial_type": "html-keyboard-response",
		"trial_index": 139,
		"time_elapsed": 341882,
		"internal_node_id": "0.0-1.0-0.69"
	},
	{
		"rt": 2688,
		"stimulus": "../audio/teste-vocab--129.mp3",
		"response": "n",
		"portuguese": "elipse",
		"kreyol": "elips",
		"trial_type": "audio-keyboard-response",
		"trial_index": 140,
		"time_elapsed": 344618,
		"internal_node_id": "0.0-1.0-1.69"
	},
	{
		"rt": null,
		"stimulus": "+",
		"response": null,
		"trial_type": "html-keyboard-response",
		"trial_index": 141,
		"time_elapsed": 345120,
		"internal_node_id": "0.0-1.0-0.70"
	},
	{
		"rt": 2781,
		"stimulus": "../audio/teste-vocab--71.mp3",
		"response": "s",
		"portuguese": "caule",
		"kreyol": "tij",
		"trial_type": "audio-keyboard-response",
		"trial_index": 142,
		"time_elapsed": 347962,
		"internal_node_id": "0.0-1.0-1.70"
	},
	{
		"rt": null,
		"stimulus": "+",
		"response": null,
		"trial_type": "html-keyboard-response",
		"trial_index": 143,
		"time_elapsed": 348467,
		"internal_node_id": "0.0-1.0-0.71"
	},
	{
		"rt": 4061,
		"stimulus": "../audio/teste-vocab--93.mp3",
		"response": "s",
		"portuguese": "felino",
		"kreyol": "leopa",
		"trial_type": "audio-keyboard-response",
		"trial_index": 144,
		"time_elapsed": 352570,
		"internal_node_id": "0.0-1.0-1.71"
	},
	{
		"rt": null,
		"stimulus": "+",
		"response": null,
		"trial_type": "html-keyboard-response",
		"trial_index": 145,
		"time_elapsed": 353082,
		"internal_node_id": "0.0-1.0-0.72"
	},
	{
		"rt": 3248,
		"stimulus": "../audio/teste-vocab--15.mp3",
		"response": "s",
		"portuguese": "flecha",
		"kreyol": "flèch",
		"trial_type": "audio-keyboard-response",
		"trial_index": 146,
		"time_elapsed": 356378,
		"internal_node_id": "0.0-1.0-1.72"
	},
	{
		"rt": null,
		"stimulus": "+",
		"response": null,
		"trial_type": "html-keyboard-response",
		"trial_index": 147,
		"time_elapsed": 356882,
		"internal_node_id": "0.0-1.0-0.73"
	},
	{
		"rt": 3731,
		"stimulus": "../audio/teste-vocab--23.mp3",
		"response": "s",
		"portuguese": "acariciar",
		"kreyol": "karese",
		"trial_type": "audio-keyboard-response",
		"trial_index": 148,
		"time_elapsed": 360634,
		"internal_node_id": "0.0-1.0-1.73"
	},
	{
		"rt": null,
		"stimulus": "+",
		"response": null,
		"trial_type": "html-keyboard-response",
		"trial_index": 149,
		"time_elapsed": 361136,
		"internal_node_id": "0.0-1.0-0.74"
	},
	{
		"rt": 3299,
		"stimulus": "../audio/teste-vocab--09.mp3",
		"response": "n",
		"portuguese": "vela",
		"kreyol": "bouji",
		"trial_type": "audio-keyboard-response",
		"trial_index": 150,
		"time_elapsed": 364458,
		"internal_node_id": "0.0-1.0-1.74"
	},
	{
		"rt": null,
		"stimulus": "+",
		"response": null,
		"trial_type": "html-keyboard-response",
		"trial_index": 151,
		"time_elapsed": 364971,
		"internal_node_id": "0.0-1.0-0.75"
	},
	{
		"rt": 2371,
		"stimulus": "../audio/teste-vocab--67.mp3",
		"response": "n",
		"portuguese": "corrimão",
		"kreyol": "ranp",
		"trial_type": "audio-keyboard-response",
		"trial_index": 152,
		"time_elapsed": 367370,
		"internal_node_id": "0.0-1.0-1.75"
	},
	{
		"rt": null,
		"stimulus": "+",
		"response": null,
		"trial_type": "html-keyboard-response",
		"trial_index": 153,
		"time_elapsed": 367871,
		"internal_node_id": "0.0-1.0-0.76"
	},
	{
		"rt": 2661,
		"stimulus": "../audio/teste-vocab--114.mp3",
		"response": "s",
		"portuguese": "fragmentar",
		"kreyol": "dechire",
		"trial_type": "audio-keyboard-response",
		"trial_index": 154,
		"time_elapsed": 370553,
		"internal_node_id": "0.0-1.0-1.76"
	},
	{
		"rt": null,
		"stimulus": "+",
		"response": null,
		"trial_type": "html-keyboard-response",
		"trial_index": 155,
		"time_elapsed": 371062,
		"internal_node_id": "0.0-1.0-0.77"
	},
	{
		"rt": 2291,
		"stimulus": "../audio/teste-vocab--16.mp3",
		"response": "s",
		"portuguese": "pescoço",
		"kreyol": "kou",
		"trial_type": "audio-keyboard-response",
		"trial_index": 156,
		"time_elapsed": 373385,
		"internal_node_id": "0.0-1.0-1.77"
	},
	{
		"rt": null,
		"stimulus": "+",
		"response": null,
		"trial_type": "html-keyboard-response",
		"trial_index": 157,
		"time_elapsed": 373896,
		"internal_node_id": "0.0-1.0-0.78"
	},
	{
		"rt": 2608,
		"stimulus": "../audio/teste-vocab--60.mp3",
		"response": "s",
		"portuguese": "secretaria",
		"kreyol": "sekretè",
		"trial_type": "audio-keyboard-response",
		"trial_index": 158,
		"time_elapsed": 376537,
		"internal_node_id": "0.0-1.0-1.78"
	},
	{
		"rt": null,
		"stimulus": "+",
		"response": null,
		"trial_type": "html-keyboard-response",
		"trial_index": 159,
		"time_elapsed": 377052,
		"internal_node_id": "0.0-1.0-0.79"
	},
	{
		"rt": 2680,
		"stimulus": "../audio/teste-vocab--24.mp3",
		"response": "s",
		"portuguese": "acidente",
		"kreyol": "aksidan",
		"trial_type": "audio-keyboard-response",
		"trial_index": 160,
		"time_elapsed": 379753,
		"internal_node_id": "0.0-1.0-1.79"
	},
	{
		"rt": null,
		"stimulus": "+",
		"response": null,
		"trial_type": "html-keyboard-response",
		"trial_index": 161,
		"time_elapsed": 380267,
		"internal_node_id": "0.0-1.0-0.80"
	},
	{
		"rt": 3152,
		"stimulus": "../audio/teste-vocab--69.mp3",
		"response": "n",
		"portuguese": "pingar",
		"kreyol": "degoute",
		"trial_type": "audio-keyboard-response",
		"trial_index": 162,
		"time_elapsed": 383449,
		"internal_node_id": "0.0-1.0-1.80"
	},
	{
		"rt": null,
		"stimulus": "+",
		"response": null,
		"trial_type": "html-keyboard-response",
		"trial_index": 163,
		"time_elapsed": 383950,
		"internal_node_id": "0.0-1.0-0.81"
	},
	{
		"rt": 2360,
		"stimulus": "../audio/teste-vocab--99.mp3",
		"response": "n",
		"portuguese": "arqueólogo",
		"kreyol": "akeyológ",
		"trial_type": "audio-keyboard-response",
		"trial_index": 164,
		"time_elapsed": 386361,
		"internal_node_id": "0.0-1.0-1.81"
	},
	{
		"rt": null,
		"stimulus": "+",
		"response": null,
		"trial_type": "html-keyboard-response",
		"trial_index": 165,
		"time_elapsed": 386871,
		"internal_node_id": "0.0-1.0-0.82"
	},
	{
		"rt": 2309,
		"stimulus": "../audio/teste-vocab--102.mp3",
		"response": "s",
		"portuguese": "arrogante",
		"kreyol": "arogan",
		"trial_type": "audio-keyboard-response",
		"trial_index": 166,
		"time_elapsed": 389225,
		"internal_node_id": "0.0-1.0-1.82"
	},
	{
		"rt": null,
		"stimulus": "+",
		"response": null,
		"trial_type": "html-keyboard-response",
		"trial_index": 167,
		"time_elapsed": 389732,
		"internal_node_id": "0.0-1.0-0.83"
	},
	{
		"rt": 3181,
		"stimulus": "../audio/teste-vocab--51.mp3",
		"response": "s",
		"portuguese": "recolher",
		"kreyol": "kolekte",
		"trial_type": "audio-keyboard-response",
		"trial_index": 168,
		"time_elapsed": 392953,
		"internal_node_id": "0.0-1.0-1.83"
	},
	{
		"rt": null,
		"stimulus": "+",
		"response": null,
		"trial_type": "html-keyboard-response",
		"trial_index": 169,
		"time_elapsed": 393460,
		"internal_node_id": "0.0-1.0-0.84"
	},
	{
		"rt": 2691,
		"stimulus": "../audio/teste-vocab--76.mp3",
		"response": "s",
		"portuguese": "arquivar",
		"kreyol": "achive",
		"trial_type": "audio-keyboard-response",
		"trial_index": 170,
		"time_elapsed": 396185,
		"internal_node_id": "0.0-1.0-1.84"
	},
	{
		"rt": null,
		"stimulus": "+",
		"response": null,
		"trial_type": "html-keyboard-response",
		"trial_index": 171,
		"time_elapsed": 396693,
		"internal_node_id": "0.0-1.0-0.85"
	},
	{
		"rt": 2520,
		"stimulus": "../audio/teste-vocab--34.mp3",
		"response": "n",
		"portuguese": "tronco",
		"kreyol": "twon",
		"trial_type": "audio-keyboard-response",
		"trial_index": 172,
		"time_elapsed": 399241,
		"internal_node_id": "0.0-1.0-1.85"
	},
	{
		"rt": null,
		"stimulus": "+",
		"response": null,
		"trial_type": "html-keyboard-response",
		"trial_index": 173,
		"time_elapsed": 399757,
		"internal_node_id": "0.0-1.0-0.86"
	},
	{
		"rt": 2949,
		"stimulus": "../audio/teste-vocab--74.mp3",
		"response": "n",
		"portuguese": "desilusão",
		"kreyol": "dezilizyon",
		"trial_type": "audio-keyboard-response",
		"trial_index": 174,
		"time_elapsed": 402761,
		"internal_node_id": "0.0-1.0-1.86"
	},
	{
		"rt": null,
		"stimulus": "+",
		"response": null,
		"trial_type": "html-keyboard-response",
		"trial_index": 175,
		"time_elapsed": 403271,
		"internal_node_id": "0.0-1.0-0.87"
	},
	{
		"rt": 2029,
		"stimulus": "../audio/teste-vocab--59.mp3",
		"response": "s",
		"portuguese": "par",
		"kreyol": "pè",
		"trial_type": "audio-keyboard-response",
		"trial_index": 176,
		"time_elapsed": 405337,
		"internal_node_id": "0.0-1.0-1.87"
	},
	{
		"rt": null,
		"stimulus": "+",
		"response": null,
		"trial_type": "html-keyboard-response",
		"trial_index": 177,
		"time_elapsed": 405848,
		"internal_node_id": "0.0-1.0-0.88"
	},
	{
		"rt": 2432,
		"stimulus": "../audio/teste-vocab--13.mp3",
		"response": "s",
		"portuguese": "ambulância",
		"kreyol": "anbilans",
		"trial_type": "audio-keyboard-response",
		"trial_index": 178,
		"time_elapsed": 408329,
		"internal_node_id": "0.0-1.0-1.88"
	},
	{
		"rt": null,
		"stimulus": "+",
		"response": null,
		"trial_type": "html-keyboard-response",
		"trial_index": 179,
		"time_elapsed": 408840,
		"internal_node_id": "0.0-1.0-0.89"
	},
	{
		"rt": 7888,
		"stimulus": "../audio/teste-vocab--128.mp3",
		"response": "n",
		"portuguese": "incisivo",
		"kreyol": "ensisiv",
		"trial_type": "audio-keyboard-response",
		"trial_index": 180,
		"time_elapsed": 416777,
		"internal_node_id": "0.0-1.0-1.89"
	},
	{
		"rt": null,
		"stimulus": "+",
		"response": null,
		"trial_type": "html-keyboard-response",
		"trial_index": 181,
		"time_elapsed": 417282,
		"internal_node_id": "0.0-1.0-0.90"
	},
	{
		"rt": 2749,
		"stimulus": "../audio/teste-vocab--45.mp3",
		"response": "s",
		"portuguese": "dentista",
		"kreyol": "dantis",
		"trial_type": "audio-keyboard-response",
		"trial_index": 182,
		"time_elapsed": 420057,
		"internal_node_id": "0.0-1.0-1.90"
	},
	{
		"rt": null,
		"stimulus": "+",
		"response": null,
		"trial_type": "html-keyboard-response",
		"trial_index": 183,
		"time_elapsed": 420561,
		"internal_node_id": "0.0-1.0-0.91"
	},
	{
		"rt": 3789,
		"stimulus": "../audio/teste-vocab--111.mp3",
		"response": "s",
		"portuguese": "jubilosa",
		"kreyol": "rejwisans",
		"trial_type": "audio-keyboard-response",
		"trial_index": 184,
		"time_elapsed": 424377,
		"internal_node_id": "0.0-1.0-1.91"
	},
	{
		"rt": null,
		"stimulus": "+",
		"response": null,
		"trial_type": "html-keyboard-response",
		"trial_index": 185,
		"time_elapsed": 424891,
		"internal_node_id": "0.0-1.0-0.92"
	},
	{
		"rt": 2691,
		"stimulus": "../audio/teste-vocab--18.mp3",
		"response": "s",
		"portuguese": "abelha",
		"kreyol": "myèl",
		"trial_type": "audio-keyboard-response",
		"trial_index": 186,
		"time_elapsed": 427609,
		"internal_node_id": "0.0-1.0-1.92"
	},
	{
		"rt": null,
		"stimulus": "+",
		"response": null,
		"trial_type": "html-keyboard-response",
		"trial_index": 187,
		"time_elapsed": 428118,
		"internal_node_id": "0.0-1.0-0.93"
	},
	{
		"rt": 3408,
		"stimulus": "../audio/teste-vocab--100.mp3",
		"response": "n",
		"portuguese": "consumir",
		"kreyol": "konsome",
		"trial_type": "audio-keyboard-response",
		"trial_index": 188,
		"time_elapsed": 431576,
		"internal_node_id": "0.0-1.0-1.93"
	},
	{
		"rt": null,
		"stimulus": "+",
		"response": null,
		"trial_type": "html-keyboard-response",
		"trial_index": 189,
		"time_elapsed": 432080,
		"internal_node_id": "0.0-1.0-0.94"
	},
	{
		"rt": 3211,
		"stimulus": "../audio/teste-vocab--90.mp3",
		"response": "n",
		"portuguese": "carniça",
		"kreyol": "kanivò",
		"trial_type": "audio-keyboard-response",
		"trial_index": 190,
		"time_elapsed": 435320,
		"internal_node_id": "0.0-1.0-1.94"
	},
	{
		"rt": null,
		"stimulus": "+",
		"response": null,
		"trial_type": "html-keyboard-response",
		"trial_index": 191,
		"time_elapsed": 435830,
		"internal_node_id": "0.0-1.0-0.95"
	},
	{
		"rt": 2741,
		"stimulus": "../audio/teste-vocab--101.mp3",
		"response": "n",
		"portuguese": "incandescente",
		"kreyol": "enkandesan",
		"trial_type": "audio-keyboard-response",
		"trial_index": 192,
		"time_elapsed": 438600,
		"internal_node_id": "0.0-1.0-1.95"
	},
	{
		"rt": null,
		"stimulus": "+",
		"response": null,
		"trial_type": "html-keyboard-response",
		"trial_index": 193,
		"time_elapsed": 439113,
		"internal_node_id": "0.0-1.0-0.96"
	},
	{
		"rt": 2480,
		"stimulus": "../audio/teste-vocab--103.mp3",
		"response": "n",
		"portuguese": "utensílio",
		"kreyol": "istansil",
		"trial_type": "audio-keyboard-response",
		"trial_index": 194,
		"time_elapsed": 441656,
		"internal_node_id": "0.0-1.0-1.96"
	},
	{
		"rt": null,
		"stimulus": "+",
		"response": null,
		"trial_type": "html-keyboard-response",
		"trial_index": 195,
		"time_elapsed": 442163,
		"internal_node_id": "0.0-1.0-0.97"
	},
	{
		"rt": 2549,
		"stimulus": "../audio/teste-vocab--113.mp3",
		"response": "s",
		"portuguese": "ascender",
		"kreyol": "limen",
		"trial_type": "audio-keyboard-response",
		"trial_index": 196,
		"time_elapsed": 444744,
		"internal_node_id": "0.0-1.0-1.97"
	},
	{
		"rt": null,
		"stimulus": "+",
		"response": null,
		"trial_type": "html-keyboard-response",
		"trial_index": 197,
		"time_elapsed": 445247,
		"internal_node_id": "0.0-1.0-0.98"
	},
	{
		"rt": 2400,
		"stimulus": "../audio/teste-vocab--42.mp3",
		"response": "n",
		"portuguese": "isolamento",
		"kreyol": "izòlman",
		"trial_type": "audio-keyboard-response",
		"trial_index": 198,
		"time_elapsed": 447688,
		"internal_node_id": "0.0-1.0-1.98"
	},
	{
		"rt": null,
		"stimulus": "+",
		"response": null,
		"trial_type": "html-keyboard-response",
		"trial_index": 199,
		"time_elapsed": 448196,
		"internal_node_id": "0.0-1.0-0.99"
	},
	{
		"rt": 2331,
		"stimulus": "../audio/teste-vocab--55.mp3",
		"response": "s",
		"portuguese": "bosque",
		"kreyol": "forè",
		"trial_type": "audio-keyboard-response",
		"trial_index": 200,
		"time_elapsed": 450584,
		"internal_node_id": "0.0-1.0-1.99"
	},
	{
		"rt": null,
		"stimulus": "+",
		"response": null,
		"trial_type": "html-keyboard-response",
		"trial_index": 201,
		"time_elapsed": 451099,
		"internal_node_id": "0.0-1.0-0.100"
	},
	{
		"rt": 2400,
		"stimulus": "../audio/teste-vocab--110.mp3",
		"response": "n",
		"portuguese": "prodígio",
		"kreyol": "pwodij",
		"trial_type": "audio-keyboard-response",
		"trial_index": 202,
		"time_elapsed": 453544,
		"internal_node_id": "0.0-1.0-1.100"
	},
	{
		"rt": null,
		"stimulus": "+",
		"response": null,
		"trial_type": "html-keyboard-response",
		"trial_index": 203,
		"time_elapsed": 454058,
		"internal_node_id": "0.0-1.0-0.101"
	},
	{
		"rt": 2472,
		"stimulus": "../audio/teste-vocab--31.mp3",
		"response": "s",
		"portuguese": "vazio",
		"kreyol": "vid",
		"trial_type": "audio-keyboard-response",
		"trial_index": 204,
		"time_elapsed": 456568,
		"internal_node_id": "0.0-1.0-1.101"
	},
	{
		"rt": null,
		"stimulus": "+",
		"response": null,
		"trial_type": "html-keyboard-response",
		"trial_index": 205,
		"time_elapsed": 457082,
		"internal_node_id": "0.0-1.0-0.102"
	},
	{
		"rt": 2869,
		"stimulus": "../audio/teste-vocab--53.mp3",
		"response": "s",
		"portuguese": "orientar",
		"kreyol": "oryante",
		"trial_type": "audio-keyboard-response",
		"trial_index": 206,
		"time_elapsed": 459976,
		"internal_node_id": "0.0-1.0-1.102"
	},
	{
		"rt": null,
		"stimulus": "+",
		"response": null,
		"trial_type": "html-keyboard-response",
		"trial_index": 207,
		"time_elapsed": 460490,
		"internal_node_id": "0.0-1.0-0.103"
	},
	{
		"rt": 3749,
		"stimulus": "../audio/teste-vocab--39.mp3",
		"response": "s",
		"portuguese": "cobra",
		"kreyol": "koulèv",
		"trial_type": "audio-keyboard-response",
		"trial_index": 208,
		"time_elapsed": 464297,
		"internal_node_id": "0.0-1.0-1.103"
	},
	{
		"rt": null,
		"stimulus": "+",
		"response": null,
		"trial_type": "html-keyboard-response",
		"trial_index": 209,
		"time_elapsed": 464813,
		"internal_node_id": "0.0-1.0-0.104"
	},
	{
		"rt": 2581,
		"stimulus": "../audio/teste-vocab--89.mp3",
		"response": "n",
		"portuguese": "classificar",
		"kreyol": "klasifika",
		"trial_type": "audio-keyboard-response",
		"trial_index": 210,
		"time_elapsed": 467448,
		"internal_node_id": "0.0-1.0-1.104"
	},
	{
		"rt": null,
		"stimulus": "+",
		"response": null,
		"trial_type": "html-keyboard-response",
		"trial_index": 211,
		"time_elapsed": 467950,
		"internal_node_id": "0.0-1.0-0.105"
	},
	{
		"rt": 2269,
		"stimulus": "../audio/teste-vocab--33.mp3",
		"response": "s",
		"portuguese": "uniforme",
		"kreyol": "inifòm",
		"trial_type": "audio-keyboard-response",
		"trial_index": 212,
		"time_elapsed": 470264,
		"internal_node_id": "0.0-1.0-1.105"
	},
	{
		"rt": null,
		"stimulus": "+",
		"response": null,
		"trial_type": "html-keyboard-response",
		"trial_index": 213,
		"time_elapsed": 470780,
		"internal_node_id": "0.0-1.0-0.106"
	},
	{
		"rt": 2131,
		"stimulus": "../audio/teste-vocab--25.mp3",
		"response": "n",
		"portuguese": "canguru",
		"kreyol": "kanguwou",
		"trial_type": "audio-keyboard-response",
		"trial_index": 214,
		"time_elapsed": 472953,
		"internal_node_id": "0.0-1.0-1.106"
	},
	{
		"rt": null,
		"stimulus": "+",
		"response": null,
		"trial_type": "html-keyboard-response",
		"trial_index": 215,
		"time_elapsed": 473464,
		"internal_node_id": "0.0-1.0-0.107"
	},
	{
		"rt": 2411,
		"stimulus": "../audio/teste-vocab--07.mp3",
		"response": "s",
		"portuguese": "abajur",
		"kreyol": "lanp",
		"trial_type": "audio-keyboard-response",
		"trial_index": 216,
		"time_elapsed": 475913,
		"internal_node_id": "0.0-1.0-1.107"
	},
	{
		"rt": null,
		"stimulus": "+",
		"response": null,
		"trial_type": "html-keyboard-response",
		"trial_index": 217,
		"time_elapsed": 476417,
		"internal_node_id": "0.0-1.0-0.108"
	},
	{
		"rt": 3261,
		"stimulus": "../audio/teste-vocab--95.mp3",
		"response": "n",
		"portuguese": "submergir",
		"kreyol": "plonje",
		"trial_type": "audio-keyboard-response",
		"trial_index": 218,
		"time_elapsed": 479720,
		"internal_node_id": "0.0-1.0-1.108"
	},
	{
		"rt": null,
		"stimulus": "+",
		"response": null,
		"trial_type": "html-keyboard-response",
		"trial_index": 219,
		"time_elapsed": 480223,
		"internal_node_id": "0.0-1.0-0.109"
	},
	{
		"rt": 2331,
		"stimulus": "../audio/teste-vocab--22.mp3",
		"response": "s",
		"portuguese": "quebrado",
		"kreyol": "kraze",
		"trial_type": "audio-keyboard-response",
		"trial_index": 220,
		"time_elapsed": 482584,
		"internal_node_id": "0.0-1.0-1.109"
	},
	{
		"rt": null,
		"stimulus": "+",
		"response": null,
		"trial_type": "html-keyboard-response",
		"trial_index": 221,
		"time_elapsed": 483093,
		"internal_node_id": "0.0-1.0-0.110"
	},
	{
		"rt": 4760,
		"stimulus": "../audio/teste-vocab--48.mp3",
		"response": "s",
		"portuguese": "joia",
		"kreyol": "bijou",
		"trial_type": "audio-keyboard-response",
		"trial_index": 222,
		"time_elapsed": 487880,
		"internal_node_id": "0.0-1.0-1.110"
	},
	{
		"rt": null,
		"stimulus": "+",
		"response": null,
		"trial_type": "html-keyboard-response",
		"trial_index": 223,
		"time_elapsed": 488388,
		"internal_node_id": "0.0-1.0-0.111"
	},
	{
		"rt": 2920,
		"stimulus": "../audio/teste-vocab--65.mp3",
		"response": "s",
		"portuguese": "discussão",
		"kreyol": "diskisyon",
		"trial_type": "audio-keyboard-response",
		"trial_index": 224,
		"time_elapsed": 491336,
		"internal_node_id": "0.0-1.0-1.111"
	},
	{
		"rt": null,
		"stimulus": "+",
		"response": null,
		"trial_type": "html-keyboard-response",
		"trial_index": 225,
		"time_elapsed": 491837,
		"internal_node_id": "0.0-1.0-0.112"
	},
	{
		"rt": 2832,
		"stimulus": "../audio/teste-vocab--94.mp3",
		"response": "n",
		"portuguese": "paralelo",
		"kreyol": "paralèl",
		"trial_type": "audio-keyboard-response",
		"trial_index": 226,
		"time_elapsed": 494728,
		"internal_node_id": "0.0-1.0-1.112"
	},
	{
		"rt": null,
		"stimulus": "+",
		"response": null,
		"trial_type": "html-keyboard-response",
		"trial_index": 227,
		"time_elapsed": 495236,
		"internal_node_id": "0.0-1.0-0.113"
	},
	{
		"rt": 2619,
		"stimulus": "../audio/teste-vocab--127.mp3",
		"response": "n",
		"portuguese": "côncavo",
		"kreyol": "konkav",
		"trial_type": "audio-keyboard-response",
		"trial_index": 228,
		"time_elapsed": 497896,
		"internal_node_id": "0.0-1.0-1.113"
	},
	{
		"rt": null,
		"stimulus": "+",
		"response": null,
		"trial_type": "html-keyboard-response",
		"trial_index": 229,
		"time_elapsed": 498400,
		"internal_node_id": "0.0-1.0-0.114"
	},
	{
		"rt": 3920,
		"stimulus": "../audio/teste-vocab--112.mp3",
		"response": "s",
		"portuguese": "aparição",
		"kreyol": "aparisyon",
		"trial_type": "audio-keyboard-response",
		"trial_index": 230,
		"time_elapsed": 502376,
		"internal_node_id": "0.0-1.0-1.114"
	},
	{
		"rt": null,
		"stimulus": "+",
		"response": null,
		"trial_type": "html-keyboard-response",
		"trial_index": 231,
		"time_elapsed": 502885,
		"internal_node_id": "0.0-1.0-0.115"
	},
	{
		"rt": 4749,
		"stimulus": "../audio/teste-vocab--122.mp3",
		"response": "s",
		"portuguese": "transeunte",
		"kreyol": "pasajè",
		"trial_type": "audio-keyboard-response",
		"trial_index": 232,
		"time_elapsed": 507656,
		"internal_node_id": "0.0-1.0-1.115"
	},
	{
		"rt": null,
		"stimulus": "+",
		"response": null,
		"trial_type": "html-keyboard-response",
		"trial_index": 233,
		"time_elapsed": 508170,
		"internal_node_id": "0.0-1.0-0.116"
	},
	{
		"rt": 2581,
		"stimulus": "../audio/teste-vocab--29.mp3",
		"response": "s",
		"portuguese": "rasgar",
		"kreyol": "chire",
		"trial_type": "audio-keyboard-response",
		"trial_index": 234,
		"time_elapsed": 510793,
		"internal_node_id": "0.0-1.0-1.116"
	},
	{
		"rt": null,
		"stimulus": "+",
		"response": null,
		"trial_type": "html-keyboard-response",
		"trial_index": 235,
		"time_elapsed": 511305,
		"internal_node_id": "0.0-1.0-0.117"
	},
	{
		"rt": 2299,
		"stimulus": "../audio/teste-vocab--108.mp3",
		"response": "s",
		"portuguese": "moradia",
		"kreyol": "kay",
		"trial_type": "audio-keyboard-response",
		"trial_index": 236,
		"time_elapsed": 513623,
		"internal_node_id": "0.0-1.0-1.117"
	},
	{
		"rt": null,
		"stimulus": "+",
		"response": null,
		"trial_type": "html-keyboard-response",
		"trial_index": 237,
		"time_elapsed": 514137,
		"internal_node_id": "0.0-1.0-0.118"
	},
	{
		"rt": 2800,
		"stimulus": "../audio/teste-vocab--105.mp3",
		"response": "n",
		"portuguese": "cítrico",
		"kreyol": "sitrik",
		"trial_type": "audio-keyboard-response",
		"trial_index": 238,
		"time_elapsed": 516968,
		"internal_node_id": "0.0-1.0-1.118"
	},
	{
		"rt": null,
		"stimulus": "+",
		"response": null,
		"trial_type": "html-keyboard-response",
		"trial_index": 239,
		"time_elapsed": 517481,
		"internal_node_id": "0.0-1.0-0.119"
	},
	{
		"rt": 2571,
		"stimulus": "../audio/teste-vocab--46.mp3",
		"response": "s",
		"portuguese": "ombro",
		"kreyol": "zepòl",
		"trial_type": "audio-keyboard-response",
		"trial_index": 240,
		"time_elapsed": 520088,
		"internal_node_id": "0.0-1.0-1.119"
	},
	{
		"rt": null,
		"stimulus": "+",
		"response": null,
		"trial_type": "html-keyboard-response",
		"trial_index": 241,
		"time_elapsed": 520598,
		"internal_node_id": "0.0-1.0-0.120"
	},
	{
		"rt": 2251,
		"stimulus": "../audio/teste-vocab--115.mp3",
		"response": "n",
		"portuguese": "perpendicular",
		"kreyol": "pèpandikilè",
		"trial_type": "audio-keyboard-response",
		"trial_index": 242,
		"time_elapsed": 522888,
		"internal_node_id": "0.0-1.0-1.120"
	},
	{
		"rt": null,
		"stimulus": "+",
		"response": null,
		"trial_type": "html-keyboard-response",
		"trial_index": 243,
		"time_elapsed": 523401,
		"internal_node_id": "0.0-1.0-0.121"
	},
	{
		"rt": 1931,
		"stimulus": "../audio/teste-vocab--117.mp3",
		"response": "n",
		"portuguese": "córnea",
		"kreyol": "kòn",
		"trial_type": "audio-keyboard-response",
		"trial_index": 244,
		"time_elapsed": 525352,
		"internal_node_id": "0.0-1.0-1.121"
	},
	{
		"rt": null,
		"stimulus": "+",
		"response": null,
		"trial_type": "html-keyboard-response",
		"trial_index": 245,
		"time_elapsed": 525862,
		"internal_node_id": "0.0-1.0-0.122"
	},
	{
		"rt": 2581,
		"stimulus": "../audio/teste-vocab--52.mp3",
		"response": "s",
		"portuguese": "construção",
		"kreyol": "konstriksyon",
		"trial_type": "audio-keyboard-response",
		"trial_index": 246,
		"time_elapsed": 528488,
		"internal_node_id": "0.0-1.0-1.122"
	},
	{
		"rt": null,
		"stimulus": "+",
		"response": null,
		"trial_type": "html-keyboard-response",
		"trial_index": 247,
		"time_elapsed": 528997,
		"internal_node_id": "0.0-1.0-0.123"
	},
	{
		"rt": 2632,
		"stimulus": "../audio/teste-vocab--47.mp3",
		"response": "n",
		"portuguese": "envelope",
		"kreyol": "anvlope",
		"trial_type": "audio-keyboard-response",
		"trial_index": 248,
		"time_elapsed": 531688,
		"internal_node_id": "0.0-1.0-1.123"
	},
	{
		"rt": null,
		"stimulus": "+",
		"response": null,
		"trial_type": "html-keyboard-response",
		"trial_index": 249,
		"time_elapsed": 532189,
		"internal_node_id": "0.0-1.0-0.124"
	},
	{
		"rt": 2720,
		"stimulus": "../audio/teste-vocab--61.mp3",
		"response": "n",
		"portuguese": "iluminação",
		"kreyol": "iliminasyon",
		"trial_type": "audio-keyboard-response",
		"trial_index": 250,
		"time_elapsed": 534936,
		"internal_node_id": "0.0-1.0-1.124"
	},
	{
		"rt": null,
		"stimulus": "+",
		"response": null,
		"trial_type": "html-keyboard-response",
		"trial_index": 251,
		"time_elapsed": 535439,
		"internal_node_id": "0.0-1.0-0.125"
	},
	{
		"rt": 2560,
		"stimulus": "../audio/teste-vocab--06.mp3",
		"response": "s",
		"portuguese": "barco",
		"kreyol": "bato",
		"trial_type": "audio-keyboard-response",
		"trial_index": 252,
		"time_elapsed": 538039,
		"internal_node_id": "0.0-1.0-1.125"
	},
	{
		"rt": null,
		"stimulus": "+",
		"response": null,
		"trial_type": "html-keyboard-response",
		"trial_index": 253,
		"time_elapsed": 538554,
		"internal_node_id": "0.0-1.0-0.126"
	},
	{
		"rt": 2560,
		"stimulus": "../audio/teste-vocab--56.mp3",
		"response": "n",
		"portuguese": "agricultura",
		"kreyol": "agrikilti",
		"trial_type": "audio-keyboard-response",
		"trial_index": 254,
		"time_elapsed": 541160,
		"internal_node_id": "0.0-1.0-1.126"
	},
	{
		"rt": null,
		"stimulus": "+",
		"response": null,
		"trial_type": "html-keyboard-response",
		"trial_index": 255,
		"time_elapsed": 541673,
		"internal_node_id": "0.0-1.0-0.127"
	},
	{
		"rt": 2952,
		"stimulus": "../audio/teste-vocab--130.mp3",
		"response": "n",
		"portuguese": "gentil",
		"kreyol": "dou",
		"trial_type": "audio-keyboard-response",
		"trial_index": 256,
		"time_elapsed": 544648,
		"internal_node_id": "0.0-1.0-1.127"
	},
	{
		"rt": null,
		"stimulus": "+",
		"response": null,
		"trial_type": "html-keyboard-response",
		"trial_index": 257,
		"time_elapsed": 545161,
		"internal_node_id": "0.0-1.0-0.128"
	},
	{
		"rt": 3179,
		"stimulus": "../audio/teste-vocab--35.mp3",
		"response": "n",
		"portuguese": "líquido",
		"kreyol": "likid",
		"trial_type": "audio-keyboard-response",
		"trial_index": 258,
		"time_elapsed": 548376,
		"internal_node_id": "0.0-1.0-1.128"
	},
	{
		"rt": null,
		"stimulus": "+",
		"response": null,
		"trial_type": "html-keyboard-response",
		"trial_index": 259,
		"time_elapsed": 548890,
		"internal_node_id": "0.0-1.0-0.129"
	},
	{
		"rt": 2168,
		"stimulus": "../audio/teste-vocab--70.mp3",
		"response": "n",
		"portuguese": "funil",
		"kreyol": "antónwa",
		"trial_type": "audio-keyboard-response",
		"trial_index": 260,
		"time_elapsed": 551096,
		"internal_node_id": "0.0-1.0-1.129"
	}
]