[
	{
		"view_history": [
			{
				"page_index": 0,
				"viewing_time": 177782
			},
			{
				"page_index": 1,
				"viewing_time": 12984
			}
		],
		"rt": 190766,
		"trial_type": "instructions",
		"trial_index": 0,
		"time_elapsed": 190768,
		"internal_node_id": "0.0-0.0"
	},
	{
		"rt": null,
		"stimulus": "<span style= \"font-size:30px; font-family: monospace\">+</span>",
		"response": null,
		"trial_part": "fixation",
		"trial_type": "html-keyboard-response",
		"trial_index": 1,
		"time_elapsed": 191871,
		"internal_node_id": "0.0-1.0-0.0-0.0"
	},
	{
		"rt": 24133,
		"stimulus": "<span style=\"font-size:30px; font-family: monospace\">O</span>",
		"response": " ",
		"trial": "prac-sent",
		"word": "O",
		"trial_type": "html-keyboard-response",
		"trial_index": 2,
		"time_elapsed": 216256,
		"internal_node_id": "0.0-1.0-1.0"
	},
	{
		"rt": 9813,
		"stimulus": "<span style=\"font-size:30px; font-family: monospace\">dia</span>",
		"response": " ",
		"trial": "prac-sent",
		"word": "dia",
		"trial_type": "html-keyboard-response",
		"trial_index": 3,
		"time_elapsed": 226321,
		"internal_node_id": "0.0-1.0-1.1"
	},
	{
		"rt": 12628,
		"stimulus": "<span style=\"font-size:30px; font-family: monospace\">estará</span>",
		"response": " ",
		"trial": "prac-sent",
		"word": "estará",
		"trial_type": "html-keyboard-response",
		"trial_index": 4,
		"time_elapsed": 239201,
		"internal_node_id": "0.0-1.0-1.2"
	},
	{
		"rt": 128389,
		"stimulus": "<span style=\"font-size:30px; font-family: monospace\">cheio</span>",
		"response": " ",
		"trial": "prac-sent",
		"word": "cheio",
		"trial_type": "html-keyboard-response",
		"trial_index": 5,
		"time_elapsed": 367843,
		"internal_node_id": "0.0-1.0-1.3"
	},
	{
		"rt": 483,
		"stimulus": "<span style=\"font-size:30px; font-family: monospace\">de</span>",
		"response": " ",
		"trial": "prac-sent",
		"word": "de",
		"trial_type": "html-keyboard-response",
		"trial_index": 6,
		"time_elapsed": 368578,
		"internal_node_id": "0.0-1.0-1.4"
	},
	{
		"rt": 32117,
		"stimulus": "<span style=\"font-size:30px; font-family: monospace\">nuvens</span>",
		"response": " ",
		"trial": "prac-sent",
		"word": "nuvens",
		"trial_type": "html-keyboard-response",
		"trial_index": 7,
		"time_elapsed": 400946,
		"internal_node_id": "0.0-1.0-1.5"
	},
	{
		"rt": 46357,
		"stimulus": "<span style=\"font-size:30px; font-family: monospace\">hoje.</span>",
		"response": " ",
		"trial": "prac-sent",
		"word": "hoje.",
		"trial_type": "html-keyboard-response",
		"trial_index": 8,
		"time_elapsed": 447554,
		"internal_node_id": "0.0-1.0-1.6"
	},
	{
		"rt": null,
		"stimulus": "<span style= \"font-size:30px; font-family: monospace\">+</span>",
		"response": null,
		"trial_part": "fixation",
		"trial_type": "html-keyboard-response",
		"trial_index": 9,
		"time_elapsed": 448807,
		"internal_node_id": "0.0-1.0-0.7-0.7"
	},
	{
		"rt": 942,
		"stimulus": "<span style=\"font-size:30px; font-family: monospace\">A</span>",
		"response": " ",
		"trial": "prac-sent",
		"word": "A",
		"trial_type": "html-keyboard-response",
		"trial_index": 10,
		"time_elapsed": 450001,
		"internal_node_id": "0.0-1.0-1.7"
	},
	{
		"rt": 773,
		"stimulus": "<span style=\"font-size:30px; font-family: monospace\">caneca</span>",
		"response": " ",
		"trial": "prac-sent",
		"word": "caneca",
		"trial_type": "html-keyboard-response",
		"trial_index": 11,
		"time_elapsed": 451025,
		"internal_node_id": "0.0-1.0-1.8"
	},
	{
		"rt": 1205,
		"stimulus": "<span style=\"font-size:30px; font-family: monospace\">colorida</span>",
		"response": " ",
		"trial": "prac-sent",
		"word": "colorida",
		"trial_type": "html-keyboard-response",
		"trial_index": 12,
		"time_elapsed": 452481,
		"internal_node_id": "0.0-1.0-1.9"
	},
	{
		"rt": 25301,
		"stimulus": "<span style=\"font-size:30px; font-family: monospace\">caiu</span>",
		"response": " ",
		"trial": "prac-sent",
		"word": "caiu",
		"trial_type": "html-keyboard-response",
		"trial_index": 13,
		"time_elapsed": 478033,
		"internal_node_id": "0.0-1.0-1.10"
	},
	{
		"rt": 868,
		"stimulus": "<span style=\"font-size:30px; font-family: monospace\">da</span>",
		"response": " ",
		"trial": "prac-sent",
		"word": "da",
		"trial_type": "html-keyboard-response",
		"trial_index": 14,
		"time_elapsed": 479153,
		"internal_node_id": "0.0-1.0-1.11"
	},
	{
		"rt": 452,
		"stimulus": "<span style=\"font-size:30px; font-family: monospace\">mesa</span>",
		"response": " ",
		"trial": "prac-sent",
		"word": "mesa",
		"trial_type": "html-keyboard-response",
		"trial_index": 15,
		"time_elapsed": 479857,
		"internal_node_id": "0.0-1.0-1.12"
	},
	{
		"rt": 389,
		"stimulus": "<span style=\"font-size:30px; font-family: monospace\">de</span>",
		"response": " ",
		"trial": "prac-sent",
		"word": "de",
		"trial_type": "html-keyboard-response",
		"trial_index": 16,
		"time_elapsed": 480497,
		"internal_node_id": "0.0-1.0-1.13"
	},
	{
		"rt": 5572,
		"stimulus": "<span style=\"font-size:30px; font-family: monospace\">jantar.</span>",
		"response": " ",
		"trial": "prac-comp",
		"word": "jantar.",
		"trial_type": "html-keyboard-response",
		"trial_index": 17,
		"time_elapsed": 486321,
		"internal_node_id": "0.0-1.0-1.14"
	},
	{
		"rt": 18645,
		"stimulus": "<span style=\"font-size:30px; font-family: monospace\">A caneca permaneceu na mesa?</span>",
		"response": "s",
		"question": "A caneca permaneceu na mesa?",
		"answer": "não",
		"trial": "prac-comp",
		"trial_type": "html-keyboard-response",
		"trial_index": 18,
		"time_elapsed": 505217,
		"internal_node_id": "0.0-1.0-2.14-0.14",
		"accuracy": false
	},
	{
		"view_history": [
			{
				"page_index": 0,
				"viewing_time": 5731
			}
		],
		"rt": 5731,
		"trial_type": "instructions",
		"trial_index": 19,
		"time_elapsed": 511449,
		"internal_node_id": "0.0-2.0"
	},
	{
		"rt": null,
		"stimulus": "<span style= \"font-size:30px; font-family: monospace\">+</span>",
		"response": null,
		"trial_part": "fixation",
		"trial_type": "html-keyboard-response",
		"trial_index": 20,
		"time_elapsed": 512552,
		"internal_node_id": "0.0-3.0-0.0-0.0"
	},
	{
		"rt": 12910,
		"stimulus": "<span style=\"font-size:30px; font-family: monospace\">A</span>",
		"response": " ",
		"trial": "exp-sent",
		"word": "A",
		"trial_type": "html-keyboard-response",
		"trial_index": 21,
		"time_elapsed": 525714,
		"internal_node_id": "0.0-3.0-1.0"
	},
	{
		"rt": 3877,
		"stimulus": "<span style=\"font-size:30px; font-family: monospace\">motorista</span>",
		"response": " ",
		"trial": "exp-sent",
		"word": "motorista",
		"trial_type": "html-keyboard-response",
		"trial_index": 22,
		"time_elapsed": 529841,
		"internal_node_id": "0.0-3.0-1.1"
	},
	{
		"rt": 1860,
		"stimulus": "<span style=\"font-size:30px; font-family: monospace\">fez</span>",
		"response": " ",
		"trial": "exp-sent",
		"word": "fez",
		"trial_type": "html-keyboard-response",
		"trial_index": 23,
		"time_elapsed": 531953,
		"internal_node_id": "0.0-3.0-1.2"
	},
	{
		"rt": 3380,
		"stimulus": "<span style=\"font-size:30px; font-family: monospace\">o</span>",
		"response": " ",
		"trial": "exp-sent",
		"word": "o",
		"trial_type": "html-keyboard-response",
		"trial_index": 24,
		"time_elapsed": 535585,
		"internal_node_id": "0.0-3.0-1.3"
	},
	{
		"rt": 2548,
		"stimulus": "<span style=\"font-size:30px; font-family: monospace\">retorno</span>",
		"response": " ",
		"trial": "exp-sent",
		"word": "retorno",
		"trial_type": "html-keyboard-response",
		"trial_index": 25,
		"time_elapsed": 538385,
		"internal_node_id": "0.0-3.0-1.4"
	},
	{
		"rt": 1333,
		"stimulus": "<span style=\"font-size:30px; font-family: monospace\">com</span>",
		"response": " ",
		"trial": "exp-sent",
		"word": "com",
		"trial_type": "html-keyboard-response",
		"trial_index": 26,
		"time_elapsed": 539969,
		"internal_node_id": "0.0-3.0-1.5"
	},
	{
		"rt": 16245,
		"stimulus": "<span style=\"font-size:30px; font-family: monospace\">cuidado.</span>",
		"response": " ",
		"trial": "exp-sent",
		"word": "cuidado.",
		"trial_type": "html-keyboard-response",
		"trial_index": 27,
		"time_elapsed": 556466,
		"internal_node_id": "0.0-3.0-1.6"
	},
	{
		"rt": null,
		"stimulus": "<span style= \"font-size:30px; font-family: monospace\">+</span>",
		"response": null,
		"trial_part": "fixation",
		"trial_type": "html-keyboard-response",
		"trial_index": 28,
		"time_elapsed": 557718,
		"internal_node_id": "0.0-3.0-0.7-0.7"
	},
	{
		"rt": 3136,
		"stimulus": "<span style=\"font-size:30px; font-family: monospace\">Contos</span>",
		"response": " ",
		"trial": "exp-sent",
		"word": "Contos",
		"trial_type": "html-keyboard-response",
		"trial_index": 29,
		"time_elapsed": 561105,
		"internal_node_id": "0.0-3.0-1.7"
	},
	{
		"rt": 2565,
		"stimulus": "<span style=\"font-size:30px; font-family: monospace\">de</span>",
		"response": " ",
		"trial": "exp-sent",
		"word": "de",
		"trial_type": "html-keyboard-response",
		"trial_index": 30,
		"time_elapsed": 563921,
		"internal_node_id": "0.0-3.0-1.8"
	},
	{
		"rt": 3461,
		"stimulus": "<span style=\"font-size:30px; font-family: monospace\">ação</span>",
		"response": " ",
		"trial": "exp-sent",
		"word": "ação",
		"trial_type": "html-keyboard-response",
		"trial_index": 31,
		"time_elapsed": 567634,
		"internal_node_id": "0.0-3.0-1.9"
	},
	{
		"rt": 1669,
		"stimulus": "<span style=\"font-size:30px; font-family: monospace\">têm</span>",
		"response": " ",
		"trial": "exp-sent",
		"word": "têm",
		"trial_type": "html-keyboard-response",
		"trial_index": 32,
		"time_elapsed": 569554,
		"internal_node_id": "0.0-3.0-1.10"
	},
	{
		"rt": 6340,
		"stimulus": "<span style=\"font-size:30px; font-family: monospace\">chantagem</span>",
		"response": " ",
		"trial": "exp-sent",
		"word": "chantagem",
		"trial_type": "html-keyboard-response",
		"trial_index": 33,
		"time_elapsed": 576146,
		"internal_node_id": "0.0-3.0-1.11"
	},
	{
		"rt": 1461,
		"stimulus": "<span style=\"font-size:30px; font-family: monospace\">e</span>",
		"response": " ",
		"trial": "exp-sent",
		"word": "e",
		"trial_type": "html-keyboard-response",
		"trial_index": 34,
		"time_elapsed": 577858,
		"internal_node_id": "0.0-3.0-1.12"
	},
	{
		"rt": 6165,
		"stimulus": "<span style=\"font-size:30px; font-family: monospace\">muita</span>",
		"response": " ",
		"trial": "exp-sent",
		"word": "muita",
		"trial_type": "html-keyboard-response",
		"trial_index": 35,
		"time_elapsed": 584274,
		"internal_node_id": "0.0-3.0-1.13"
	},
	{
		"rt": 10404,
		"stimulus": "<span style=\"font-size:30px; font-family: monospace\">luta.</span>",
		"response": " ",
		"trial": "exp-sent",
		"word": "luta.",
		"trial_type": "html-keyboard-response",
		"trial_index": 36,
		"time_elapsed": 594930,
		"internal_node_id": "0.0-3.0-1.14"
	},
	{
		"rt": null,
		"stimulus": "<span style= \"font-size:30px; font-family: monospace\">+</span>",
		"response": null,
		"trial_part": "fixation",
		"trial_type": "html-keyboard-response",
		"trial_index": 37,
		"time_elapsed": 596181,
		"internal_node_id": "0.0-3.0-0.15-0.15"
	},
	{
		"rt": 273,
		"stimulus": "<span style=\"font-size:30px; font-family: monospace\">A</span>",
		"response": " ",
		"trial": "exp-sent",
		"word": "A",
		"trial_type": "html-keyboard-response",
		"trial_index": 38,
		"time_elapsed": 596705,
		"internal_node_id": "0.0-3.0-1.15"
	},
	{
		"rt": 5957,
		"stimulus": "<span style=\"font-size:30px; font-family: monospace\">bisavó</span>",
		"response": " ",
		"trial": "exp-sent",
		"word": "bisavó",
		"trial_type": "html-keyboard-response",
		"trial_index": 39,
		"time_elapsed": 602914,
		"internal_node_id": "0.0-3.0-1.16"
	},
	{
		"rt": 2148,
		"stimulus": "<span style=\"font-size:30px; font-family: monospace\">recebeu</span>",
		"response": " ",
		"trial": "exp-sent",
		"word": "recebeu",
		"trial_type": "html-keyboard-response",
		"trial_index": 40,
		"time_elapsed": 605314,
		"internal_node_id": "0.0-3.0-1.17"
	},
	{
		"rt": 629,
		"stimulus": "<span style=\"font-size:30px; font-family: monospace\">um</span>",
		"response": " ",
		"trial": "exp-sent",
		"word": "um",
		"trial_type": "html-keyboard-response",
		"trial_index": 41,
		"time_elapsed": 606193,
		"internal_node_id": "0.0-3.0-1.18"
	},
	{
		"rt": 805,
		"stimulus": "<span style=\"font-size:30px; font-family: monospace\">benefício</span>",
		"response": " ",
		"trial": "exp-sent",
		"word": "benefício",
		"trial_type": "html-keyboard-response",
		"trial_index": 42,
		"time_elapsed": 607250,
		"internal_node_id": "0.0-3.0-1.19"
	},
	{
		"rt": 660,
		"stimulus": "<span style=\"font-size:30px; font-family: monospace\">temporário</span>",
		"response": " ",
		"trial": "exp-sent",
		"word": "temporário",
		"trial_type": "html-keyboard-response",
		"trial_index": 43,
		"time_elapsed": 608161,
		"internal_node_id": "0.0-3.0-1.20"
	},
	{
		"rt": 549,
		"stimulus": "<span style=\"font-size:30px; font-family: monospace\">do</span>",
		"response": " ",
		"trial": "exp-sent",
		"word": "do",
		"trial_type": "html-keyboard-response",
		"trial_index": 44,
		"time_elapsed": 608962,
		"internal_node_id": "0.0-3.0-1.21"
	},
	{
		"rt": 1028,
		"stimulus": "<span style=\"font-size:30px; font-family: monospace\">governo.</span>",
		"response": " ",
		"trial": "exp-sent",
		"word": "governo.",
		"trial_type": "html-keyboard-response",
		"trial_index": 45,
		"time_elapsed": 610242,
		"internal_node_id": "0.0-3.0-1.22"
	},
	{
		"rt": null,
		"stimulus": "<span style= \"font-size:30px; font-family: monospace\">+</span>",
		"response": null,
		"trial_part": "fixation",
		"trial_type": "html-keyboard-response",
		"trial_index": 46,
		"time_elapsed": 611494,
		"internal_node_id": "0.0-3.0-0.23-0.23"
	},
	{
		"rt": 2160,
		"stimulus": "<span style=\"font-size:30px; font-family: monospace\">As</span>",
		"response": " ",
		"trial": "exp-sent",
		"word": "As",
		"trial_type": "html-keyboard-response",
		"trial_index": 47,
		"time_elapsed": 613906,
		"internal_node_id": "0.0-3.0-1.23"
	},
	{
		"rt": 1877,
		"stimulus": "<span style=\"font-size:30px; font-family: monospace\">crianças</span>",
		"response": " ",
		"trial": "exp-sent",
		"word": "crianças",
		"trial_type": "html-keyboard-response",
		"trial_index": 48,
		"time_elapsed": 616034,
		"internal_node_id": "0.0-3.0-1.24"
	},
	{
		"rt": 6244,
		"stimulus": "<span style=\"font-size:30px; font-family: monospace\">brincaram</span>",
		"response": " ",
		"trial": "exp-sent",
		"word": "brincaram",
		"trial_type": "html-keyboard-response",
		"trial_index": 49,
		"time_elapsed": 622530,
		"internal_node_id": "0.0-3.0-1.25"
	},
	{
		"rt": 1924,
		"stimulus": "<span style=\"font-size:30px; font-family: monospace\">no</span>",
		"response": " ",
		"trial": "exp-sent",
		"word": "no",
		"trial_type": "html-keyboard-response",
		"trial_index": 50,
		"time_elapsed": 624706,
		"internal_node_id": "0.0-3.0-1.26"
	},
	{
		"rt": 3588,
		"stimulus": "<span style=\"font-size:30px; font-family: monospace\">balanço</span>",
		"response": " ",
		"trial": "exp-sent",
		"word": "balanço",
		"trial_type": "html-keyboard-response",
		"trial_index": 51,
		"time_elapsed": 628546,
		"internal_node_id": "0.0-3.0-1.27"
	},
	{
		"rt": 1476,
		"stimulus": "<span style=\"font-size:30px; font-family: monospace\">a</span>",
		"response": " ",
		"trial": "exp-sent",
		"word": "a",
		"trial_type": "html-keyboard-response",
		"trial_index": 52,
		"time_elapsed": 630273,
		"internal_node_id": "0.0-3.0-1.28"
	},
	{
		"rt": 2276,
		"stimulus": "<span style=\"font-size:30px; font-family: monospace\">tarde</span>",
		"response": " ",
		"trial": "exp-sent",
		"word": "tarde",
		"trial_type": "html-keyboard-response",
		"trial_index": 53,
		"time_elapsed": 632801,
		"internal_node_id": "0.0-3.0-1.29"
	},
	{
		"rt": 2531,
		"stimulus": "<span style=\"font-size:30px; font-family: monospace\">toda.</span>",
		"response": " ",
		"trial": "exp-sent",
		"word": "toda.",
		"trial_type": "html-keyboard-response",
		"trial_index": 54,
		"time_elapsed": 635585,
		"internal_node_id": "0.0-3.0-1.30"
	},
	{
		"rt": null,
		"stimulus": "<span style= \"font-size:30px; font-family: monospace\">+</span>",
		"response": null,
		"trial_part": "fixation",
		"trial_type": "html-keyboard-response",
		"trial_index": 55,
		"time_elapsed": 636837,
		"internal_node_id": "0.0-3.0-0.31-0.31"
	},
	{
		"rt": 2241,
		"stimulus": "<span style=\"font-size:30px; font-family: monospace\">Ela</span>",
		"response": " ",
		"trial": "exp-sent",
		"word": "Ela",
		"trial_type": "html-keyboard-response",
		"trial_index": 56,
		"time_elapsed": 639330,
		"internal_node_id": "0.0-3.0-1.31"
	},
	{
		"rt": 1716,
		"stimulus": "<span style=\"font-size:30px; font-family: monospace\">gosta</span>",
		"response": " ",
		"trial": "exp-sent",
		"word": "gosta",
		"trial_type": "html-keyboard-response",
		"trial_index": 57,
		"time_elapsed": 641297,
		"internal_node_id": "0.0-3.0-1.32"
	},
	{
		"rt": 2293,
		"stimulus": "<span style=\"font-size:30px; font-family: monospace\">de</span>",
		"response": " ",
		"trial": "exp-sent",
		"word": "de",
		"trial_type": "html-keyboard-response",
		"trial_index": 58,
		"time_elapsed": 643841,
		"internal_node_id": "0.0-3.0-1.33"
	},
	{
		"rt": 4709,
		"stimulus": "<span style=\"font-size:30px; font-family: monospace\">comida</span>",
		"response": " ",
		"trial": "exp-sent",
		"word": "comida",
		"trial_type": "html-keyboard-response",
		"trial_index": 59,
		"time_elapsed": 648801,
		"internal_node_id": "0.0-3.0-1.34"
	},
	{
		"rt": 2085,
		"stimulus": "<span style=\"font-size:30px; font-family: monospace\">natural</span>",
		"response": " ",
		"trial": "exp-sent",
		"word": "natural",
		"trial_type": "html-keyboard-response",
		"trial_index": 60,
		"time_elapsed": 651137,
		"internal_node_id": "0.0-3.0-1.35"
	},
	{
		"rt": 1381,
		"stimulus": "<span style=\"font-size:30px; font-family: monospace\">no</span>",
		"response": " ",
		"trial": "exp-sent",
		"word": "no",
		"trial_type": "html-keyboard-response",
		"trial_index": 61,
		"time_elapsed": 652769,
		"internal_node_id": "0.0-3.0-1.36"
	},
	{
		"rt": 3748,
		"stimulus": "<span style=\"font-size:30px; font-family: monospace\">almoço.</span>",
		"response": " ",
		"trial": "comp",
		"word": "almoço.",
		"trial_type": "html-keyboard-response",
		"trial_index": 62,
		"time_elapsed": 656769,
		"internal_node_id": "0.0-3.0-1.37"
	},
	{
		"rt": 86662,
		"stimulus": "<span style=\"font-size:30px; font-family: monospace\">Ela gosta de comida natural no almoço?</span>",
		"response": "s",
		"question": "Ela gosta de comida natural no almoço?",
		"answer": "sim",
		"trial": "comp",
		"trial_type": "html-keyboard-response",
		"trial_index": 63,
		"time_elapsed": 743682,
		"internal_node_id": "0.0-3.0-2.37-0.37",
		"accuracy": false
	},
	{
		"rt": null,
		"stimulus": "<span style= \"font-size:30px; font-family: monospace\">+</span>",
		"response": null,
		"trial_part": "fixation",
		"trial_type": "html-keyboard-response",
		"trial_index": 64,
		"time_elapsed": 745197,
		"internal_node_id": "0.0-3.0-0.38-0.38"
	},
	{
		"rt": 28681,
		"stimulus": "<span style=\"font-size:30px; font-family: monospace\">Ele</span>",
		"response": " ",
		"trial": "exp-sent",
		"word": "Ele",
		"trial_type": "html-keyboard-response",
		"trial_index": 65,
		"time_elapsed": 774130,
		"internal_node_id": "0.0-3.0-1.38"
	},
	{
		"rt": 3332,
		"stimulus": "<span style=\"font-size:30px; font-family: monospace\">é</span>",
		"response": " ",
		"trial": "exp-sent",
		"word": "é",
		"trial_type": "html-keyboard-response",
		"trial_index": 66,
		"time_elapsed": 777713,
		"internal_node_id": "0.0-3.0-1.39"
	},
	{
		"rt": 4406,
		"stimulus": "<span style=\"font-size:30px; font-family: monospace\">um</span>",
		"response": " ",
		"trial": "exp-sent",
		"word": "um",
		"trial_type": "html-keyboard-response",
		"trial_index": 67,
		"time_elapsed": 782369,
		"internal_node_id": "0.0-3.0-1.40"
	},
	{
		"rt": 4837,
		"stimulus": "<span style=\"font-size:30px; font-family: monospace\">pai</span>",
		"response": " ",
		"trial": "exp-sent",
		"word": "pai",
		"trial_type": "html-keyboard-response",
		"trial_index": 68,
		"time_elapsed": 787457,
		"internal_node_id": "0.0-3.0-1.41"
	},
	{
		"rt": 4645,
		"stimulus": "<span style=\"font-size:30px; font-family: monospace\">ausente</span>",
		"response": " ",
		"trial": "exp-sent",
		"word": "ausente",
		"trial_type": "html-keyboard-response",
		"trial_index": 69,
		"time_elapsed": 792353,
		"internal_node_id": "0.0-3.0-1.42"
	},
	{
		"rt": 1157,
		"stimulus": "<span style=\"font-size:30px; font-family: monospace\">e</span>",
		"response": " ",
		"trial": "exp-sent",
		"word": "e",
		"trial_type": "html-keyboard-response",
		"trial_index": 70,
		"time_elapsed": 793761,
		"internal_node_id": "0.0-3.0-1.43"
	},
	{
		"rt": 5797,
		"stimulus": "<span style=\"font-size:30px; font-family: monospace\">muito</span>",
		"response": " ",
		"trial": "exp-sent",
		"word": "muito",
		"trial_type": "html-keyboard-response",
		"trial_index": 71,
		"time_elapsed": 799809,
		"internal_node_id": "0.0-3.0-1.44"
	},
	{
		"rt": 2773,
		"stimulus": "<span style=\"font-size:30px; font-family: monospace\">fofoqueiro.</span>",
		"response": " ",
		"trial": "exp-sent",
		"word": "fofoqueiro.",
		"trial_type": "html-keyboard-response",
		"trial_index": 72,
		"time_elapsed": 802834,
		"internal_node_id": "0.0-3.0-1.45"
	},
	{
		"rt": null,
		"stimulus": "<span style= \"font-size:30px; font-family: monospace\">+</span>",
		"response": null,
		"trial_part": "fixation",
		"trial_type": "html-keyboard-response",
		"trial_index": 73,
		"time_elapsed": 804085,
		"internal_node_id": "0.0-3.0-0.46-0.46"
	},
	{
		"rt": 1760,
		"stimulus": "<span style=\"font-size:30px; font-family: monospace\">O</span>",
		"response": " ",
		"trial": "exp-sent",
		"word": "O",
		"trial_type": "html-keyboard-response",
		"trial_index": 74,
		"time_elapsed": 806097,
		"internal_node_id": "0.0-3.0-1.46"
	},
	{
		"rt": 9621,
		"stimulus": "<span style=\"font-size:30px; font-family: monospace\">filho</span>",
		"response": " ",
		"trial": "exp-sent",
		"word": "filho",
		"trial_type": "html-keyboard-response",
		"trial_index": 75,
		"time_elapsed": 815969,
		"internal_node_id": "0.0-3.0-1.47"
	},
	{
		"rt": 2308,
		"stimulus": "<span style=\"font-size:30px; font-family: monospace\">lavou</span>",
		"response": " ",
		"trial": "exp-sent",
		"word": "lavou",
		"trial_type": "html-keyboard-response",
		"trial_index": 76,
		"time_elapsed": 818529,
		"internal_node_id": "0.0-3.0-1.48"
	},
	{
		"rt": 6181,
		"stimulus": "<span style=\"font-size:30px; font-family: monospace\">a</span>",
		"response": " ",
		"trial": "exp-sent",
		"word": "a",
		"trial_type": "html-keyboard-response",
		"trial_index": 77,
		"time_elapsed": 824961,
		"internal_node_id": "0.0-3.0-1.49"
	},
	{
		"rt": 2229,
		"stimulus": "<span style=\"font-size:30px; font-family: monospace\">roupa</span>",
		"response": " ",
		"trial": "exp-sent",
		"word": "roupa",
		"trial_type": "html-keyboard-response",
		"trial_index": 78,
		"time_elapsed": 827442,
		"internal_node_id": "0.0-3.0-1.50"
	},
	{
		"rt": 2852,
		"stimulus": "<span style=\"font-size:30px; font-family: monospace\">sem</span>",
		"response": " ",
		"trial": "exp-sent",
		"word": "sem",
		"trial_type": "html-keyboard-response",
		"trial_index": 79,
		"time_elapsed": 830545,
		"internal_node_id": "0.0-3.0-1.51"
	},
	{
		"rt": 16100,
		"stimulus": "<span style=\"font-size:30px; font-family: monospace\">nenhuma</span>",
		"response": " ",
		"trial": "exp-sent",
		"word": "nenhuma",
		"trial_type": "html-keyboard-response",
		"trial_index": 80,
		"time_elapsed": 846897,
		"internal_node_id": "0.0-3.0-1.52"
	},
	{
		"rt": 1717,
		"stimulus": "<span style=\"font-size:30px; font-family: monospace\">ajuda.</span>",
		"response": " ",
		"trial": "exp-sent",
		"word": "ajuda.",
		"trial_type": "html-keyboard-response",
		"trial_index": 81,
		"time_elapsed": 848865,
		"internal_node_id": "0.0-3.0-1.53"
	},
	{
		"rt": null,
		"stimulus": "<span style= \"font-size:30px; font-family: monospace\">+</span>",
		"response": null,
		"trial_part": "fixation",
		"trial_type": "html-keyboard-response",
		"trial_index": 82,
		"time_elapsed": 850121,
		"internal_node_id": "0.0-3.0-0.54-0.54"
	},
	{
		"rt": 1085,
		"stimulus": "<span style=\"font-size:30px; font-family: monospace\">O</span>",
		"response": " ",
		"trial": "exp-sent",
		"word": "O",
		"trial_type": "html-keyboard-response",
		"trial_index": 83,
		"time_elapsed": 851457,
		"internal_node_id": "0.0-3.0-1.54"
	},
	{
		"rt": 12085,
		"stimulus": "<span style=\"font-size:30px; font-family: monospace\">menino</span>",
		"response": " ",
		"trial": "exp-sent",
		"word": "menino",
		"trial_type": "html-keyboard-response",
		"trial_index": 84,
		"time_elapsed": 863793,
		"internal_node_id": "0.0-3.0-1.55"
	},
	{
		"rt": 1077,
		"stimulus": "<span style=\"font-size:30px; font-family: monospace\">quebrou</span>",
		"response": " ",
		"trial": "exp-sent",
		"word": "quebrou",
		"trial_type": "html-keyboard-response",
		"trial_index": 85,
		"time_elapsed": 865121,
		"internal_node_id": "0.0-3.0-1.56"
	},
	{
		"rt": 644,
		"stimulus": "<span style=\"font-size:30px; font-family: monospace\">a</span>",
		"response": " ",
		"trial": "exp-sent",
		"word": "a",
		"trial_type": "html-keyboard-response",
		"trial_index": 86,
		"time_elapsed": 866017,
		"internal_node_id": "0.0-3.0-1.57"
	},
	{
		"rt": 1412,
		"stimulus": "<span style=\"font-size:30px; font-family: monospace\">perna</span>",
		"response": " ",
		"trial": "exp-sent",
		"word": "perna",
		"trial_type": "html-keyboard-response",
		"trial_index": 87,
		"time_elapsed": 867681,
		"internal_node_id": "0.0-3.0-1.58"
	},
	{
		"rt": 1093,
		"stimulus": "<span style=\"font-size:30px; font-family: monospace\">nos</span>",
		"response": " ",
		"trial": "exp-sent",
		"word": "nos",
		"trial_type": "html-keyboard-response",
		"trial_index": 88,
		"time_elapsed": 869025,
		"internal_node_id": "0.0-3.0-1.59"
	},
	{
		"rt": 1764,
		"stimulus": "<span style=\"font-size:30px; font-family: monospace\">esportes.</span>",
		"response": " ",
		"trial": "exp-sent",
		"word": "esportes.",
		"trial_type": "html-keyboard-response",
		"trial_index": 89,
		"time_elapsed": 871041,
		"internal_node_id": "0.0-3.0-1.60"
	},
	{
		"rt": null,
		"stimulus": "<span style= \"font-size:30px; font-family: monospace\">+</span>",
		"response": null,
		"trial_part": "fixation",
		"trial_type": "html-keyboard-response",
		"trial_index": 90,
		"time_elapsed": 872307,
		"internal_node_id": "0.0-3.0-0.61-0.61"
	},
	{
		"rt": 1123,
		"stimulus": "<span style=\"font-size:30px; font-family: monospace\">Ela</span>",
		"response": " ",
		"trial": "exp-sent",
		"word": "Ela",
		"trial_type": "html-keyboard-response",
		"trial_index": 91,
		"time_elapsed": 873681,
		"internal_node_id": "0.0-3.0-1.61"
	},
	{
		"rt": 4212,
		"stimulus": "<span style=\"font-size:30px; font-family: monospace\">brincou</span>",
		"response": " ",
		"trial": "exp-sent",
		"word": "brincou",
		"trial_type": "html-keyboard-response",
		"trial_index": 92,
		"time_elapsed": 878144,
		"internal_node_id": "0.0-3.0-1.62"
	},
	{
		"rt": 1045,
		"stimulus": "<span style=\"font-size:30px; font-family: monospace\">com</span>",
		"response": " ",
		"trial": "exp-sent",
		"word": "com",
		"trial_type": "html-keyboard-response",
		"trial_index": 93,
		"time_elapsed": 879441,
		"internal_node_id": "0.0-3.0-1.63"
	},
	{
		"rt": 997,
		"stimulus": "<span style=\"font-size:30px; font-family: monospace\">uma</span>",
		"response": " ",
		"trial": "exp-sent",
		"word": "uma",
		"trial_type": "html-keyboard-response",
		"trial_index": 94,
		"time_elapsed": 880689,
		"internal_node_id": "0.0-3.0-1.64"
	},
	{
		"rt": 1444,
		"stimulus": "<span style=\"font-size:30px; font-family: monospace\">menina</span>",
		"response": " ",
		"trial": "exp-sent",
		"word": "menina",
		"trial_type": "html-keyboard-response",
		"trial_index": 95,
		"time_elapsed": 882385,
		"internal_node_id": "0.0-3.0-1.65"
	},
	{
		"rt": 965,
		"stimulus": "<span style=\"font-size:30px; font-family: monospace\">da</span>",
		"response": " ",
		"trial": "exp-sent",
		"word": "da",
		"trial_type": "html-keyboard-response",
		"trial_index": 96,
		"time_elapsed": 883601,
		"internal_node_id": "0.0-3.0-1.66"
	},
	{
		"rt": 1029,
		"stimulus": "<span style=\"font-size:30px; font-family: monospace\">turma.</span>",
		"response": " ",
		"trial": "exp-sent",
		"word": "turma.",
		"trial_type": "html-keyboard-response",
		"trial_index": 97,
		"time_elapsed": 884881,
		"internal_node_id": "0.0-3.0-1.67"
	},
	{
		"rt": null,
		"stimulus": "<span style= \"font-size:30px; font-family: monospace\">+</span>",
		"response": null,
		"trial_part": "fixation",
		"trial_type": "html-keyboard-response",
		"trial_index": 98,
		"time_elapsed": 886132,
		"internal_node_id": "0.0-3.0-0.68-0.68"
	},
	{
		"rt": 699,
		"stimulus": "<span style=\"font-size:30px; font-family: monospace\">Ele</span>",
		"response": " ",
		"trial": "exp-sent",
		"word": "Ele",
		"trial_type": "html-keyboard-response",
		"trial_index": 99,
		"time_elapsed": 887089,
		"internal_node_id": "0.0-3.0-1.68"
	},
	{
		"rt": 645,
		"stimulus": "<span style=\"font-size:30px; font-family: monospace\">esteve</span>",
		"response": " ",
		"trial": "exp-sent",
		"word": "esteve",
		"trial_type": "html-keyboard-response",
		"trial_index": 100,
		"time_elapsed": 887985,
		"internal_node_id": "0.0-3.0-1.69"
	},
	{
		"rt": 517,
		"stimulus": "<span style=\"font-size:30px; font-family: monospace\">no</span>",
		"response": " ",
		"trial": "exp-sent",
		"word": "no",
		"trial_type": "html-keyboard-response",
		"trial_index": 101,
		"time_elapsed": 888753,
		"internal_node_id": "0.0-3.0-1.70"
	},
	{
		"rt": 1588,
		"stimulus": "<span style=\"font-size:30px; font-family: monospace\">escritório</span>",
		"response": " ",
		"trial": "exp-sent",
		"word": "escritório",
		"trial_type": "html-keyboard-response",
		"trial_index": 102,
		"time_elapsed": 890593,
		"internal_node_id": "0.0-3.0-1.71"
	},
	{
		"rt": 564,
		"stimulus": "<span style=\"font-size:30px; font-family: monospace\">o</span>",
		"response": " ",
		"trial": "exp-sent",
		"word": "o",
		"trial_type": "html-keyboard-response",
		"trial_index": 103,
		"time_elapsed": 891409,
		"internal_node_id": "0.0-3.0-1.72"
	},
	{
		"rt": 789,
		"stimulus": "<span style=\"font-size:30px; font-family: monospace\">dia</span>",
		"response": " ",
		"trial": "exp-sent",
		"word": "dia",
		"trial_type": "html-keyboard-response",
		"trial_index": 104,
		"time_elapsed": 892449,
		"internal_node_id": "0.0-3.0-1.73"
	},
	{
		"rt": 1444,
		"stimulus": "<span style=\"font-size:30px; font-family: monospace\">inteiro.</span>",
		"response": " ",
		"trial": "comp",
		"word": "inteiro.",
		"trial_type": "html-keyboard-response",
		"trial_index": 105,
		"time_elapsed": 894145,
		"internal_node_id": "0.0-3.0-1.74"
	},
	{
		"rt": 19573,
		"stimulus": "<span style=\"font-size:30px; font-family: monospace\">Ele esteve no parque o dia inteiro?</span>",
		"response": "s",
		"question": "Ele esteve no parque o dia inteiro?",
		"answer": "não",
		"trial": "comp",
		"trial_type": "html-keyboard-response",
		"trial_index": 106,
		"time_elapsed": 913969,
		"internal_node_id": "0.0-3.0-2.74-0.74",
		"accuracy": false
	},
	{
		"rt": null,
		"stimulus": "<span style= \"font-size:30px; font-family: monospace\">+</span>",
		"response": null,
		"trial_part": "fixation",
		"trial_type": "html-keyboard-response",
		"trial_index": 107,
		"time_elapsed": 915471,
		"internal_node_id": "0.0-3.0-0.75-0.75"
	},
	{
		"rt": 3751,
		"stimulus": "<span style=\"font-size:30px; font-family: monospace\">No</span>",
		"response": " ",
		"trial": "exp-sent",
		"word": "No",
		"trial_type": "html-keyboard-response",
		"trial_index": 108,
		"time_elapsed": 919473,
		"internal_node_id": "0.0-3.0-1.75"
	},
	{
		"rt": 3508,
		"stimulus": "<span style=\"font-size:30px; font-family: monospace\">passado</span>",
		"response": " ",
		"trial": "exp-sent",
		"word": "passado",
		"trial_type": "html-keyboard-response",
		"trial_index": 109,
		"time_elapsed": 923232,
		"internal_node_id": "0.0-3.0-1.76"
	},
	{
		"rt": 2294,
		"stimulus": "<span style=\"font-size:30px; font-family: monospace\">houve</span>",
		"response": " ",
		"trial": "exp-sent",
		"word": "houve",
		"trial_type": "html-keyboard-response",
		"trial_index": 110,
		"time_elapsed": 925777,
		"internal_node_id": "0.0-3.0-1.77"
	},
	{
		"rt": 4251,
		"stimulus": "<span style=\"font-size:30px; font-family: monospace\">uma</span>",
		"response": " ",
		"trial": "exp-sent",
		"word": "uma",
		"trial_type": "html-keyboard-response",
		"trial_index": 111,
		"time_elapsed": 930289,
		"internal_node_id": "0.0-3.0-1.78"
	},
	{
		"rt": 2899,
		"stimulus": "<span style=\"font-size:30px; font-family: monospace\">rebelião</span>",
		"response": " ",
		"trial": "exp-sent",
		"word": "rebelião",
		"trial_type": "html-keyboard-response",
		"trial_index": 112,
		"time_elapsed": 933441,
		"internal_node_id": "0.0-3.0-1.79"
	},
	{
		"rt": 7012,
		"stimulus": "<span style=\"font-size:30px; font-family: monospace\">nesta</span>",
		"response": " ",
		"trial": "exp-sent",
		"word": "nesta",
		"trial_type": "html-keyboard-response",
		"trial_index": 113,
		"time_elapsed": 940705,
		"internal_node_id": "0.0-3.0-1.80"
	},
	{
		"rt": 4149,
		"stimulus": "<span style=\"font-size:30px; font-family: monospace\">cidade.</span>",
		"response": " ",
		"trial": "exp-sent",
		"word": "cidade.",
		"trial_type": "html-keyboard-response",
		"trial_index": 114,
		"time_elapsed": 945105,
		"internal_node_id": "0.0-3.0-1.81"
	},
	{
		"rt": null,
		"stimulus": "<span style= \"font-size:30px; font-family: monospace\">+</span>",
		"response": null,
		"trial_part": "fixation",
		"trial_type": "html-keyboard-response",
		"trial_index": 115,
		"time_elapsed": 946357,
		"internal_node_id": "0.0-3.0-0.82-0.82"
	},
	{
		"rt": 1600,
		"stimulus": "<span style=\"font-size:30px; font-family: monospace\">Ele</span>",
		"response": " ",
		"trial": "exp-sent",
		"word": "Ele",
		"trial_type": "html-keyboard-response",
		"trial_index": 116,
		"time_elapsed": 948208,
		"internal_node_id": "0.0-3.0-1.82"
	},
	{
		"rt": 1445,
		"stimulus": "<span style=\"font-size:30px; font-family: monospace\">fundou</span>",
		"response": " ",
		"trial": "exp-sent",
		"word": "fundou",
		"trial_type": "html-keyboard-response",
		"trial_index": 117,
		"time_elapsed": 949905,
		"internal_node_id": "0.0-3.0-1.83"
	},
	{
		"rt": 885,
		"stimulus": "<span style=\"font-size:30px; font-family: monospace\">uma</span>",
		"response": " ",
		"trial": "exp-sent",
		"word": "uma",
		"trial_type": "html-keyboard-response",
		"trial_index": 118,
		"time_elapsed": 951041,
		"internal_node_id": "0.0-3.0-1.84"
	},
	{
		"rt": 1701,
		"stimulus": "<span style=\"font-size:30px; font-family: monospace\">empresa</span>",
		"response": " ",
		"trial": "exp-sent",
		"word": "empresa",
		"trial_type": "html-keyboard-response",
		"trial_index": 119,
		"time_elapsed": 952993,
		"internal_node_id": "0.0-3.0-1.85"
	},
	{
		"rt": 2164,
		"stimulus": "<span style=\"font-size:30px; font-family: monospace\">privada</span>",
		"response": " ",
		"trial": "exp-sent",
		"word": "privada",
		"trial_type": "html-keyboard-response",
		"trial_index": 120,
		"time_elapsed": 955409,
		"internal_node_id": "0.0-3.0-1.86"
	},
	{
		"rt": 3701,
		"stimulus": "<span style=\"font-size:30px; font-family: monospace\">sem</span>",
		"response": " ",
		"trial": "exp-sent",
		"word": "sem",
		"trial_type": "html-keyboard-response",
		"trial_index": 121,
		"time_elapsed": 959361,
		"internal_node_id": "0.0-3.0-1.87"
	},
	{
		"rt": 2388,
		"stimulus": "<span style=\"font-size:30px; font-family: monospace\">ajuda.</span>",
		"response": " ",
		"trial": "exp-sent",
		"word": "ajuda.",
		"trial_type": "html-keyboard-response",
		"trial_index": 122,
		"time_elapsed": 962001,
		"internal_node_id": "0.0-3.0-1.88"
	},
	{
		"rt": null,
		"stimulus": "<span style= \"font-size:30px; font-family: monospace\">+</span>",
		"response": null,
		"trial_part": "fixation",
		"trial_type": "html-keyboard-response",
		"trial_index": 123,
		"time_elapsed": 963252,
		"internal_node_id": "0.0-3.0-0.89-0.89"
	},
	{
		"rt": 1152,
		"stimulus": "<span style=\"font-size:30px; font-family: monospace\">As</span>",
		"response": " ",
		"trial": "exp-sent",
		"word": "As",
		"trial_type": "html-keyboard-response",
		"trial_index": 124,
		"time_elapsed": 964656,
		"internal_node_id": "0.0-3.0-1.89"
	},
	{
		"rt": 1653,
		"stimulus": "<span style=\"font-size:30px; font-family: monospace\">meninas</span>",
		"response": " ",
		"trial": "exp-sent",
		"word": "meninas",
		"trial_type": "html-keyboard-response",
		"trial_index": 125,
		"time_elapsed": 966560,
		"internal_node_id": "0.0-3.0-1.90"
	},
	{
		"rt": 2182,
		"stimulus": "<span style=\"font-size:30px; font-family: monospace\">encontraram</span>",
		"response": " ",
		"trial": "exp-sent",
		"word": "encontraram",
		"trial_type": "html-keyboard-response",
		"trial_index": 126,
		"time_elapsed": 968993,
		"internal_node_id": "0.0-3.0-1.91"
	},
	{
		"rt": 1077,
		"stimulus": "<span style=\"font-size:30px; font-family: monospace\">um</span>",
		"response": " ",
		"trial": "exp-sent",
		"word": "um",
		"trial_type": "html-keyboard-response",
		"trial_index": 127,
		"time_elapsed": 970321,
		"internal_node_id": "0.0-3.0-1.92"
	},
	{
		"rt": 1332,
		"stimulus": "<span style=\"font-size:30px; font-family: monospace\">rato</span>",
		"response": " ",
		"trial": "exp-sent",
		"word": "rato",
		"trial_type": "html-keyboard-response",
		"trial_index": 128,
		"time_elapsed": 971904,
		"internal_node_id": "0.0-3.0-1.93"
	},
	{
		"rt": 1238,
		"stimulus": "<span style=\"font-size:30px; font-family: monospace\">dentro</span>",
		"response": " ",
		"trial": "exp-sent",
		"word": "dentro",
		"trial_type": "html-keyboard-response",
		"trial_index": 129,
		"time_elapsed": 973393,
		"internal_node_id": "0.0-3.0-1.94"
	},
	{
		"rt": 996,
		"stimulus": "<span style=\"font-size:30px; font-family: monospace\">de</span>",
		"response": " ",
		"trial": "exp-sent",
		"word": "de",
		"trial_type": "html-keyboard-response",
		"trial_index": 130,
		"time_elapsed": 974640,
		"internal_node_id": "0.0-3.0-1.95"
	},
	{
		"rt": 1269,
		"stimulus": "<span style=\"font-size:30px; font-family: monospace\">casa.</span>",
		"response": " ",
		"trial": "exp-sent",
		"word": "casa.",
		"trial_type": "html-keyboard-response",
		"trial_index": 131,
		"time_elapsed": 976161,
		"internal_node_id": "0.0-3.0-1.96"
	},
	{
		"rt": null,
		"stimulus": "<span style= \"font-size:30px; font-family: monospace\">+</span>",
		"response": null,
		"trial_part": "fixation",
		"trial_type": "html-keyboard-response",
		"trial_index": 132,
		"time_elapsed": 977413,
		"internal_node_id": "0.0-3.0-0.97-0.97"
	},
	{
		"rt": 2032,
		"stimulus": "<span style=\"font-size:30px; font-family: monospace\">O</span>",
		"response": " ",
		"trial": "exp-sent",
		"word": "O",
		"trial_type": "html-keyboard-response",
		"trial_index": 133,
		"time_elapsed": 979696,
		"internal_node_id": "0.0-3.0-1.97"
	},
	{
		"rt": 1653,
		"stimulus": "<span style=\"font-size:30px; font-family: monospace\">texto</span>",
		"response": " ",
		"trial": "exp-sent",
		"word": "texto",
		"trial_type": "html-keyboard-response",
		"trial_index": 134,
		"time_elapsed": 981600,
		"internal_node_id": "0.0-3.0-1.98"
	},
	{
		"rt": 1316,
		"stimulus": "<span style=\"font-size:30px; font-family: monospace\">tinha</span>",
		"response": " ",
		"trial": "exp-sent",
		"word": "tinha",
		"trial_type": "html-keyboard-response",
		"trial_index": 135,
		"time_elapsed": 983168,
		"internal_node_id": "0.0-3.0-1.99"
	},
	{
		"rt": 2629,
		"stimulus": "<span style=\"font-size:30px; font-family: monospace\">ideias</span>",
		"response": " ",
		"trial": "exp-sent",
		"word": "ideias",
		"trial_type": "html-keyboard-response",
		"trial_index": 136,
		"time_elapsed": 986049,
		"internal_node_id": "0.0-3.0-1.100"
	},
	{
		"rt": 4389,
		"stimulus": "<span style=\"font-size:30px; font-family: monospace\">vagas</span>",
		"response": " ",
		"trial": "exp-sent",
		"word": "vagas",
		"trial_type": "html-keyboard-response",
		"trial_index": 137,
		"time_elapsed": 990688,
		"internal_node_id": "0.0-3.0-1.101"
	},
	{
		"rt": 1156,
		"stimulus": "<span style=\"font-size:30px; font-family: monospace\">e</span>",
		"response": " ",
		"trial": "exp-sent",
		"word": "e",
		"trial_type": "html-keyboard-response",
		"trial_index": 138,
		"time_elapsed": 992096,
		"internal_node_id": "0.0-3.0-1.102"
	},
	{
		"rt": 3733,
		"stimulus": "<span style=\"font-size:30px; font-family: monospace\">confusas.</span>",
		"response": " ",
		"trial": "exp-sent",
		"word": "confusas.",
		"trial_type": "html-keyboard-response",
		"trial_index": 139,
		"time_elapsed": 996081,
		"internal_node_id": "0.0-3.0-1.103"
	},
	{
		"rt": null,
		"stimulus": "<span style= \"font-size:30px; font-family: monospace\">+</span>",
		"response": null,
		"trial_part": "fixation",
		"trial_type": "html-keyboard-response",
		"trial_index": 140,
		"time_elapsed": 997333,
		"internal_node_id": "0.0-3.0-0.104-0.104"
	},
	{
		"rt": 1456,
		"stimulus": "<span style=\"font-size:30px; font-family: monospace\">As</span>",
		"response": " ",
		"trial": "exp-sent",
		"word": "As",
		"trial_type": "html-keyboard-response",
		"trial_index": 141,
		"time_elapsed": 999040,
		"internal_node_id": "0.0-3.0-1.104"
	},
	{
		"rt": 3685,
		"stimulus": "<span style=\"font-size:30px; font-family: monospace\">crianças</span>",
		"response": " ",
		"trial": "exp-sent",
		"word": "crianças",
		"trial_type": "html-keyboard-response",
		"trial_index": 142,
		"time_elapsed": 1002976,
		"internal_node_id": "0.0-3.0-1.105"
	},
	{
		"rt": 3830,
		"stimulus": "<span style=\"font-size:30px; font-family: monospace\">viram</span>",
		"response": " ",
		"trial": "exp-sent",
		"word": "viram",
		"trial_type": "html-keyboard-response",
		"trial_index": 143,
		"time_elapsed": 1007057,
		"internal_node_id": "0.0-3.0-1.106"
	},
	{
		"rt": 868,
		"stimulus": "<span style=\"font-size:30px; font-family: monospace\">a</span>",
		"response": " ",
		"trial": "exp-sent",
		"word": "a",
		"trial_type": "html-keyboard-response",
		"trial_index": 144,
		"time_elapsed": 1008176,
		"internal_node_id": "0.0-3.0-1.107"
	},
	{
		"rt": 2869,
		"stimulus": "<span style=\"font-size:30px; font-family: monospace\">acrobata</span>",
		"response": " ",
		"trial": "exp-sent",
		"word": "acrobata",
		"trial_type": "html-keyboard-response",
		"trial_index": 145,
		"time_elapsed": 1011296,
		"internal_node_id": "0.0-3.0-1.108"
	},
	{
		"rt": 2292,
		"stimulus": "<span style=\"font-size:30px; font-family: monospace\">talentosa</span>",
		"response": " ",
		"trial": "exp-sent",
		"word": "talentosa",
		"trial_type": "html-keyboard-response",
		"trial_index": 146,
		"time_elapsed": 1013840,
		"internal_node_id": "0.0-3.0-1.109"
	},
	{
		"rt": 2037,
		"stimulus": "<span style=\"font-size:30px; font-family: monospace\">no</span>",
		"response": " ",
		"trial": "exp-sent",
		"word": "no",
		"trial_type": "html-keyboard-response",
		"trial_index": 147,
		"time_elapsed": 1016128,
		"internal_node_id": "0.0-3.0-1.110"
	},
	{
		"rt": 2341,
		"stimulus": "<span style=\"font-size:30px; font-family: monospace\">circo.</span>",
		"response": " ",
		"trial": "comp",
		"word": "circo.",
		"trial_type": "html-keyboard-response",
		"trial_index": 148,
		"time_elapsed": 1018720,
		"internal_node_id": "0.0-3.0-1.111"
	},
	{
		"rt": 129494,
		"stimulus": "<span style=\"font-size:30px; font-family: monospace\">As crianças viram o palhaço no circo?</span>",
		"response": "s",
		"question": "As crianças viram o palhaço no circo?",
		"answer": "não",
		"trial": "comp",
		"trial_type": "html-keyboard-response",
		"trial_index": 149,
		"time_elapsed": 1148465,
		"internal_node_id": "0.0-3.0-2.111-0.111",
		"accuracy": false
	},
	{
		"rt": null,
		"stimulus": "<span style= \"font-size:30px; font-family: monospace\">+</span>",
		"response": null,
		"trial_part": "fixation",
		"trial_type": "html-keyboard-response",
		"trial_index": 150,
		"time_elapsed": 1149968,
		"internal_node_id": "0.0-3.0-0.112-0.112"
	},
	{
		"rt": 5429,
		"stimulus": "<span style=\"font-size:30px; font-family: monospace\">Eu</span>",
		"response": " ",
		"trial": "exp-sent",
		"word": "Eu",
		"trial_type": "html-keyboard-response",
		"trial_index": 151,
		"time_elapsed": 1155648,
		"internal_node_id": "0.0-3.0-1.112"
	},
	{
		"rt": 2613,
		"stimulus": "<span style=\"font-size:30px; font-family: monospace\">gosto</span>",
		"response": " ",
		"trial": "exp-sent",
		"word": "gosto",
		"trial_type": "html-keyboard-response",
		"trial_index": 152,
		"time_elapsed": 1158512,
		"internal_node_id": "0.0-3.0-1.113"
	},
	{
		"rt": 1236,
		"stimulus": "<span style=\"font-size:30px; font-family: monospace\">de</span>",
		"response": " ",
		"trial": "exp-sent",
		"word": "de",
		"trial_type": "html-keyboard-response",
		"trial_index": 153,
		"time_elapsed": 1160000,
		"internal_node_id": "0.0-3.0-1.114"
	},
	{
		"rt": 1204,
		"stimulus": "<span style=\"font-size:30px; font-family: monospace\">molho</span>",
		"response": " ",
		"trial": "exp-sent",
		"word": "molho",
		"trial_type": "html-keyboard-response",
		"trial_index": 154,
		"time_elapsed": 1161456,
		"internal_node_id": "0.0-3.0-1.115"
	},
	{
		"rt": 1236,
		"stimulus": "<span style=\"font-size:30px; font-family: monospace\">picante</span>",
		"response": " ",
		"trial": "exp-sent",
		"word": "picante",
		"trial_type": "html-keyboard-response",
		"trial_index": 155,
		"time_elapsed": 1162944,
		"internal_node_id": "0.0-3.0-1.116"
	},
	{
		"rt": 724,
		"stimulus": "<span style=\"font-size:30px; font-family: monospace\">nas</span>",
		"response": " ",
		"trial": "exp-sent",
		"word": "nas",
		"trial_type": "html-keyboard-response",
		"trial_index": 156,
		"time_elapsed": 1163920,
		"internal_node_id": "0.0-3.0-1.117"
	},
	{
		"rt": 3092,
		"stimulus": "<span style=\"font-size:30px; font-family: monospace\">batatas.</span>",
		"response": " ",
		"trial": "exp-sent",
		"word": "batatas.",
		"trial_type": "html-keyboard-response",
		"trial_index": 157,
		"time_elapsed": 1167264,
		"internal_node_id": "0.0-3.0-1.118"
	},
	{
		"rt": null,
		"stimulus": "<span style= \"font-size:30px; font-family: monospace\">+</span>",
		"response": null,
		"trial_part": "fixation",
		"trial_type": "html-keyboard-response",
		"trial_index": 158,
		"time_elapsed": 1168516,
		"internal_node_id": "0.0-3.0-0.119-0.119"
	},
	{
		"rt": 3393,
		"stimulus": "<span style=\"font-size:30px; font-family: monospace\">As</span>",
		"response": " ",
		"trial": "exp-sent",
		"word": "As",
		"trial_type": "html-keyboard-response",
		"trial_index": 159,
		"time_elapsed": 1172160,
		"internal_node_id": "0.0-3.0-1.119"
	},
	{
		"rt": 1680,
		"stimulus": "<span style=\"font-size:30px; font-family: monospace\">pessoas</span>",
		"response": " ",
		"trial": "exp-sent",
		"word": "pessoas",
		"trial_type": "html-keyboard-response",
		"trial_index": 160,
		"time_elapsed": 1174096,
		"internal_node_id": "0.0-3.0-1.120"
	},
	{
		"rt": 964,
		"stimulus": "<span style=\"font-size:30px; font-family: monospace\">têm</span>",
		"response": " ",
		"trial": "exp-sent",
		"word": "têm",
		"trial_type": "html-keyboard-response",
		"trial_index": 161,
		"time_elapsed": 1175312,
		"internal_node_id": "0.0-3.0-1.121"
	},
	{
		"rt": 789,
		"stimulus": "<span style=\"font-size:30px; font-family: monospace\">sua</span>",
		"response": " ",
		"trial": "exp-sent",
		"word": "sua",
		"trial_type": "html-keyboard-response",
		"trial_index": 162,
		"time_elapsed": 1176352,
		"internal_node_id": "0.0-3.0-1.122"
	},
	{
		"rt": 1509,
		"stimulus": "<span style=\"font-size:30px; font-family: monospace\">liberdade</span>",
		"response": " ",
		"trial": "exp-sent",
		"word": "liberdade",
		"trial_type": "html-keyboard-response",
		"trial_index": 163,
		"time_elapsed": 1178112,
		"internal_node_id": "0.0-3.0-1.123"
	},
	{
		"rt": 1652,
		"stimulus": "<span style=\"font-size:30px; font-family: monospace\">até</span>",
		"response": " ",
		"trial": "exp-sent",
		"word": "até",
		"trial_type": "html-keyboard-response",
		"trial_index": 164,
		"time_elapsed": 1180015,
		"internal_node_id": "0.0-3.0-1.124"
	},
	{
		"rt": 1542,
		"stimulus": "<span style=\"font-size:30px; font-family: monospace\">certo</span>",
		"response": " ",
		"trial": "exp-sent",
		"word": "certo",
		"trial_type": "html-keyboard-response",
		"trial_index": 165,
		"time_elapsed": 1181808,
		"internal_node_id": "0.0-3.0-1.125"
	},
	{
		"rt": 3525,
		"stimulus": "<span style=\"font-size:30px; font-family: monospace\">ponto.</span>",
		"response": " ",
		"trial": "exp-sent",
		"word": "ponto.",
		"trial_type": "html-keyboard-response",
		"trial_index": 166,
		"time_elapsed": 1185584,
		"internal_node_id": "0.0-3.0-1.126"
	},
	{
		"rt": null,
		"stimulus": "<span style= \"font-size:30px; font-family: monospace\">+</span>",
		"response": null,
		"trial_part": "fixation",
		"trial_type": "html-keyboard-response",
		"trial_index": 167,
		"time_elapsed": 1186836,
		"internal_node_id": "0.0-3.0-0.127-0.127"
	},
	{
		"rt": 688,
		"stimulus": "<span style=\"font-size:30px; font-family: monospace\">A</span>",
		"response": " ",
		"trial": "exp-sent",
		"word": "A",
		"trial_type": "html-keyboard-response",
		"trial_index": 168,
		"time_elapsed": 1187776,
		"internal_node_id": "0.0-3.0-1.127"
	},
	{
		"rt": 1045,
		"stimulus": "<span style=\"font-size:30px; font-family: monospace\">empresa</span>",
		"response": " ",
		"trial": "exp-sent",
		"word": "empresa",
		"trial_type": "html-keyboard-response",
		"trial_index": 169,
		"time_elapsed": 1189072,
		"internal_node_id": "0.0-3.0-1.128"
	},
	{
		"rt": 1620,
		"stimulus": "<span style=\"font-size:30px; font-family: monospace\">enviou</span>",
		"response": " ",
		"trial": "exp-sent",
		"word": "enviou",
		"trial_type": "html-keyboard-response",
		"trial_index": 170,
		"time_elapsed": 1190944,
		"internal_node_id": "0.0-3.0-1.129"
	},
	{
		"rt": 997,
		"stimulus": "<span style=\"font-size:30px; font-family: monospace\">o</span>",
		"response": " ",
		"trial": "exp-sent",
		"word": "o",
		"trial_type": "html-keyboard-response",
		"trial_index": 171,
		"time_elapsed": 1192192,
		"internal_node_id": "0.0-3.0-1.130"
	},
	{
		"rt": 1413,
		"stimulus": "<span style=\"font-size:30px; font-family: monospace\">aviso</span>",
		"response": " ",
		"trial": "exp-sent",
		"word": "aviso",
		"trial_type": "html-keyboard-response",
		"trial_index": 172,
		"time_elapsed": 1193855,
		"internal_node_id": "0.0-3.0-1.131"
	},
	{
		"rt": 1302,
		"stimulus": "<span style=\"font-size:30px; font-family: monospace\">hoje</span>",
		"response": " ",
		"trial": "exp-sent",
		"word": "hoje",
		"trial_type": "html-keyboard-response",
		"trial_index": 173,
		"time_elapsed": 1195408,
		"internal_node_id": "0.0-3.0-1.132"
	},
	{
		"rt": 1653,
		"stimulus": "<span style=\"font-size:30px; font-family: monospace\">de</span>",
		"response": " ",
		"trial": "exp-sent",
		"word": "de",
		"trial_type": "html-keyboard-response",
		"trial_index": 174,
		"time_elapsed": 1197312,
		"internal_node_id": "0.0-3.0-1.133"
	},
	{
		"rt": 97445,
		"stimulus": "<span style=\"font-size:30px; font-family: monospace\">tarde.</span>",
		"response": " ",
		"trial": "exp-sent",
		"word": "tarde.",
		"trial_type": "html-keyboard-response",
		"trial_index": 175,
		"time_elapsed": 1295007,
		"internal_node_id": "0.0-3.0-1.134"
	},
	{
		"rt": null,
		"stimulus": "<span style= \"font-size:30px; font-family: monospace\">+</span>",
		"response": null,
		"trial_part": "fixation",
		"trial_type": "html-keyboard-response",
		"trial_index": 176,
		"time_elapsed": 1296259,
		"internal_node_id": "0.0-3.0-0.135-0.135"
	},
	{
		"rt": 6177,
		"stimulus": "<span style=\"font-size:30px; font-family: monospace\">A</span>",
		"response": " ",
		"trial": "exp-sent",
		"word": "A",
		"trial_type": "html-keyboard-response",
		"trial_index": 177,
		"time_elapsed": 1302687,
		"internal_node_id": "0.0-3.0-1.135"
	},
	{
		"rt": 1573,
		"stimulus": "<span style=\"font-size:30px; font-family: monospace\">loja</span>",
		"response": " ",
		"trial": "exp-sent",
		"word": "loja",
		"trial_type": "html-keyboard-response",
		"trial_index": 178,
		"time_elapsed": 1304511,
		"internal_node_id": "0.0-3.0-1.136"
	},
	{
		"rt": 996,
		"stimulus": "<span style=\"font-size:30px; font-family: monospace\">vende</span>",
		"response": " ",
		"trial": "exp-sent",
		"word": "vende",
		"trial_type": "html-keyboard-response",
		"trial_index": 179,
		"time_elapsed": 1305758,
		"internal_node_id": "0.0-3.0-1.137"
	},
	{
		"rt": 1157,
		"stimulus": "<span style=\"font-size:30px; font-family: monospace\">tanto</span>",
		"response": " ",
		"trial": "exp-sent",
		"word": "tanto",
		"trial_type": "html-keyboard-response",
		"trial_index": 180,
		"time_elapsed": 1307167,
		"internal_node_id": "0.0-3.0-1.138"
	},
	{
		"rt": 1301,
		"stimulus": "<span style=\"font-size:30px; font-family: monospace\">frituras</span>",
		"response": " ",
		"trial": "exp-sent",
		"word": "frituras",
		"trial_type": "html-keyboard-response",
		"trial_index": 181,
		"time_elapsed": 1308719,
		"internal_node_id": "0.0-3.0-1.139"
	},
	{
		"rt": 1093,
		"stimulus": "<span style=\"font-size:30px; font-family: monospace\">quanto</span>",
		"response": " ",
		"trial": "exp-sent",
		"word": "quanto",
		"trial_type": "html-keyboard-response",
		"trial_index": 182,
		"time_elapsed": 1310063,
		"internal_node_id": "0.0-3.0-1.140"
	},
	{
		"rt": 1172,
		"stimulus": "<span style=\"font-size:30px; font-family: monospace\">comidas</span>",
		"response": " ",
		"trial": "exp-sent",
		"word": "comidas",
		"trial_type": "html-keyboard-response",
		"trial_index": 183,
		"time_elapsed": 1311487,
		"internal_node_id": "0.0-3.0-1.141"
	},
	{
		"rt": 1828,
		"stimulus": "<span style=\"font-size:30px; font-family: monospace\">leves.</span>",
		"response": " ",
		"trial": "exp-sent",
		"word": "leves.",
		"trial_type": "html-keyboard-response",
		"trial_index": 184,
		"time_elapsed": 1313567,
		"internal_node_id": "0.0-3.0-1.142"
	},
	{
		"rt": null,
		"stimulus": "<span style= \"font-size:30px; font-family: monospace\">+</span>",
		"response": null,
		"trial_part": "fixation",
		"trial_type": "html-keyboard-response",
		"trial_index": 185,
		"time_elapsed": 1314819,
		"internal_node_id": "0.0-3.0-0.143-0.143"
	},
	{
		"rt": 3665,
		"stimulus": "<span style=\"font-size:30px; font-family: monospace\">As</span>",
		"response": " ",
		"trial": "exp-sent",
		"word": "As",
		"trial_type": "html-keyboard-response",
		"trial_index": 186,
		"time_elapsed": 1318735,
		"internal_node_id": "0.0-3.0-1.143"
	},
	{
		"rt": 1860,
		"stimulus": "<span style=\"font-size:30px; font-family: monospace\">cadeiras</span>",
		"response": " ",
		"trial": "exp-sent",
		"word": "cadeiras",
		"trial_type": "html-keyboard-response",
		"trial_index": 187,
		"time_elapsed": 1320847,
		"internal_node_id": "0.0-3.0-1.144"
	},
	{
		"rt": 1381,
		"stimulus": "<span style=\"font-size:30px; font-family: monospace\">azuis</span>",
		"response": " ",
		"trial": "exp-sent",
		"word": "azuis",
		"trial_type": "html-keyboard-response",
		"trial_index": 188,
		"time_elapsed": 1322479,
		"internal_node_id": "0.0-3.0-1.145"
	},
	{
		"rt": 1124,
		"stimulus": "<span style=\"font-size:30px; font-family: monospace\">da</span>",
		"response": " ",
		"trial": "exp-sent",
		"word": "da",
		"trial_type": "html-keyboard-response",
		"trial_index": 189,
		"time_elapsed": 1323855,
		"internal_node_id": "0.0-3.0-1.146"
	},
	{
		"rt": 948,
		"stimulus": "<span style=\"font-size:30px; font-family: monospace\">sala</span>",
		"response": " ",
		"trial": "exp-sent",
		"word": "sala",
		"trial_type": "html-keyboard-response",
		"trial_index": 190,
		"time_elapsed": 1325055,
		"internal_node_id": "0.0-3.0-1.147"
	},
	{
		"rt": 1124,
		"stimulus": "<span style=\"font-size:30px; font-family: monospace\">eram</span>",
		"response": " ",
		"trial": "exp-sent",
		"word": "eram",
		"trial_type": "html-keyboard-response",
		"trial_index": 191,
		"time_elapsed": 1326431,
		"internal_node_id": "0.0-3.0-1.148"
	},
	{
		"rt": 1045,
		"stimulus": "<span style=\"font-size:30px; font-family: monospace\">da</span>",
		"response": " ",
		"trial": "exp-sent",
		"word": "da",
		"trial_type": "html-keyboard-response",
		"trial_index": 192,
		"time_elapsed": 1327727,
		"internal_node_id": "0.0-3.0-1.149"
	},
	{
		"rt": 1141,
		"stimulus": "<span style=\"font-size:30px; font-family: monospace\">minha</span>",
		"response": " ",
		"trial": "exp-sent",
		"word": "minha",
		"trial_type": "html-keyboard-response",
		"trial_index": 193,
		"time_elapsed": 1329119,
		"internal_node_id": "0.0-3.0-1.150"
	},
	{
		"rt": 9028,
		"stimulus": "<span style=\"font-size:30px; font-family: monospace\">vó.</span>",
		"response": " ",
		"trial": "comp",
		"word": "vó.",
		"trial_type": "html-keyboard-response",
		"trial_index": 194,
		"time_elapsed": 1338399,
		"internal_node_id": "0.0-3.0-1.151"
	},
	{
		"rt": 32869,
		"stimulus": "<span style=\"font-size:30px; font-family: monospace\">As cadeiras eram da avó?</span>",
		"response": "n",
		"question": "As cadeiras eram da avó?",
		"answer": "sim",
		"trial": "comp",
		"trial_type": "html-keyboard-response",
		"trial_index": 195,
		"time_elapsed": 1371519,
		"internal_node_id": "0.0-3.0-2.151-0.151",
		"accuracy": false
	},
	{
		"rt": null,
		"stimulus": "<span style= \"font-size:30px; font-family: monospace\">+</span>",
		"response": null,
		"trial_part": "fixation",
		"trial_type": "html-keyboard-response",
		"trial_index": 196,
		"time_elapsed": 1373021,
		"internal_node_id": "0.0-3.0-0.152-0.152"
	},
	{
		"rt": 2023,
		"stimulus": "<span style=\"font-size:30px; font-family: monospace\">O</span>",
		"response": " ",
		"trial": "exp-sent",
		"word": "O",
		"trial_type": "html-keyboard-response",
		"trial_index": 197,
		"time_elapsed": 1375295,
		"internal_node_id": "0.0-3.0-1.152"
	},
	{
		"rt": 1861,
		"stimulus": "<span style=\"font-size:30px; font-family: monospace\">moço</span>",
		"response": " ",
		"trial": "exp-sent",
		"word": "moço",
		"trial_type": "html-keyboard-response",
		"trial_index": 198,
		"time_elapsed": 1377407,
		"internal_node_id": "0.0-3.0-1.153"
	},
	{
		"rt": 1605,
		"stimulus": "<span style=\"font-size:30px; font-family: monospace\">usou</span>",
		"response": " ",
		"trial": "exp-sent",
		"word": "usou",
		"trial_type": "html-keyboard-response",
		"trial_index": 199,
		"time_elapsed": 1379263,
		"internal_node_id": "0.0-3.0-1.154"
	},
	{
		"rt": 2404,
		"stimulus": "<span style=\"font-size:30px; font-family: monospace\">várias</span>",
		"response": " ",
		"trial": "exp-sent",
		"word": "várias",
		"trial_type": "html-keyboard-response",
		"trial_index": 200,
		"time_elapsed": 1381919,
		"internal_node_id": "0.0-3.0-1.155"
	},
	{
		"rt": 1060,
		"stimulus": "<span style=\"font-size:30px; font-family: monospace\">velas</span>",
		"response": " ",
		"trial": "exp-sent",
		"word": "velas",
		"trial_type": "html-keyboard-response",
		"trial_index": 201,
		"time_elapsed": 1383230,
		"internal_node_id": "0.0-3.0-1.156"
	},
	{
		"rt": 1030,
		"stimulus": "<span style=\"font-size:30px; font-family: monospace\">no</span>",
		"response": " ",
		"trial": "exp-sent",
		"word": "no",
		"trial_type": "html-keyboard-response",
		"trial_index": 202,
		"time_elapsed": 1384511,
		"internal_node_id": "0.0-3.0-1.157"
	},
	{
		"rt": 1572,
		"stimulus": "<span style=\"font-size:30px; font-family: monospace\">enfeite</span>",
		"response": " ",
		"trial": "exp-sent",
		"word": "enfeite",
		"trial_type": "html-keyboard-response",
		"trial_index": 203,
		"time_elapsed": 1386335,
		"internal_node_id": "0.0-3.0-1.158"
	},
	{
		"rt": 869,
		"stimulus": "<span style=\"font-size:30px; font-family: monospace\">de</span>",
		"response": " ",
		"trial": "exp-sent",
		"word": "de",
		"trial_type": "html-keyboard-response",
		"trial_index": 204,
		"time_elapsed": 1387455,
		"internal_node_id": "0.0-3.0-1.159"
	},
	{
		"rt": 3973,
		"stimulus": "<span style=\"font-size:30px; font-family: monospace\">mesa.</span>",
		"response": " ",
		"trial": "exp-sent",
		"word": "mesa.",
		"trial_type": "html-keyboard-response",
		"trial_index": 205,
		"time_elapsed": 1391679,
		"internal_node_id": "0.0-3.0-1.160"
	},
	{
		"rt": null,
		"stimulus": "<span style= \"font-size:30px; font-family: monospace\">+</span>",
		"response": null,
		"trial_part": "fixation",
		"trial_type": "html-keyboard-response",
		"trial_index": 206,
		"time_elapsed": 1392940,
		"internal_node_id": "0.0-3.0-0.161-0.161"
	},
	{
		"rt": 2119,
		"stimulus": "<span style=\"font-size:30px; font-family: monospace\">Gostamos</span>",
		"response": " ",
		"trial": "exp-sent",
		"word": "Gostamos",
		"trial_type": "html-keyboard-response",
		"trial_index": 207,
		"time_elapsed": 1395311,
		"internal_node_id": "0.0-3.0-1.161"
	},
	{
		"rt": 1123,
		"stimulus": "<span style=\"font-size:30px; font-family: monospace\">de</span>",
		"response": " ",
		"trial": "exp-sent",
		"word": "de",
		"trial_type": "html-keyboard-response",
		"trial_index": 208,
		"time_elapsed": 1396686,
		"internal_node_id": "0.0-3.0-1.162"
	},
	{
		"rt": 1302,
		"stimulus": "<span style=\"font-size:30px; font-family: monospace\">suco</span>",
		"response": " ",
		"trial": "exp-sent",
		"word": "suco",
		"trial_type": "html-keyboard-response",
		"trial_index": 209,
		"time_elapsed": 1398239,
		"internal_node_id": "0.0-3.0-1.163"
	},
	{
		"rt": 1428,
		"stimulus": "<span style=\"font-size:30px; font-family: monospace\">em</span>",
		"response": " ",
		"trial": "exp-sent",
		"word": "em",
		"trial_type": "html-keyboard-response",
		"trial_index": 210,
		"time_elapsed": 1399919,
		"internal_node_id": "0.0-3.0-1.164"
	},
	{
		"rt": 2034,
		"stimulus": "<span style=\"font-size:30px; font-family: monospace\">garrafa</span>",
		"response": " ",
		"trial": "exp-sent",
		"word": "garrafa",
		"trial_type": "html-keyboard-response",
		"trial_index": 211,
		"time_elapsed": 1402207,
		"internal_node_id": "0.0-3.0-1.165"
	},
	{
		"rt": 1124,
		"stimulus": "<span style=\"font-size:30px; font-family: monospace\">de</span>",
		"response": " ",
		"trial": "exp-sent",
		"word": "de",
		"trial_type": "html-keyboard-response",
		"trial_index": 212,
		"time_elapsed": 1403583,
		"internal_node_id": "0.0-3.0-1.166"
	},
	{
		"rt": 2757,
		"stimulus": "<span style=\"font-size:30px; font-family: monospace\">tamanho</span>",
		"response": " ",
		"trial": "exp-sent",
		"word": "tamanho",
		"trial_type": "html-keyboard-response",
		"trial_index": 213,
		"time_elapsed": 1406591,
		"internal_node_id": "0.0-3.0-1.167"
	},
	{
		"rt": 1844,
		"stimulus": "<span style=\"font-size:30px; font-family: monospace\">pequeno.</span>",
		"response": " ",
		"trial": "exp-sent",
		"word": "pequeno.",
		"trial_type": "html-keyboard-response",
		"trial_index": 214,
		"time_elapsed": 1408687,
		"internal_node_id": "0.0-3.0-1.168"
	},
	{
		"rt": null,
		"stimulus": "<span style= \"font-size:30px; font-family: monospace\">+</span>",
		"response": null,
		"trial_part": "fixation",
		"trial_type": "html-keyboard-response",
		"trial_index": 215,
		"time_elapsed": 1409940,
		"internal_node_id": "0.0-3.0-0.169-0.169"
	},
	{
		"rt": 2368,
		"stimulus": "<span style=\"font-size:30px; font-family: monospace\">Sua</span>",
		"response": " ",
		"trial": "exp-sent",
		"word": "Sua",
		"trial_type": "html-keyboard-response",
		"trial_index": 216,
		"time_elapsed": 1412559,
		"internal_node_id": "0.0-3.0-1.169"
	},
	{
		"rt": 1269,
		"stimulus": "<span style=\"font-size:30px; font-family: monospace\">filha</span>",
		"response": " ",
		"trial": "exp-sent",
		"word": "filha",
		"trial_type": "html-keyboard-response",
		"trial_index": 217,
		"time_elapsed": 1414079,
		"internal_node_id": "0.0-3.0-1.170"
	},
	{
		"rt": 981,
		"stimulus": "<span style=\"font-size:30px; font-family: monospace\">é</span>",
		"response": " ",
		"trial": "exp-sent",
		"word": "é",
		"trial_type": "html-keyboard-response",
		"trial_index": 218,
		"time_elapsed": 1415311,
		"internal_node_id": "0.0-3.0-1.171"
	},
	{
		"rt": 1220,
		"stimulus": "<span style=\"font-size:30px; font-family: monospace\">muito</span>",
		"response": " ",
		"trial": "exp-sent",
		"word": "muito",
		"trial_type": "html-keyboard-response",
		"trial_index": 219,
		"time_elapsed": 1416783,
		"internal_node_id": "0.0-3.0-1.172"
	},
	{
		"rt": 1764,
		"stimulus": "<span style=\"font-size:30px; font-family: monospace\">capaz</span>",
		"response": " ",
		"trial": "exp-sent",
		"word": "capaz",
		"trial_type": "html-keyboard-response",
		"trial_index": 220,
		"time_elapsed": 1418799,
		"internal_node_id": "0.0-3.0-1.173"
	},
	{
		"rt": 901,
		"stimulus": "<span style=\"font-size:30px; font-family: monospace\">e</span>",
		"response": " ",
		"trial": "exp-sent",
		"word": "e",
		"trial_type": "html-keyboard-response",
		"trial_index": 221,
		"time_elapsed": 1419951,
		"internal_node_id": "0.0-3.0-1.174"
	},
	{
		"rt": 2741,
		"stimulus": "<span style=\"font-size:30px; font-family: monospace\">esforçada.</span>",
		"response": " ",
		"trial": "exp-sent",
		"word": "esforçada.",
		"trial_type": "html-keyboard-response",
		"trial_index": 222,
		"time_elapsed": 1422943,
		"internal_node_id": "0.0-3.0-1.175"
	},
	{
		"rt": null,
		"stimulus": "<span style= \"font-size:30px; font-family: monospace\">+</span>",
		"response": null,
		"trial_part": "fixation",
		"trial_type": "html-keyboard-response",
		"trial_index": 223,
		"time_elapsed": 1424195,
		"internal_node_id": "0.0-3.0-0.176-0.176"
	},
	{
		"rt": 2193,
		"stimulus": "<span style=\"font-size:30px; font-family: monospace\">A</span>",
		"response": " ",
		"trial": "exp-sent",
		"word": "A",
		"trial_type": "html-keyboard-response",
		"trial_index": 224,
		"time_elapsed": 1426639,
		"internal_node_id": "0.0-3.0-1.176"
	},
	{
		"rt": 1829,
		"stimulus": "<span style=\"font-size:30px; font-family: monospace\">batida</span>",
		"response": " ",
		"trial": "exp-sent",
		"word": "batida",
		"trial_type": "html-keyboard-response",
		"trial_index": 225,
		"time_elapsed": 1428719,
		"internal_node_id": "0.0-3.0-1.177"
	},
	{
		"rt": 15141,
		"stimulus": "<span style=\"font-size:30px; font-family: monospace\">causou</span>",
		"response": " ",
		"trial": "exp-sent",
		"word": "causou",
		"trial_type": "html-keyboard-response",
		"trial_index": 226,
		"time_elapsed": 1444112,
		"internal_node_id": "0.0-3.0-1.178"
	},
	{
		"rt": 14612,
		"stimulus": "<span style=\"font-size:30px; font-family: monospace\">muita</span>",
		"response": " ",
		"trial": "exp-sent",
		"word": "muita",
		"trial_type": "html-keyboard-response",
		"trial_index": 227,
		"time_elapsed": 1458976,
		"internal_node_id": "0.0-3.0-1.179"
	},
	{
		"rt": 7732,
		"stimulus": "<span style=\"font-size:30px; font-family: monospace\">confusão</span>",
		"response": " ",
		"trial": "exp-sent",
		"word": "confusão",
		"trial_type": "html-keyboard-response",
		"trial_index": 228,
		"time_elapsed": 1466959,
		"internal_node_id": "0.0-3.0-1.180"
	},
	{
		"rt": 1221,
		"stimulus": "<span style=\"font-size:30px; font-family: monospace\">na</span>",
		"response": " ",
		"trial": "exp-sent",
		"word": "na",
		"trial_type": "html-keyboard-response",
		"trial_index": 229,
		"time_elapsed": 1468432,
		"internal_node_id": "0.0-3.0-1.181"
	},
	{
		"rt": 1515,
		"stimulus": "<span style=\"font-size:30px; font-family: monospace\">estrada.</span>",
		"response": " ",
		"trial": "exp-sent",
		"word": "estrada.",
		"trial_type": "html-keyboard-response",
		"trial_index": 230,
		"time_elapsed": 1470207,
		"internal_node_id": "0.0-3.0-1.182"
	},
	{
		"rt": null,
		"stimulus": "<span style= \"font-size:30px; font-family: monospace\">+</span>",
		"response": null,
		"trial_part": "fixation",
		"trial_type": "html-keyboard-response",
		"trial_index": 231,
		"time_elapsed": 1471460,
		"internal_node_id": "0.0-3.0-0.183-0.183"
	},
	{
		"rt": 4401,
		"stimulus": "<span style=\"font-size:30px; font-family: monospace\">Eu</span>",
		"response": " ",
		"trial": "exp-sent",
		"word": "Eu",
		"trial_type": "html-keyboard-response",
		"trial_index": 232,
		"time_elapsed": 1476111,
		"internal_node_id": "0.0-3.0-1.183"
	},
	{
		"rt": 2261,
		"stimulus": "<span style=\"font-size:30px; font-family: monospace\">cozinhei</span>",
		"response": " ",
		"trial": "exp-sent",
		"word": "cozinhei",
		"trial_type": "html-keyboard-response",
		"trial_index": 233,
		"time_elapsed": 1478623,
		"internal_node_id": "0.0-3.0-1.184"
	},
	{
		"rt": 997,
		"stimulus": "<span style=\"font-size:30px; font-family: monospace\">um</span>",
		"response": " ",
		"trial": "exp-sent",
		"word": "um",
		"trial_type": "html-keyboard-response",
		"trial_index": 234,
		"time_elapsed": 1479871,
		"internal_node_id": "0.0-3.0-1.185"
	},
	{
		"rt": 2609,
		"stimulus": "<span style=\"font-size:30px; font-family: monospace\">almoço</span>",
		"response": " ",
		"trial": "exp-sent",
		"word": "almoço",
		"trial_type": "html-keyboard-response",
		"trial_index": 235,
		"time_elapsed": 1482735,
		"internal_node_id": "0.0-3.0-1.186"
	},
	{
		"rt": 4927,
		"stimulus": "<span style=\"font-size:30px; font-family: monospace\">nutritivo</span>",
		"response": " ",
		"trial": "exp-sent",
		"word": "nutritivo",
		"trial_type": "html-keyboard-response",
		"trial_index": 236,
		"time_elapsed": 1487919,
		"internal_node_id": "0.0-3.0-1.187"
	},
	{
		"rt": 1524,
		"stimulus": "<span style=\"font-size:30px; font-family: monospace\">para</span>",
		"response": " ",
		"trial": "exp-sent",
		"word": "para",
		"trial_type": "html-keyboard-response",
		"trial_index": 237,
		"time_elapsed": 1489694,
		"internal_node_id": "0.0-3.0-1.188"
	},
	{
		"rt": 3605,
		"stimulus": "<span style=\"font-size:30px; font-family: monospace\">hoje.</span>",
		"response": " ",
		"trial": "comp",
		"word": "hoje.",
		"trial_type": "html-keyboard-response",
		"trial_index": 238,
		"time_elapsed": 1493552,
		"internal_node_id": "0.0-3.0-1.189"
	},
	{
		"rt": 49492,
		"stimulus": "<span style=\"font-size:30px; font-family: monospace\">O almoço era nutritivo?</span>",
		"response": "n",
		"question": "O almoço era nutritivo?",
		"answer": "sim",
		"trial": "comp",
		"trial_type": "html-keyboard-response",
		"trial_index": 239,
		"time_elapsed": 1543295,
		"internal_node_id": "0.0-3.0-2.189-0.189",
		"accuracy": false
	},
	{
		"rt": null,
		"stimulus": "<span style= \"font-size:30px; font-family: monospace\">+</span>",
		"response": null,
		"trial_part": "fixation",
		"trial_type": "html-keyboard-response",
		"trial_index": 240,
		"time_elapsed": 1544797,
		"internal_node_id": "0.0-3.0-0.190-0.190"
	},
	{
		"rt": 3285,
		"stimulus": "<span style=\"font-size:30px; font-family: monospace\">A</span>",
		"response": " ",
		"trial": "exp-sent",
		"word": "A",
		"trial_type": "html-keyboard-response",
		"trial_index": 241,
		"time_elapsed": 1548334,
		"internal_node_id": "0.0-3.0-1.190"
	},
	{
		"rt": 1748,
		"stimulus": "<span style=\"font-size:30px; font-family: monospace\">força</span>",
		"response": " ",
		"trial": "exp-sent",
		"word": "força",
		"trial_type": "html-keyboard-response",
		"trial_index": 242,
		"time_elapsed": 1550334,
		"internal_node_id": "0.0-3.0-1.191"
	},
	{
		"rt": 963,
		"stimulus": "<span style=\"font-size:30px; font-family: monospace\">d'água</span>",
		"response": " ",
		"trial": "exp-sent",
		"word": "d'água",
		"trial_type": "html-keyboard-response",
		"trial_index": 243,
		"time_elapsed": 1551550,
		"internal_node_id": "0.0-3.0-1.192"
	},
	{
		"rt": 1037,
		"stimulus": "<span style=\"font-size:30px; font-family: monospace\">estava</span>",
		"response": " ",
		"trial": "exp-sent",
		"word": "estava",
		"trial_type": "html-keyboard-response",
		"trial_index": 244,
		"time_elapsed": 1552846,
		"internal_node_id": "0.0-3.0-1.193"
	},
	{
		"rt": 1205,
		"stimulus": "<span style=\"font-size:30px; font-family: monospace\">normal</span>",
		"response": " ",
		"trial": "exp-sent",
		"word": "normal",
		"trial_type": "html-keyboard-response",
		"trial_index": 245,
		"time_elapsed": 1554302,
		"internal_node_id": "0.0-3.0-1.194"
	},
	{
		"rt": 932,
		"stimulus": "<span style=\"font-size:30px; font-family: monospace\">naquele</span>",
		"response": " ",
		"trial": "exp-sent",
		"word": "naquele",
		"trial_type": "html-keyboard-response",
		"trial_index": 246,
		"time_elapsed": 1555486,
		"internal_node_id": "0.0-3.0-1.195"
	},
	{
		"rt": 3460,
		"stimulus": "<span style=\"font-size:30px; font-family: monospace\">dia.</span>",
		"response": " ",
		"trial": "exp-sent",
		"word": "dia.",
		"trial_type": "html-keyboard-response",
		"trial_index": 247,
		"time_elapsed": 1559198,
		"internal_node_id": "0.0-3.0-1.196"
	},
	{
		"rt": null,
		"stimulus": "<span style= \"font-size:30px; font-family: monospace\">+</span>",
		"response": null,
		"trial_part": "fixation",
		"trial_type": "html-keyboard-response",
		"trial_index": 248,
		"time_elapsed": 1560465,
		"internal_node_id": "0.0-3.0-0.197-0.197"
	},
	{
		"rt": 705,
		"stimulus": "<span style=\"font-size:30px; font-family: monospace\">A</span>",
		"response": " ",
		"trial": "exp-sent",
		"word": "A",
		"trial_type": "html-keyboard-response",
		"trial_index": 249,
		"time_elapsed": 1561422,
		"internal_node_id": "0.0-3.0-1.197"
	},
	{
		"rt": 1157,
		"stimulus": "<span style=\"font-size:30px; font-family: monospace\">médica</span>",
		"response": " ",
		"trial": "exp-sent",
		"word": "médica",
		"trial_type": "html-keyboard-response",
		"trial_index": 250,
		"time_elapsed": 1562831,
		"internal_node_id": "0.0-3.0-1.198"
	},
	{
		"rt": 1827,
		"stimulus": "<span style=\"font-size:30px; font-family: monospace\">ofereceu</span>",
		"response": " ",
		"trial": "exp-sent",
		"word": "ofereceu",
		"trial_type": "html-keyboard-response",
		"trial_index": 251,
		"time_elapsed": 1564910,
		"internal_node_id": "0.0-3.0-1.199"
	},
	{
		"rt": 517,
		"stimulus": "<span style=\"font-size:30px; font-family: monospace\">a</span>",
		"response": " ",
		"trial": "exp-sent",
		"word": "a",
		"trial_type": "html-keyboard-response",
		"trial_index": 252,
		"time_elapsed": 1565678,
		"internal_node_id": "0.0-3.0-1.200"
	},
	{
		"rt": 772,
		"stimulus": "<span style=\"font-size:30px; font-family: monospace\">pomada</span>",
		"response": " ",
		"trial": "exp-sent",
		"word": "pomada",
		"trial_type": "html-keyboard-response",
		"trial_index": 253,
		"time_elapsed": 1566702,
		"internal_node_id": "0.0-3.0-1.201"
	},
	{
		"rt": 596,
		"stimulus": "<span style=\"font-size:30px; font-family: monospace\">para</span>",
		"response": " ",
		"trial": "exp-sent",
		"word": "para",
		"trial_type": "html-keyboard-response",
		"trial_index": 254,
		"time_elapsed": 1567550,
		"internal_node_id": "0.0-3.0-1.202"
	},
	{
		"rt": 772,
		"stimulus": "<span style=\"font-size:30px; font-family: monospace\">o</span>",
		"response": " ",
		"trial": "exp-sent",
		"word": "o",
		"trial_type": "html-keyboard-response",
		"trial_index": 255,
		"time_elapsed": 1568574,
		"internal_node_id": "0.0-3.0-1.203"
	},
	{
		"rt": 2453,
		"stimulus": "<span style=\"font-size:30px; font-family: monospace\">avô.</span>",
		"response": " ",
		"trial": "exp-sent",
		"word": "avô.",
		"trial_type": "html-keyboard-response",
		"trial_index": 256,
		"time_elapsed": 1571278,
		"internal_node_id": "0.0-3.0-1.204"
	},
	{
		"rt": null,
		"stimulus": "<span style= \"font-size:30px; font-family: monospace\">+</span>",
		"response": null,
		"trial_part": "fixation",
		"trial_type": "html-keyboard-response",
		"trial_index": 257,
		"time_elapsed": 1572532,
		"internal_node_id": "0.0-3.0-0.205-0.205"
	},
	{
		"rt": 879,
		"stimulus": "<span style=\"font-size:30px; font-family: monospace\">Ele</span>",
		"response": " ",
		"trial": "exp-sent",
		"word": "Ele",
		"trial_type": "html-keyboard-response",
		"trial_index": 258,
		"time_elapsed": 1573662,
		"internal_node_id": "0.0-3.0-1.205"
	},
	{
		"rt": 1077,
		"stimulus": "<span style=\"font-size:30px; font-family: monospace\">conversou</span>",
		"response": " ",
		"trial": "exp-sent",
		"word": "conversou",
		"trial_type": "html-keyboard-response",
		"trial_index": 259,
		"time_elapsed": 1574990,
		"internal_node_id": "0.0-3.0-1.206"
	},
	{
		"rt": 1028,
		"stimulus": "<span style=\"font-size:30px; font-family: monospace\">com</span>",
		"response": " ",
		"trial": "exp-sent",
		"word": "com",
		"trial_type": "html-keyboard-response",
		"trial_index": 260,
		"time_elapsed": 1576270,
		"internal_node_id": "0.0-3.0-1.207"
	},
	{
		"rt": 837,
		"stimulus": "<span style=\"font-size:30px; font-family: monospace\">o</span>",
		"response": " ",
		"trial": "exp-sent",
		"word": "o",
		"trial_type": "html-keyboard-response",
		"trial_index": 261,
		"time_elapsed": 1577358,
		"internal_node_id": "0.0-3.0-1.208"
	},
	{
		"rt": 916,
		"stimulus": "<span style=\"font-size:30px; font-family: monospace\">patrão</span>",
		"response": " ",
		"trial": "exp-sent",
		"word": "patrão",
		"trial_type": "html-keyboard-response",
		"trial_index": 262,
		"time_elapsed": 1578526,
		"internal_node_id": "0.0-3.0-1.209"
	},
	{
		"rt": 788,
		"stimulus": "<span style=\"font-size:30px; font-family: monospace\">durante</span>",
		"response": " ",
		"trial": "exp-sent",
		"word": "durante",
		"trial_type": "html-keyboard-response",
		"trial_index": 263,
		"time_elapsed": 1579566,
		"internal_node_id": "0.0-3.0-1.210"
	},
	{
		"rt": 916,
		"stimulus": "<span style=\"font-size:30px; font-family: monospace\">a</span>",
		"response": " ",
		"trial": "exp-sent",
		"word": "a",
		"trial_type": "html-keyboard-response",
		"trial_index": 264,
		"time_elapsed": 1580734,
		"internal_node_id": "0.0-3.0-1.211"
	},
	{
		"rt": 1332,
		"stimulus": "<span style=\"font-size:30px; font-family: monospace\">tarde.</span>",
		"response": " ",
		"trial": "exp-sent",
		"word": "tarde.",
		"trial_type": "html-keyboard-response",
		"trial_index": 265,
		"time_elapsed": 1582318,
		"internal_node_id": "0.0-3.0-1.212"
	},
	{
		"rt": null,
		"stimulus": "<span style= \"font-size:30px; font-family: monospace\">+</span>",
		"response": null,
		"trial_part": "fixation",
		"trial_type": "html-keyboard-response",
		"trial_index": 266,
		"time_elapsed": 1583570,
		"internal_node_id": "0.0-3.0-0.213-0.213"
	},
	{
		"rt": 1025,
		"stimulus": "<span style=\"font-size:30px; font-family: monospace\">Algumas</span>",
		"response": " ",
		"trial": "exp-sent",
		"word": "Algumas",
		"trial_type": "html-keyboard-response",
		"trial_index": 267,
		"time_elapsed": 1584846,
		"internal_node_id": "0.0-3.0-1.213"
	},
	{
		"rt": 1125,
		"stimulus": "<span style=\"font-size:30px; font-family: monospace\">pessoas</span>",
		"response": " ",
		"trial": "exp-sent",
		"word": "pessoas",
		"trial_type": "html-keyboard-response",
		"trial_index": 268,
		"time_elapsed": 1586222,
		"internal_node_id": "0.0-3.0-1.214"
	},
	{
		"rt": 1812,
		"stimulus": "<span style=\"font-size:30px; font-family: monospace\">acreditam</span>",
		"response": " ",
		"trial": "exp-sent",
		"word": "acreditam",
		"trial_type": "html-keyboard-response",
		"trial_index": 269,
		"time_elapsed": 1588286,
		"internal_node_id": "0.0-3.0-1.215"
	},
	{
		"rt": 900,
		"stimulus": "<span style=\"font-size:30px; font-family: monospace\">em</span>",
		"response": " ",
		"trial": "exp-sent",
		"word": "em",
		"trial_type": "html-keyboard-response",
		"trial_index": 270,
		"time_elapsed": 1589438,
		"internal_node_id": "0.0-3.0-1.216"
	},
	{
		"rt": 1236,
		"stimulus": "<span style=\"font-size:30px; font-family: monospace\">espíritos</span>",
		"response": " ",
		"trial": "exp-sent",
		"word": "espíritos",
		"trial_type": "html-keyboard-response",
		"trial_index": 271,
		"time_elapsed": 1590926,
		"internal_node_id": "0.0-3.0-1.217"
	},
	{
		"rt": 1157,
		"stimulus": "<span style=\"font-size:30px; font-family: monospace\">e</span>",
		"response": " ",
		"trial": "exp-sent",
		"word": "e",
		"trial_type": "html-keyboard-response",
		"trial_index": 272,
		"time_elapsed": 1592334,
		"internal_node_id": "0.0-3.0-1.218"
	},
	{
		"rt": 916,
		"stimulus": "<span style=\"font-size:30px; font-family: monospace\">em</span>",
		"response": " ",
		"trial": "exp-sent",
		"word": "em",
		"trial_type": "html-keyboard-response",
		"trial_index": 273,
		"time_elapsed": 1593502,
		"internal_node_id": "0.0-3.0-1.219"
	},
	{
		"rt": 1269,
		"stimulus": "<span style=\"font-size:30px; font-family: monospace\">outras</span>",
		"response": " ",
		"trial": "exp-sent",
		"word": "outras",
		"trial_type": "html-keyboard-response",
		"trial_index": 274,
		"time_elapsed": 1595022,
		"internal_node_id": "0.0-3.0-1.220"
	},
	{
		"rt": 3397,
		"stimulus": "<span style=\"font-size:30px; font-family: monospace\">vidas.</span>",
		"response": " ",
		"trial": "exp-sent",
		"word": "vidas.",
		"trial_type": "html-keyboard-response",
		"trial_index": 275,
		"time_elapsed": 1598670,
		"internal_node_id": "0.0-3.0-1.221"
	},
	{
		"rt": null,
		"stimulus": "<span style= \"font-size:30px; font-family: monospace\">+</span>",
		"response": null,
		"trial_part": "fixation",
		"trial_type": "html-keyboard-response",
		"trial_index": 276,
		"time_elapsed": 1599922,
		"internal_node_id": "0.0-3.0-0.222-0.222"
	},
	{
		"rt": 1456,
		"stimulus": "<span style=\"font-size:30px; font-family: monospace\">Ela</span>",
		"response": " ",
		"trial": "exp-sent",
		"word": "Ela",
		"trial_type": "html-keyboard-response",
		"trial_index": 277,
		"time_elapsed": 1601630,
		"internal_node_id": "0.0-3.0-1.222"
	},
	{
		"rt": 1027,
		"stimulus": "<span style=\"font-size:30px; font-family: monospace\">gosta</span>",
		"response": " ",
		"trial": "exp-sent",
		"word": "gosta",
		"trial_type": "html-keyboard-response",
		"trial_index": 278,
		"time_elapsed": 1602910,
		"internal_node_id": "0.0-3.0-1.223"
	},
	{
		"rt": 1092,
		"stimulus": "<span style=\"font-size:30px; font-family: monospace\">de</span>",
		"response": " ",
		"trial": "exp-sent",
		"word": "de",
		"trial_type": "html-keyboard-response",
		"trial_index": 279,
		"time_elapsed": 1604255,
		"internal_node_id": "0.0-3.0-1.224"
	},
	{
		"rt": 1684,
		"stimulus": "<span style=\"font-size:30px; font-family: monospace\">estudar</span>",
		"response": " ",
		"trial": "exp-sent",
		"word": "estudar",
		"trial_type": "html-keyboard-response",
		"trial_index": 280,
		"time_elapsed": 1606190,
		"internal_node_id": "0.0-3.0-1.225"
	},
	{
		"rt": 2805,
		"stimulus": "<span style=\"font-size:30px; font-family: monospace\">matemática</span>",
		"response": " ",
		"trial": "exp-sent",
		"word": "matemática",
		"trial_type": "html-keyboard-response",
		"trial_index": 281,
		"time_elapsed": 1609247,
		"internal_node_id": "0.0-3.0-1.226"
	},
	{
		"rt": 1060,
		"stimulus": "<span style=\"font-size:30px; font-family: monospace\">com</span>",
		"response": " ",
		"trial": "exp-sent",
		"word": "com",
		"trial_type": "html-keyboard-response",
		"trial_index": 282,
		"time_elapsed": 1610559,
		"internal_node_id": "0.0-3.0-1.227"
	},
	{
		"rt": 1733,
		"stimulus": "<span style=\"font-size:30px; font-family: monospace\">colegas.</span>",
		"response": " ",
		"trial": "comp",
		"word": "colegas.",
		"trial_type": "html-keyboard-response",
		"trial_index": 283,
		"time_elapsed": 1612543,
		"internal_node_id": "0.0-3.0-1.228"
	},
	{
		"rt": 5844,
		"stimulus": "<span style=\"font-size:30px; font-family: monospace\">Ela gosta de estudar física?</span>",
		"response": "n",
		"question": "Ela gosta de estudar física?",
		"answer": "não",
		"trial": "comp",
		"trial_type": "html-keyboard-response",
		"trial_index": 284,
		"time_elapsed": 1618639,
		"internal_node_id": "0.0-3.0-2.228-0.228",
		"accuracy": false
	},
	{
		"rt": null,
		"stimulus": "<span style= \"font-size:30px; font-family: monospace\">+</span>",
		"response": null,
		"trial_part": "fixation",
		"trial_type": "html-keyboard-response",
		"trial_index": 285,
		"time_elapsed": 1620140,
		"internal_node_id": "0.0-3.0-0.229-0.229"
	},
	{
		"rt": 9448,
		"stimulus": "<span style=\"font-size:30px; font-family: monospace\">Ganhamos</span>",
		"response": " ",
		"trial": "exp-sent",
		"word": "Ganhamos",
		"trial_type": "html-keyboard-response",
		"trial_index": 286,
		"time_elapsed": 1629839,
		"internal_node_id": "0.0-3.0-1.229"
	},
	{
		"rt": 1444,
		"stimulus": "<span style=\"font-size:30px; font-family: monospace\">passagem</span>",
		"response": " ",
		"trial": "exp-sent",
		"word": "passagem",
		"trial_type": "html-keyboard-response",
		"trial_index": 287,
		"time_elapsed": 1631535,
		"internal_node_id": "0.0-3.0-1.230"
	},
	{
		"rt": 868,
		"stimulus": "<span style=\"font-size:30px; font-family: monospace\">para</span>",
		"response": " ",
		"trial": "exp-sent",
		"word": "para",
		"trial_type": "html-keyboard-response",
		"trial_index": 288,
		"time_elapsed": 1632655,
		"internal_node_id": "0.0-3.0-1.231"
	},
	{
		"rt": 836,
		"stimulus": "<span style=\"font-size:30px; font-family: monospace\">uma</span>",
		"response": " ",
		"trial": "exp-sent",
		"word": "uma",
		"trial_type": "html-keyboard-response",
		"trial_index": 289,
		"time_elapsed": 1633743,
		"internal_node_id": "0.0-3.0-1.232"
	},
	{
		"rt": 996,
		"stimulus": "<span style=\"font-size:30px; font-family: monospace\">viagem</span>",
		"response": " ",
		"trial": "exp-sent",
		"word": "viagem",
		"trial_type": "html-keyboard-response",
		"trial_index": 290,
		"time_elapsed": 1634991,
		"internal_node_id": "0.0-3.0-1.233"
	},
	{
		"rt": 643,
		"stimulus": "<span style=\"font-size:30px; font-family: monospace\">de</span>",
		"response": " ",
		"trial": "exp-sent",
		"word": "de",
		"trial_type": "html-keyboard-response",
		"trial_index": 291,
		"time_elapsed": 1635887,
		"internal_node_id": "0.0-3.0-1.234"
	},
	{
		"rt": 4437,
		"stimulus": "<span style=\"font-size:30px; font-family: monospace\">férias.</span>",
		"response": " ",
		"trial": "exp-sent",
		"word": "férias.",
		"trial_type": "html-keyboard-response",
		"trial_index": 292,
		"time_elapsed": 1640575,
		"internal_node_id": "0.0-3.0-1.235"
	},
	{
		"rt": null,
		"stimulus": "<span style= \"font-size:30px; font-family: monospace\">+</span>",
		"response": null,
		"trial_part": "fixation",
		"trial_type": "html-keyboard-response",
		"trial_index": 293,
		"time_elapsed": 1641828,
		"internal_node_id": "0.0-3.0-0.236-0.236"
	},
	{
		"rt": 1424,
		"stimulus": "<span style=\"font-size:30px; font-family: monospace\">Caiu</span>",
		"response": " ",
		"trial": "exp-sent",
		"word": "Caiu",
		"trial_type": "html-keyboard-response",
		"trial_index": 294,
		"time_elapsed": 1643503,
		"internal_node_id": "0.0-3.0-1.236"
	},
	{
		"rt": 2164,
		"stimulus": "<span style=\"font-size:30px; font-family: monospace\">algo</span>",
		"response": " ",
		"trial": "exp-sent",
		"word": "algo",
		"trial_type": "html-keyboard-response",
		"trial_index": 295,
		"time_elapsed": 1645919,
		"internal_node_id": "0.0-3.0-1.237"
	},
	{
		"rt": 1444,
		"stimulus": "<span style=\"font-size:30px; font-family: monospace\">no</span>",
		"response": " ",
		"trial": "exp-sent",
		"word": "no",
		"trial_type": "html-keyboard-response",
		"trial_index": 296,
		"time_elapsed": 1647615,
		"internal_node_id": "0.0-3.0-1.238"
	},
	{
		"rt": 1076,
		"stimulus": "<span style=\"font-size:30px; font-family: monospace\">meu</span>",
		"response": " ",
		"trial": "exp-sent",
		"word": "meu",
		"trial_type": "html-keyboard-response",
		"trial_index": 297,
		"time_elapsed": 1648943,
		"internal_node_id": "0.0-3.0-1.239"
	},
	{
		"rt": 2244,
		"stimulus": "<span style=\"font-size:30px; font-family: monospace\">olho</span>",
		"response": " ",
		"trial": "exp-sent",
		"word": "olho",
		"trial_type": "html-keyboard-response",
		"trial_index": 298,
		"time_elapsed": 1651439,
		"internal_node_id": "0.0-3.0-1.240"
	},
	{
		"rt": 1669,
		"stimulus": "<span style=\"font-size:30px; font-family: monospace\">ontem</span>",
		"response": " ",
		"trial": "exp-sent",
		"word": "ontem",
		"trial_type": "html-keyboard-response",
		"trial_index": 299,
		"time_elapsed": 1653359,
		"internal_node_id": "0.0-3.0-1.241"
	},
	{
		"rt": 948,
		"stimulus": "<span style=\"font-size:30px; font-family: monospace\">de</span>",
		"response": " ",
		"trial": "exp-sent",
		"word": "de",
		"trial_type": "html-keyboard-response",
		"trial_index": 300,
		"time_elapsed": 1654559,
		"internal_node_id": "0.0-3.0-1.242"
	},
	{
		"rt": 1396,
		"stimulus": "<span style=\"font-size:30px; font-family: monospace\">tarde.</span>",
		"response": " ",
		"trial": "exp-sent",
		"word": "tarde.",
		"trial_type": "html-keyboard-response",
		"trial_index": 301,
		"time_elapsed": 1656207,
		"internal_node_id": "0.0-3.0-1.243"
	},
	{
		"rt": null,
		"stimulus": "<span style= \"font-size:30px; font-family: monospace\">+</span>",
		"response": null,
		"trial_part": "fixation",
		"trial_type": "html-keyboard-response",
		"trial_index": 302,
		"time_elapsed": 1657459,
		"internal_node_id": "0.0-3.0-0.244-0.244"
	},
	{
		"rt": 3568,
		"stimulus": "<span style=\"font-size:30px; font-family: monospace\">Não</span>",
		"response": " ",
		"trial": "exp-sent",
		"word": "Não",
		"trial_type": "html-keyboard-response",
		"trial_index": 303,
		"time_elapsed": 1661279,
		"internal_node_id": "0.0-3.0-1.244"
	},
	{
		"rt": 1013,
		"stimulus": "<span style=\"font-size:30px; font-family: monospace\">havia</span>",
		"response": " ",
		"trial": "exp-sent",
		"word": "havia",
		"trial_type": "html-keyboard-response",
		"trial_index": 304,
		"time_elapsed": 1662543,
		"internal_node_id": "0.0-3.0-1.245"
	},
	{
		"rt": 565,
		"stimulus": "<span style=\"font-size:30px; font-family: monospace\">mais</span>",
		"response": " ",
		"trial": "exp-sent",
		"word": "mais",
		"trial_type": "html-keyboard-response",
		"trial_index": 305,
		"time_elapsed": 1663359,
		"internal_node_id": "0.0-3.0-1.246"
	},
	{
		"rt": 2420,
		"stimulus": "<span style=\"font-size:30px; font-family: monospace\">nenhum</span>",
		"response": " ",
		"trial": "exp-sent",
		"word": "nenhum",
		"trial_type": "html-keyboard-response",
		"trial_index": 306,
		"time_elapsed": 1666030,
		"internal_node_id": "0.0-3.0-1.247"
	},
	{
		"rt": 2916,
		"stimulus": "<span style=\"font-size:30px; font-family: monospace\">ingresso</span>",
		"response": " ",
		"trial": "exp-sent",
		"word": "ingresso",
		"trial_type": "html-keyboard-response",
		"trial_index": 307,
		"time_elapsed": 1669198,
		"internal_node_id": "0.0-3.0-1.248"
	},
	{
		"rt": 981,
		"stimulus": "<span style=\"font-size:30px; font-family: monospace\">para</span>",
		"response": " ",
		"trial": "exp-sent",
		"word": "para",
		"trial_type": "html-keyboard-response",
		"trial_index": 308,
		"time_elapsed": 1670430,
		"internal_node_id": "0.0-3.0-1.249"
	},
	{
		"rt": 565,
		"stimulus": "<span style=\"font-size:30px; font-family: monospace\">o</span>",
		"response": " ",
		"trial": "exp-sent",
		"word": "o",
		"trial_type": "html-keyboard-response",
		"trial_index": 309,
		"time_elapsed": 1671246,
		"internal_node_id": "0.0-3.0-1.250"
	},
	{
		"rt": 709,
		"stimulus": "<span style=\"font-size:30px; font-family: monospace\">evento.</span>",
		"response": " ",
		"trial": "exp-sent",
		"word": "evento.",
		"trial_type": "html-keyboard-response",
		"trial_index": 310,
		"time_elapsed": 1672206,
		"internal_node_id": "0.0-3.0-1.251"
	},
	{
		"rt": null,
		"stimulus": "<span style= \"font-size:30px; font-family: monospace\">+</span>",
		"response": null,
		"trial_part": "fixation",
		"trial_type": "html-keyboard-response",
		"trial_index": 311,
		"time_elapsed": 1673458,
		"internal_node_id": "0.0-3.0-0.252-0.252"
	},
	{
		"rt": 1072,
		"stimulus": "<span style=\"font-size:30px; font-family: monospace\">A</span>",
		"response": " ",
		"trial": "exp-sent",
		"word": "A",
		"trial_type": "html-keyboard-response",
		"trial_index": 312,
		"time_elapsed": 1674782,
		"internal_node_id": "0.0-3.0-1.252"
	},
	{
		"rt": 1348,
		"stimulus": "<span style=\"font-size:30px; font-family: monospace\">médica</span>",
		"response": " ",
		"trial": "exp-sent",
		"word": "médica",
		"trial_type": "html-keyboard-response",
		"trial_index": 313,
		"time_elapsed": 1676382,
		"internal_node_id": "0.0-3.0-1.253"
	},
	{
		"rt": 2004,
		"stimulus": "<span style=\"font-size:30px; font-family: monospace\">descobriu</span>",
		"response": " ",
		"trial": "exp-sent",
		"word": "descobriu",
		"trial_type": "html-keyboard-response",
		"trial_index": 314,
		"time_elapsed": 1678638,
		"internal_node_id": "0.0-3.0-1.254"
	},
	{
		"rt": 852,
		"stimulus": "<span style=\"font-size:30px; font-family: monospace\">uma</span>",
		"response": " ",
		"trial": "exp-sent",
		"word": "uma",
		"trial_type": "html-keyboard-response",
		"trial_index": 315,
		"time_elapsed": 1679742,
		"internal_node_id": "0.0-3.0-1.255"
	},
	{
		"rt": 1508,
		"stimulus": "<span style=\"font-size:30px; font-family: monospace\">cura</span>",
		"response": " ",
		"trial": "exp-sent",
		"word": "cura",
		"trial_type": "html-keyboard-response",
		"trial_index": 316,
		"time_elapsed": 1681501,
		"internal_node_id": "0.0-3.0-1.256"
	},
	{
		"rt": 1318,
		"stimulus": "<span style=\"font-size:30px; font-family: monospace\">para</span>",
		"response": " ",
		"trial": "exp-sent",
		"word": "para",
		"trial_type": "html-keyboard-response",
		"trial_index": 317,
		"time_elapsed": 1683070,
		"internal_node_id": "0.0-3.0-1.257"
	},
	{
		"rt": 1077,
		"stimulus": "<span style=\"font-size:30px; font-family: monospace\">a</span>",
		"response": " ",
		"trial": "exp-sent",
		"word": "a",
		"trial_type": "html-keyboard-response",
		"trial_index": 318,
		"time_elapsed": 1684398,
		"internal_node_id": "0.0-3.0-1.258"
	},
	{
		"rt": 1349,
		"stimulus": "<span style=\"font-size:30px; font-family: monospace\">doença.</span>",
		"response": " ",
		"trial": "exp-sent",
		"word": "doença.",
		"trial_type": "html-keyboard-response",
		"trial_index": 319,
		"time_elapsed": 1685998,
		"internal_node_id": "0.0-3.0-1.259"
	},
	{
		"rt": null,
		"stimulus": "<span style= \"font-size:30px; font-family: monospace\">+</span>",
		"response": null,
		"trial_part": "fixation",
		"trial_type": "html-keyboard-response",
		"trial_index": 320,
		"time_elapsed": 1687252,
		"internal_node_id": "0.0-3.0-0.260-0.260"
	},
	{
		"rt": 1263,
		"stimulus": "<span style=\"font-size:30px; font-family: monospace\">O</span>",
		"response": " ",
		"trial": "exp-sent",
		"word": "O",
		"trial_type": "html-keyboard-response",
		"trial_index": 321,
		"time_elapsed": 1688766,
		"internal_node_id": "0.0-3.0-1.260"
	},
	{
		"rt": 1269,
		"stimulus": "<span style=\"font-size:30px; font-family: monospace\">menino</span>",
		"response": " ",
		"trial": "exp-sent",
		"word": "menino",
		"trial_type": "html-keyboard-response",
		"trial_index": 322,
		"time_elapsed": 1690286,
		"internal_node_id": "0.0-3.0-1.261"
	},
	{
		"rt": 1318,
		"stimulus": "<span style=\"font-size:30px; font-family: monospace\">riscou</span>",
		"response": " ",
		"trial": "exp-sent",
		"word": "riscou",
		"trial_type": "html-keyboard-response",
		"trial_index": 323,
		"time_elapsed": 1691854,
		"internal_node_id": "0.0-3.0-1.262"
	},
	{
		"rt": 811,
		"stimulus": "<span style=\"font-size:30px; font-family: monospace\">o</span>",
		"response": " ",
		"trial": "exp-sent",
		"word": "o",
		"trial_type": "html-keyboard-response",
		"trial_index": 324,
		"time_elapsed": 1692926,
		"internal_node_id": "0.0-3.0-1.263"
	},
	{
		"rt": 1140,
		"stimulus": "<span style=\"font-size:30px; font-family: monospace\">caderno</span>",
		"response": " ",
		"trial": "exp-sent",
		"word": "caderno",
		"trial_type": "html-keyboard-response",
		"trial_index": 325,
		"time_elapsed": 1694318,
		"internal_node_id": "0.0-3.0-1.264"
	},
	{
		"rt": 820,
		"stimulus": "<span style=\"font-size:30px; font-family: monospace\">com</span>",
		"response": " ",
		"trial": "exp-sent",
		"word": "com",
		"trial_type": "html-keyboard-response",
		"trial_index": 326,
		"time_elapsed": 1695390,
		"internal_node_id": "0.0-3.0-1.265"
	},
	{
		"rt": 773,
		"stimulus": "<span style=\"font-size:30px; font-family: monospace\">a</span>",
		"response": " ",
		"trial": "exp-sent",
		"word": "a",
		"trial_type": "html-keyboard-response",
		"trial_index": 327,
		"time_elapsed": 1696415,
		"internal_node_id": "0.0-3.0-1.266"
	},
	{
		"rt": 1300,
		"stimulus": "<span style=\"font-size:30px; font-family: monospace\">caneta.</span>",
		"response": " ",
		"trial": "comp",
		"word": "caneta.",
		"trial_type": "html-keyboard-response",
		"trial_index": 328,
		"time_elapsed": 1697966,
		"internal_node_id": "0.0-3.0-1.267"
	},
	{
		"rt": 47126,
		"stimulus": "<span style=\"font-size:30px; font-family: monospace\">O menino riscou a parede com a caneta?</span>",
		"response": "n",
		"question": "O menino riscou a parede com a caneta?",
		"answer": "não",
		"trial": "comp",
		"trial_type": "html-keyboard-response",
		"trial_index": 329,
		"time_elapsed": 1745342,
		"internal_node_id": "0.0-3.0-2.267-0.267",
		"accuracy": false
	},
	{
		"rt": null,
		"stimulus": "<span style= \"font-size:30px; font-family: monospace\">+</span>",
		"response": null,
		"trial_part": "fixation",
		"trial_type": "html-keyboard-response",
		"trial_index": 330,
		"time_elapsed": 1746844,
		"internal_node_id": "0.0-3.0-0.268-0.268"
	},
	{
		"rt": 1606,
		"stimulus": "<span style=\"font-size:30px; font-family: monospace\">Preciso</span>",
		"response": " ",
		"trial": "exp-sent",
		"word": "Preciso",
		"trial_type": "html-keyboard-response",
		"trial_index": 331,
		"time_elapsed": 1748702,
		"internal_node_id": "0.0-3.0-1.268"
	},
	{
		"rt": 1236,
		"stimulus": "<span style=\"font-size:30px; font-family: monospace\">de</span>",
		"response": " ",
		"trial": "exp-sent",
		"word": "de",
		"trial_type": "html-keyboard-response",
		"trial_index": 332,
		"time_elapsed": 1750190,
		"internal_node_id": "0.0-3.0-1.269"
	},
	{
		"rt": 1557,
		"stimulus": "<span style=\"font-size:30px; font-family: monospace\">um</span>",
		"response": " ",
		"trial": "exp-sent",
		"word": "um",
		"trial_type": "html-keyboard-response",
		"trial_index": 333,
		"time_elapsed": 1751998,
		"internal_node_id": "0.0-3.0-1.270"
	},
	{
		"rt": 1621,
		"stimulus": "<span style=\"font-size:30px; font-family: monospace\">relatório</span>",
		"response": " ",
		"trial": "exp-sent",
		"word": "relatório",
		"trial_type": "html-keyboard-response",
		"trial_index": 334,
		"time_elapsed": 1753870,
		"internal_node_id": "0.0-3.0-1.271"
	},
	{
		"rt": 1541,
		"stimulus": "<span style=\"font-size:30px; font-family: monospace\">oficial</span>",
		"response": " ",
		"trial": "exp-sent",
		"word": "oficial",
		"trial_type": "html-keyboard-response",
		"trial_index": 335,
		"time_elapsed": 1755662,
		"internal_node_id": "0.0-3.0-1.272"
	},
	{
		"rt": 1172,
		"stimulus": "<span style=\"font-size:30px; font-family: monospace\">para</span>",
		"response": " ",
		"trial": "exp-sent",
		"word": "para",
		"trial_type": "html-keyboard-response",
		"trial_index": 336,
		"time_elapsed": 1757086,
		"internal_node_id": "0.0-3.0-1.273"
	},
	{
		"rt": 10564,
		"stimulus": "<span style=\"font-size:30px; font-family: monospace\">amanhã.</span>",
		"response": " ",
		"trial": "exp-sent",
		"word": "amanhã.",
		"trial_type": "html-keyboard-response",
		"trial_index": 337,
		"time_elapsed": 1767901,
		"internal_node_id": "0.0-3.0-1.274"
	},
	{
		"rt": null,
		"stimulus": "<span style= \"font-size:30px; font-family: monospace\">+</span>",
		"response": null,
		"trial_part": "fixation",
		"trial_type": "html-keyboard-response",
		"trial_index": 338,
		"time_elapsed": 1769153,
		"internal_node_id": "0.0-3.0-0.275-0.275"
	},
	{
		"rt": 3457,
