[
	{
		"view_history": [
			{
				"page_index": 0,
				"viewing_time": 1939
			}
		],
		"rt": 1939,
		"trial_type": "instructions",
		"trial_index": 0,
		"time_elapsed": 1940,
		"internal_node_id": "0.0-0.0"
	},
	{
		"rt": 5154,
		"response": {
			"tcle": "Concordo voluntariamente em participar da pesquisa conforme texto acima."
		},
		"question_order": [
			0
		],
		"trial_type": "survey-multi-choice",
		"trial_index": 1,
		"time_elapsed": 7301,
		"internal_node_id": "0.0-1.0"
	},
	{
		"rt": 23279,
		"response": {
			"email": "YO81K"
		},
		"trial_type": "survey-text",
		"trial_index": 2,
		"time_elapsed": 31685,
		"internal_node_id": "0.0-2.0"
	}
]