"view_history","rt","trial_type","trial_index","time_elapsed","internal_node_id","stimulus","response","trial_part","trial","word","question","answer","accuracy"
"[{""page_index"":0,""viewing_time"":177782},{""page_index"":1,""viewing_time"":12984}]","190766","instructions","0","190768","0.0-0.0","","","","","","","",""
"","null","html-keyboard-response","1","191871","0.0-1.0-0.0-0.0","<span style= ""font-size:30px; font-family: monospace"">+</span>","null","fixation","","","","",""
"","24133","html-keyboard-response","2","216256","0.0-1.0-1.0","<span style=""font-size:30px; font-family: monospace"">O</span>"," ","","prac-sent","O","","",""
"","9813","html-keyboard-response","3","226321","0.0-1.0-1.1","<span style=""font-size:30px; font-family: monospace"">dia</span>"," ","","prac-sent","dia","","",""
"","12628","html-keyboard-response","4","239201","0.0-1.0-1.2","<span style=""font-size:30px; font-family: monospace"">estará</span>"," ","","prac-sent","estará","","",""
"","128389","html-keyboard-response","5","367843","0.0-1.0-1.3","<span style=""font-size:30px; font-family: monospace"">cheio</span>"," ","","prac-sent","cheio","","",""
"","483","html-keyboard-response","6","368578","0.0-1.0-1.4","<span style=""font-size:30px; font-family: monospace"">de</span>"," ","","prac-sent","de","","",""
"","32117","html-keyboard-response","7","400946","0.0-1.0-1.5","<span style=""font-size:30px; font-family: monospace"">nuvens</span>"," ","","prac-sent","nuvens","","",""
"","46357","html-keyboard-response","8","447554","0.0-1.0-1.6","<span style=""font-size:30px; font-family: monospace"">hoje.</span>"," ","","prac-sent","hoje.","","",""
"","null","html-keyboard-response","9","448807","0.0-1.0-0.7-0.7","<span style= ""font-size:30px; font-family: monospace"">+</span>","null","fixation","","","","",""
"","942","html-keyboard-response","10","450001","0.0-1.0-1.7","<span style=""font-size:30px; font-family: monospace"">A</span>"," ","","prac-sent","A","","",""
"","773","html-keyboard-response","11","451025","0.0-1.0-1.8","<span style=""font-size:30px; font-family: monospace"">caneca</span>"," ","","prac-sent","caneca","","",""
"","1205","html-keyboard-response","12","452481","0.0-1.0-1.9","<span style=""font-size:30px; font-family: monospace"">colorida</span>"," ","","prac-sent","colorida","","",""
"","25301","html-keyboard-response","13","478033","0.0-1.0-1.10","<span style=""font-size:30px; font-family: monospace"">caiu</span>"," ","","prac-sent","caiu","","",""
"","868","html-keyboard-response","14","479153","0.0-1.0-1.11","<span style=""font-size:30px; font-family: monospace"">da</span>"," ","","prac-sent","da","","",""
"","452","html-keyboard-response","15","479857","0.0-1.0-1.12","<span style=""font-size:30px; font-family: monospace"">mesa</span>"," ","","prac-sent","mesa","","",""
"","389","html-keyboard-response","16","480497","0.0-1.0-1.13","<span style=""font-size:30px; font-family: monospace"">de</span>"," ","","prac-sent","de","","",""
"","5572","html-keyboard-response","17","486321","0.0-1.0-1.14","<span style=""font-size:30px; font-family: monospace"">jantar.</span>"," ","","prac-comp","jantar.","","",""
"","18645","html-keyboard-response","18","505217","0.0-1.0-2.14-0.14","<span style=""font-size:30px; font-family: monospace"">A caneca permaneceu na mesa?</span>","s","","prac-comp","","A caneca permaneceu na mesa?","não","false"
"[{""page_index"":0,""viewing_time"":5731}]","5731","instructions","19","511449","0.0-2.0","","","","","","","",""
"","null","html-keyboard-response","20","512552","0.0-3.0-0.0-0.0","<span style= ""font-size:30px; font-family: monospace"">+</span>","null","fixation","","","","",""
"","12910","html-keyboard-response","21","525714","0.0-3.0-1.0","<span style=""font-size:30px; font-family: monospace"">A</span>"," ","","exp-sent","A","","",""
"","3877","html-keyboard-response","22","529841","0.0-3.0-1.1","<span style=""font-size:30px; font-family: monospace"">motorista</span>"," ","","exp-sent","motorista","","",""
"","1860","html-keyboard-response","23","531953","0.0-3.0-1.2","<span style=""font-size:30px; font-family: monospace"">fez</span>"," ","","exp-sent","fez","","",""
"","3380","html-keyboard-response","24","535585","0.0-3.0-1.3","<span style=""font-size:30px; font-family: monospace"">o</span>"," ","","exp-sent","o","","",""
"","2548","html-keyboard-response","25","538385","0.0-3.0-1.4","<span style=""font-size:30px; font-family: monospace"">retorno</span>"," ","","exp-sent","retorno","","",""
"","1333","html-keyboard-response","26","539969","0.0-3.0-1.5","<span style=""font-size:30px; font-family: monospace"">com</span>"," ","","exp-sent","com","","",""
"","16245","html-keyboard-response","27","556466","0.0-3.0-1.6","<span style=""font-size:30px; font-family: monospace"">cuidado.</span>"," ","","exp-sent","cuidado.","","",""
"","null","html-keyboard-response","28","557718","0.0-3.0-0.7-0.7","<span style= ""font-size:30px; font-family: monospace"">+</span>","null","fixation","","","","",""
"","3136","html-keyboard-response","29","561105","0.0-3.0-1.7","<span style=""font-size:30px; font-family: monospace"">Contos</span>"," ","","exp-sent","Contos","","",""
"","2565","html-keyboard-response","30","563921","0.0-3.0-1.8","<span style=""font-size:30px; font-family: monospace"">de</span>"," ","","exp-sent","de","","",""
"","3461","html-keyboard-response","31","567634","0.0-3.0-1.9","<span style=""font-size:30px; font-family: monospace"">ação</span>"," ","","exp-sent","ação","","",""
"","1669","html-keyboard-response","32","569554","0.0-3.0-1.10","<span style=""font-size:30px; font-family: monospace"">têm</span>"," ","","exp-sent","têm","","",""
"","6340","html-keyboard-response","33","576146","0.0-3.0-1.11","<span style=""font-size:30px; font-family: monospace"">chantagem</span>"," ","","exp-sent","chantagem","","",""
"","1461","html-keyboard-response","34","577858","0.0-3.0-1.12","<span style=""font-size:30px; font-family: monospace"">e</span>"," ","","exp-sent","e","","",""
"","6165","html-keyboard-response","35","584274","0.0-3.0-1.13","<span style=""font-size:30px; font-family: monospace"">muita</span>"," ","","exp-sent","muita","","",""
"","10404","html-keyboard-response","36","594930","0.0-3.0-1.14","<span style=""font-size:30px; font-family: monospace"">luta.</span>"," ","","exp-sent","luta.","","",""
"","null","html-keyboard-response","37","596181","0.0-3.0-0.15-0.15","<span style= ""font-size:30px; font-family: monospace"">+</span>","null","fixation","","","","",""
"","273","html-keyboard-response","38","596705","0.0-3.0-1.15","<span style=""font-size:30px; font-family: monospace"">A</span>"," ","","exp-sent","A","","",""
"","5957","html-keyboard-response","39","602914","0.0-3.0-1.16","<span style=""font-size:30px; font-family: monospace"">bisavó</span>"," ","","exp-sent","bisavó","","",""
"","2148","html-keyboard-response","40","605314","0.0-3.0-1.17","<span style=""font-size:30px; font-family: monospace"">recebeu</span>"," ","","exp-sent","recebeu","","",""
"","629","html-keyboard-response","41","606193","0.0-3.0-1.18","<span style=""font-size:30px; font-family: monospace"">um</span>"," ","","exp-sent","um","","",""
"","805","html-keyboard-response","42","607250","0.0-3.0-1.19","<span style=""font-size:30px; font-family: monospace"">benefício</span>"," ","","exp-sent","benefício","","",""
"","660","html-keyboard-response","43","608161","0.0-3.0-1.20","<span style=""font-size:30px; font-family: monospace"">temporário</span>"," ","","exp-sent","temporário","","",""
"","549","html-keyboard-response","44","608962","0.0-3.0-1.21","<span style=""font-size:30px; font-family: monospace"">do</span>"," ","","exp-sent","do","","",""
"","1028","html-keyboard-response","45","610242","0.0-3.0-1.22","<span style=""font-size:30px; font-family: monospace"">governo.</span>"," ","","exp-sent","governo.","","",""
"","null","html-keyboard-response","46","611494","0.0-3.0-0.23-0.23","<span style= ""font-size:30px; font-family: monospace"">+</span>","null","fixation","","","","",""
"","2160","html-keyboard-response","47","613906","0.0-3.0-1.23","<span style=""font-size:30px; font-family: monospace"">As</span>"," ","","exp-sent","As","","",""
"","1877","html-keyboard-response","48","616034","0.0-3.0-1.24","<span style=""font-size:30px; font-family: monospace"">crianças</span>"," ","","exp-sent","crianças","","",""
"","6244","html-keyboard-response","49","622530","0.0-3.0-1.25","<span style=""font-size:30px; font-family: monospace"">brincaram</span>"," ","","exp-sent","brincaram","","",""
"","1924","html-keyboard-response","50","624706","0.0-3.0-1.26","<span style=""font-size:30px; font-family: monospace"">no</span>"," ","","exp-sent","no","","",""
"","3588","html-keyboard-response","51","628546","0.0-3.0-1.27","<span style=""font-size:30px; font-family: monospace"">balanço</span>"," ","","exp-sent","balanço","","",""
"","1476","html-keyboard-response","52","630273","0.0-3.0-1.28","<span style=""font-size:30px; font-family: monospace"">a</span>"," ","","exp-sent","a","","",""
"","2276","html-keyboard-response","53","632801","0.0-3.0-1.29","<span style=""font-size:30px; font-family: monospace"">tarde</span>"," ","","exp-sent","tarde","","",""
"","2531","html-keyboard-response","54","635585","0.0-3.0-1.30","<span style=""font-size:30px; font-family: monospace"">toda.</span>"," ","","exp-sent","toda.","","",""
"","null","html-keyboard-response","55","636837","0.0-3.0-0.31-0.31","<span style= ""font-size:30px; font-family: monospace"">+</span>","null","fixation","","","","",""
"","2241","html-keyboard-response","56","639330","0.0-3.0-1.31","<span style=""font-size:30px; font-family: monospace"">Ela</span>"," ","","exp-sent","Ela","","",""
"","1716","html-keyboard-response","57","641297","0.0-3.0-1.32","<span style=""font-size:30px; font-family: monospace"">gosta</span>"," ","","exp-sent","gosta","","",""
"","2293","html-keyboard-response","58","643841","0.0-3.0-1.33","<span style=""font-size:30px; font-family: monospace"">de</span>"," ","","exp-sent","de","","",""
"","4709","html-keyboard-response","59","648801","0.0-3.0-1.34","<span style=""font-size:30px; font-family: monospace"">comida</span>"," ","","exp-sent","comida","","",""
"","2085","html-keyboard-response","60","651137","0.0-3.0-1.35","<span style=""font-size:30px; font-family: monospace"">natural</span>"," ","","exp-sent","natural","","",""
"","1381","html-keyboard-response","61","652769","0.0-3.0-1.36","<span style=""font-size:30px; font-family: monospace"">no</span>"," ","","exp-sent","no","","",""
"","3748","html-keyboard-response","62","656769","0.0-3.0-1.37","<span style=""font-size:30px; font-family: monospace"">almoço.</span>"," ","","comp","almoço.","","",""
"","86662","html-keyboard-response","63","743682","0.0-3.0-2.37-0.37","<span style=""font-size:30px; font-family: monospace"">Ela gosta de comida natural no almoço?</span>","s","","comp","","Ela gosta de comida natural no almoço?","sim","false"
"","null","html-keyboard-response","64","745197","0.0-3.0-0.38-0.38","<span style= ""font-size:30px; font-family: monospace"">+</span>","null","fixation","","","","",""
"","28681","html-keyboard-response","65","774130","0.0-3.0-1.38","<span style=""font-size:30px; font-family: monospace"">Ele</span>"," ","","exp-sent","Ele","","",""
"","3332","html-keyboard-response","66","777713","0.0-3.0-1.39","<span style=""font-size:30px; font-family: monospace"">é</span>"," ","","exp-sent","é","","",""
"","4406","html-keyboard-response","67","782369","0.0-3.0-1.40","<span style=""font-size:30px; font-family: monospace"">um</span>"," ","","exp-sent","um","","",""
"","4837","html-keyboard-response","68","787457","0.0-3.0-1.41","<span style=""font-size:30px; font-family: monospace"">pai</span>"," ","","exp-sent","pai","","",""
"","4645","html-keyboard-response","69","792353","0.0-3.0-1.42","<span style=""font-size:30px; font-family: monospace"">ausente</span>"," ","","exp-sent","ausente","","",""
"","1157","html-keyboard-response","70","793761","0.0-3.0-1.43","<span style=""font-size:30px; font-family: monospace"">e</span>"," ","","exp-sent","e","","",""
"","5797","html-keyboard-response","71","799809","0.0-3.0-1.44","<span style=""font-size:30px; font-family: monospace"">muito</span>"," ","","exp-sent","muito","","",""
"","2773","html-keyboard-response","72","802834","0.0-3.0-1.45","<span style=""font-size:30px; font-family: monospace"">fofoqueiro.</span>"," ","","exp-sent","fofoqueiro.","","",""
"","null","html-keyboard-response","73","804085","0.0-3.0-0.46-0.46","<span style= ""font-size:30px; font-family: monospace"">+</span>","null","fixation","","","","",""
"","1760","html-keyboard-response","74","806097","0.0-3.0-1.46","<span style=""font-size:30px; font-family: monospace"">O</span>"," ","","exp-sent","O","","",""
"","9621","html-keyboard-response","75","815969","0.0-3.0-1.47","<span style=""font-size:30px; font-family: monospace"">filho</span>"," ","","exp-sent","filho","","",""
"","2308","html-keyboard-response","76","818529","0.0-3.0-1.48","<span style=""font-size:30px; font-family: monospace"">lavou</span>"," ","","exp-sent","lavou","","",""
"","6181","html-keyboard-response","77","824961","0.0-3.0-1.49","<span style=""font-size:30px; font-family: monospace"">a</span>"," ","","exp-sent","a","","",""
"","2229","html-keyboard-response","78","827442","0.0-3.0-1.50","<span style=""font-size:30px; font-family: monospace"">roupa</span>"," ","","exp-sent","roupa","","",""
"","2852","html-keyboard-response","79","830545","0.0-3.0-1.51","<span style=""font-size:30px; font-family: monospace"">sem</span>"," ","","exp-sent","sem","","",""
"","16100","html-keyboard-response","80","846897","0.0-3.0-1.52","<span style=""font-size:30px; font-family: monospace"">nenhuma</span>"," ","","exp-sent","nenhuma","","",""
"","1717","html-keyboard-response","81","848865","0.0-3.0-1.53","<span style=""font-size:30px; font-family: monospace"">ajuda.</span>"," ","","exp-sent","ajuda.","","",""
"","null","html-keyboard-response","82","850121","0.0-3.0-0.54-0.54","<span style= ""font-size:30px; font-family: monospace"">+</span>","null","fixation","","","","",""
"","1085","html-keyboard-response","83","851457","0.0-3.0-1.54","<span style=""font-size:30px; font-family: monospace"">O</span>"," ","","exp-sent","O","","",""
"","12085","html-keyboard-response","84","863793","0.0-3.0-1.55","<span style=""font-size:30px; font-family: monospace"">menino</span>"," ","","exp-sent","menino","","",""
"","1077","html-keyboard-response","85","865121","0.0-3.0-1.56","<span style=""font-size:30px; font-family: monospace"">quebrou</span>"," ","","exp-sent","quebrou","","",""
"","644","html-keyboard-response","86","866017","0.0-3.0-1.57","<span style=""font-size:30px; font-family: monospace"">a</span>"," ","","exp-sent","a","","",""
"","1412","html-keyboard-response","87","867681","0.0-3.0-1.58","<span style=""font-size:30px; font-family: monospace"">perna</span>"," ","","exp-sent","perna","","",""
"","1093","html-keyboard-response","88","869025","0.0-3.0-1.59","<span style=""font-size:30px; font-family: monospace"">nos</span>"," ","","exp-sent","nos","","",""
"","1764","html-keyboard-response","89","871041","0.0-3.0-1.60","<span style=""font-size:30px; font-family: monospace"">esportes.</span>"," ","","exp-sent","esportes.","","",""
"","null","html-keyboard-response","90","872307","0.0-3.0-0.61-0.61","<span style= ""font-size:30px; font-family: monospace"">+</span>","null","fixation","","","","",""
"","1123","html-keyboard-response","91","873681","0.0-3.0-1.61","<span style=""font-size:30px; font-family: monospace"">Ela</span>"," ","","exp-sent","Ela","","",""
"","4212","html-keyboard-response","92","878144","0.0-3.0-1.62","<span style=""font-size:30px; font-family: monospace"">brincou</span>"," ","","exp-sent","brincou","","",""
"","1045","html-keyboard-response","93","879441","0.0-3.0-1.63","<span style=""font-size:30px; font-family: monospace"">com</span>"," ","","exp-sent","com","","",""
"","997","html-keyboard-response","94","880689","0.0-3.0-1.64","<span style=""font-size:30px; font-family: monospace"">uma</span>"," ","","exp-sent","uma","","",""
"","1444","html-keyboard-response","95","882385","0.0-3.0-1.65","<span style=""font-size:30px; font-family: monospace"">menina</span>"," ","","exp-sent","menina","","",""
"","965","html-keyboard-response","96","883601","0.0-3.0-1.66","<span style=""font-size:30px; font-family: monospace"">da</span>"," ","","exp-sent","da","","",""
"","1029","html-keyboard-response","97","884881","0.0-3.0-1.67","<span style=""font-size:30px; font-family: monospace"">turma.</span>"," ","","exp-sent","turma.","","",""
"","null","html-keyboard-response","98","886132","0.0-3.0-0.68-0.68","<span style= ""font-size:30px; font-family: monospace"">+</span>","null","fixation","","","","",""
"","699","html-keyboard-response","99","887089","0.0-3.0-1.68","<span style=""font-size:30px; font-family: monospace"">Ele</span>"," ","","exp-sent","Ele","","",""
"","645","html-keyboard-response","100","887985","0.0-3.0-1.69","<span style=""font-size:30px; font-family: monospace"">esteve</span>"," ","","exp-sent","esteve","","",""
"","517","html-keyboard-response","101","888753","0.0-3.0-1.70","<span style=""font-size:30px; font-family: monospace"">no</span>"," ","","exp-sent","no","","",""
"","1588","html-keyboard-response","102","890593","0.0-3.0-1.71","<span style=""font-size:30px; font-family: monospace"">escritório</span>"," ","","exp-sent","escritório","","",""
"","564","html-keyboard-response","103","891409","0.0-3.0-1.72","<span style=""font-size:30px; font-family: monospace"">o</span>"," ","","exp-sent","o","","",""
"","789","html-keyboard-response","104","892449","0.0-3.0-1.73","<span style=""font-size:30px; font-family: monospace"">dia</span>"," ","","exp-sent","dia","","",""
"","1444","html-keyboard-response","105","894145","0.0-3.0-1.74","<span style=""font-size:30px; font-family: monospace"">inteiro.</span>"," ","","comp","inteiro.","","",""
"","19573","html-keyboard-response","106","913969","0.0-3.0-2.74-0.74","<span style=""font-size:30px; font-family: monospace"">Ele esteve no parque o dia inteiro?</span>","s","","comp","","Ele esteve no parque o dia inteiro?","não","false"
"","null","html-keyboard-response","107","915471","0.0-3.0-0.75-0.75","<span style= ""font-size:30px; font-family: monospace"">+</span>","null","fixation","","","","",""
"","3751","html-keyboard-response","108","919473","0.0-3.0-1.75","<span style=""font-size:30px; font-family: monospace"">No</span>"," ","","exp-sent","No","","",""
"","3508","html-keyboard-response","109","923232","0.0-3.0-1.76","<span style=""font-size:30px; font-family: monospace"">passado</span>"," ","","exp-sent","passado","","",""
"","2294","html-keyboard-response","110","925777","0.0-3.0-1.77","<span style=""font-size:30px; font-family: monospace"">houve</span>"," ","","exp-sent","houve","","",""
"","4251","html-keyboard-response","111","930289","0.0-3.0-1.78","<span style=""font-size:30px; font-family: monospace"">uma</span>"," ","","exp-sent","uma","","",""
"","2899","html-keyboard-response","112","933441","0.0-3.0-1.79","<span style=""font-size:30px; font-family: monospace"">rebelião</span>"," ","","exp-sent","rebelião","","",""
"","7012","html-keyboard-response","113","940705","0.0-3.0-1.80","<span style=""font-size:30px; font-family: monospace"">nesta</span>"," ","","exp-sent","nesta","","",""
"","4149","html-keyboard-response","114","945105","0.0-3.0-1.81","<span style=""font-size:30px; font-family: monospace"">cidade.</span>"," ","","exp-sent","cidade.","","",""
"","null","html-keyboard-response","115","946357","0.0-3.0-0.82-0.82","<span style= ""font-size:30px; font-family: monospace"">+</span>","null","fixation","","","","",""
"","1600","html-keyboard-response","116","948208","0.0-3.0-1.82","<span style=""font-size:30px; font-family: monospace"">Ele</span>"," ","","exp-sent","Ele","","",""
"","1445","html-keyboard-response","117","949905","0.0-3.0-1.83","<span style=""font-size:30px; font-family: monospace"">fundou</span>"," ","","exp-sent","fundou","","",""
"","885","html-keyboard-response","118","951041","0.0-3.0-1.84","<span style=""font-size:30px; font-family: monospace"">uma</span>"," ","","exp-sent","uma","","",""
"","1701","html-keyboard-response","119","952993","0.0-3.0-1.85","<span style=""font-size:30px; font-family: monospace"">empresa</span>"," ","","exp-sent","empresa","","",""
"","2164","html-keyboard-response","120","955409","0.0-3.0-1.86","<span style=""font-size:30px; font-family: monospace"">privada</span>"," ","","exp-sent","privada","","",""
"","3701","html-keyboard-response","121","959361","0.0-3.0-1.87","<span style=""font-size:30px; font-family: monospace"">sem</span>"," ","","exp-sent","sem","","",""
"","2388","html-keyboard-response","122","962001","0.0-3.0-1.88","<span style=""font-size:30px; font-family: monospace"">ajuda.</span>"," ","","exp-sent","ajuda.","","",""
"","null","html-keyboard-response","123","963252","0.0-3.0-0.89-0.89","<span style= ""font-size:30px; font-family: monospace"">+</span>","null","fixation","","","","",""
"","1152","html-keyboard-response","124","964656","0.0-3.0-1.89","<span style=""font-size:30px; font-family: monospace"">As</span>"," ","","exp-sent","As","","",""
"","1653","html-keyboard-response","125","966560","0.0-3.0-1.90","<span style=""font-size:30px; font-family: monospace"">meninas</span>"," ","","exp-sent","meninas","","",""
"","2182","html-keyboard-response","126","968993","0.0-3.0-1.91","<span style=""font-size:30px; font-family: monospace"">encontraram</span>"," ","","exp-sent","encontraram","","",""
"","1077","html-keyboard-response","127","970321","0.0-3.0-1.92","<span style=""font-size:30px; font-family: monospace"">um</span>"," ","","exp-sent","um","","",""
"","1332","html-keyboard-response","128","971904","0.0-3.0-1.93","<span style=""font-size:30px; font-family: monospace"">rato</span>"," ","","exp-sent","rato","","",""
"","1238","html-keyboard-response","129","973393","0.0-3.0-1.94","<span style=""font-size:30px; font-family: monospace"">dentro</span>"," ","","exp-sent","dentro","","",""
"","996","html-keyboard-response","130","974640","0.0-3.0-1.95","<span style=""font-size:30px; font-family: monospace"">de</span>"," ","","exp-sent","de","","",""
"","1269","html-keyboard-response","131","976161","0.0-3.0-1.96","<span style=""font-size:30px; font-family: monospace"">casa.</span>"," ","","exp-sent","casa.","","",""
"","null","html-keyboard-response","132","977413","0.0-3.0-0.97-0.97","<span style= ""font-size:30px; font-family: monospace"">+</span>","null","fixation","","","","",""
"","2032","html-keyboard-response","133","979696","0.0-3.0-1.97","<span style=""font-size:30px; font-family: monospace"">O</span>"," ","","exp-sent","O","","",""
"","1653","html-keyboard-response","134","981600","0.0-3.0-1.98","<span style=""font-size:30px; font-family: monospace"">texto</span>"," ","","exp-sent","texto","","",""
"","1316","html-keyboard-response","135","983168","0.0-3.0-1.99","<span style=""font-size:30px; font-family: monospace"">tinha</span>"," ","","exp-sent","tinha","","",""
"","2629","html-keyboard-response","136","986049","0.0-3.0-1.100","<span style=""font-size:30px; font-family: monospace"">ideias</span>"," ","","exp-sent","ideias","","",""
"","4389","html-keyboard-response","137","990688","0.0-3.0-1.101","<span style=""font-size:30px; font-family: monospace"">vagas</span>"," ","","exp-sent","vagas","","",""
"","1156","html-keyboard-response","138","992096","0.0-3.0-1.102","<span style=""font-size:30px; font-family: monospace"">e</span>"," ","","exp-sent","e","","",""
"","3733","html-keyboard-response","139","996081","0.0-3.0-1.103","<span style=""font-size:30px; font-family: monospace"">confusas.</span>"," ","","exp-sent","confusas.","","",""
"","null","html-keyboard-response","140","997333","0.0-3.0-0.104-0.104","<span style= ""font-size:30px; font-family: monospace"">+</span>","null","fixation","","","","",""
"","1456","html-keyboard-response","141","999040","0.0-3.0-1.104","<span style=""font-size:30px; font-family: monospace"">As</span>"," ","","exp-sent","As","","",""
"","3685","html-keyboard-response","142","1002976","0.0-3.0-1.105","<span style=""font-size:30px; font-family: monospace"">crianças</span>"," ","","exp-sent","crianças","","",""
"","3830","html-keyboard-response","143","1007057","0.0-3.0-1.106","<span style=""font-size:30px; font-family: monospace"">viram</span>"," ","","exp-sent","viram","","",""
"","868","html-keyboard-response","144","1008176","0.0-3.0-1.107","<span style=""font-size:30px; font-family: monospace"">a</span>"," ","","exp-sent","a","","",""
"","2869","html-keyboard-response","145","1011296","0.0-3.0-1.108","<span style=""font-size:30px; font-family: monospace"">acrobata</span>"," ","","exp-sent","acrobata","","",""
"","2292","html-keyboard-response","146","1013840","0.0-3.0-1.109","<span style=""font-size:30px; font-family: monospace"">talentosa</span>"," ","","exp-sent","talentosa","","",""
"","2037","html-keyboard-response","147","1016128","0.0-3.0-1.110","<span style=""font-size:30px; font-family: monospace"">no</span>"," ","","exp-sent","no","","",""
"","2341","html-keyboard-response","148","1018720","0.0-3.0-1.111","<span style=""font-size:30px; font-family: monospace"">circo.</span>"," ","","comp","circo.","","",""
"","129494","html-keyboard-response","149","1148465","0.0-3.0-2.111-0.111","<span style=""font-size:30px; font-family: monospace"">As crianças viram o palhaço no circo?</span>","s","","comp","","As crianças viram o palhaço no circo?","não","false"
"","null","html-keyboard-response","150","1149968","0.0-3.0-0.112-0.112","<span style= ""font-size:30px; font-family: monospace"">+</span>","null","fixation","","","","",""
"","5429","html-keyboard-response","151","1155648","0.0-3.0-1.112","<span style=""font-size:30px; font-family: monospace"">Eu</span>"," ","","exp-sent","Eu","","",""
"","2613","html-keyboard-response","152","1158512","0.0-3.0-1.113","<span style=""font-size:30px; font-family: monospace"">gosto</span>"," ","","exp-sent","gosto","","",""
"","1236","html-keyboard-response","153","1160000","0.0-3.0-1.114","<span style=""font-size:30px; font-family: monospace"">de</span>"," ","","exp-sent","de","","",""
"","1204","html-keyboard-response","154","1161456","0.0-3.0-1.115","<span style=""font-size:30px; font-family: monospace"">molho</span>"," ","","exp-sent","molho","","",""
"","1236","html-keyboard-response","155","1162944","0.0-3.0-1.116","<span style=""font-size:30px; font-family: monospace"">picante</span>"," ","","exp-sent","picante","","",""
"","724","html-keyboard-response","156","1163920","0.0-3.0-1.117","<span style=""font-size:30px; font-family: monospace"">nas</span>"," ","","exp-sent","nas","","",""
"","3092","html-keyboard-response","157","1167264","0.0-3.0-1.118","<span style=""font-size:30px; font-family: monospace"">batatas.</span>"," ","","exp-sent","batatas.","","",""
"","null","html-keyboard-response","158","1168516","0.0-3.0-0.119-0.119","<span style= ""font-size:30px; font-family: monospace"">+</span>","null","fixation","","","","",""
"","3393","html-keyboard-response","159","1172160","0.0-3.0-1.119","<span style=""font-size:30px; font-family: monospace"">As</span>"," ","","exp-sent","As","","",""
"","1680","html-keyboard-response","160","1174096","0.0-3.0-1.120","<span style=""font-size:30px; font-family: monospace"">pessoas</span>"," ","","exp-sent","pessoas","","",""
"","964","html-keyboard-response","161","1175312","0.0-3.0-1.121","<span style=""font-size:30px; font-family: monospace"">têm</span>"," ","","exp-sent","têm","","",""
"","789","html-keyboard-response","162","1176352","0.0-3.0-1.122","<span style=""font-size:30px; font-family: monospace"">sua</span>"," ","","exp-sent","sua","","",""
"","1509","html-keyboard-response","163","1178112","0.0-3.0-1.123","<span style=""font-size:30px; font-family: monospace"">liberdade</span>"," ","","exp-sent","liberdade","","",""
"","1652","html-keyboard-response","164","1180015","0.0-3.0-1.124","<span style=""font-size:30px; font-family: monospace"">até</span>"," ","","exp-sent","até","","",""
"","1542","html-keyboard-response","165","1181808","0.0-3.0-1.125","<span style=""font-size:30px; font-family: monospace"">certo</span>"," ","","exp-sent","certo","","",""
"","3525","html-keyboard-response","166","1185584","0.0-3.0-1.126","<span style=""font-size:30px; font-family: monospace"">ponto.</span>"," ","","exp-sent","ponto.","","",""
"","null","html-keyboard-response","167","1186836","0.0-3.0-0.127-0.127","<span style= ""font-size:30px; font-family: monospace"">+</span>","null","fixation","","","","",""
"","688","html-keyboard-response","168","1187776","0.0-3.0-1.127","<span style=""font-size:30px; font-family: monospace"">A</span>"," ","","exp-sent","A","","",""
"","1045","html-keyboard-response","169","1189072","0.0-3.0-1.128","<span style=""font-size:30px; font-family: monospace"">empresa</span>"," ","","exp-sent","empresa","","",""
"","1620","html-keyboard-response","170","1190944","0.0-3.0-1.129","<span style=""font-size:30px; font-family: monospace"">enviou</span>"," ","","exp-sent","enviou","","",""
"","997","html-keyboard-response","171","1192192","0.0-3.0-1.130","<span style=""font-size:30px; font-family: monospace"">o</span>"," ","","exp-sent","o","","",""
"","1413","html-keyboard-response","172","1193855","0.0-3.0-1.131","<span style=""font-size:30px; font-family: monospace"">aviso</span>"," ","","exp-sent","aviso","","",""
"","1302","html-keyboard-response","173","1195408","0.0-3.0-1.132","<span style=""font-size:30px; font-family: monospace"">hoje</span>"," ","","exp-sent","hoje","","",""
"","1653","html-keyboard-response","174","1197312","0.0-3.0-1.133","<span style=""font-size:30px; font-family: monospace"">de</span>"," ","","exp-sent","de","","",""
"","97445","html-keyboard-response","175","1295007","0.0-3.0-1.134","<span style=""font-size:30px; font-family: monospace"">tarde.</span>"," ","","exp-sent","tarde.","","",""
"","null","html-keyboard-response","176","1296259","0.0-3.0-0.135-0.135","<span style= ""font-size:30px; font-family: monospace"">+</span>","null","fixation","","","","",""
"","6177","html-keyboard-response","177","1302687","0.0-3.0-1.135","<span style=""font-size:30px; font-family: monospace"">A</span>"," ","","exp-sent","A","","",""
"","1573","html-keyboard-response","178","1304511","0.0-3.0-1.136","<span style=""font-size:30px; font-family: monospace"">loja</span>"," ","","exp-sent","loja","","",""
"","996","html-keyboard-response","179","1305758","0.0-3.0-1.137","<span style=""font-size:30px; font-family: monospace"">vende</span>"," ","","exp-sent","vende","","",""
"","1157","html-keyboard-response","180","1307167","0.0-3.0-1.138","<span style=""font-size:30px; font-family: monospace"">tanto</span>"," ","","exp-sent","tanto","","",""
"","1301","html-keyboard-response","181","1308719","0.0-3.0-1.139","<span style=""font-size:30px; font-family: monospace"">frituras</span>"," ","","exp-sent","frituras","","",""
"","1093","html-keyboard-response","182","1310063","0.0-3.0-1.140","<span style=""font-size:30px; font-family: monospace"">quanto</span>"," ","","exp-sent","quanto","","",""
"","1172","html-keyboard-response","183","1311487","0.0-3.0-1.141","<span style=""font-size:30px; font-family: monospace"">comidas</span>"," ","","exp-sent","comidas","","",""
"","1828","html-keyboard-response","184","1313567","0.0-3.0-1.142","<span style=""font-size:30px; font-family: monospace"">leves.</span>"," ","","exp-sent","leves.","","",""
"","null","html-keyboard-response","185","1314819","0.0-3.0-0.143-0.143","<span style= ""font-size:30px; font-family: monospace"">+</span>","null","fixation","","","","",""
"","3665","html-keyboard-response","186","1318735","0.0-3.0-1.143","<span style=""font-size:30px; font-family: monospace"">As</span>"," ","","exp-sent","As","","",""
"","1860","html-keyboard-response","187","1320847","0.0-3.0-1.144","<span style=""font-size:30px; font-family: monospace"">cadeiras</span>"," ","","exp-sent","cadeiras","","",""
"","1381","html-keyboard-response","188","1322479","0.0-3.0-1.145","<span style=""font-size:30px; font-family: monospace"">azuis</span>"," ","","exp-sent","azuis","","",""
"","1124","html-keyboard-response","189","1323855","0.0-3.0-1.146","<span style=""font-size:30px; font-family: monospace"">da</span>"," ","","exp-sent","da","","",""
"","948","html-keyboard-response","190","1325055","0.0-3.0-1.147","<span style=""font-size:30px; font-family: monospace"">sala</span>"," ","","exp-sent","sala","","",""
"","1124","html-keyboard-response","191","1326431","0.0-3.0-1.148","<span style=""font-size:30px; font-family: monospace"">eram</span>"," ","","exp-sent","eram","","",""
"","1045","html-keyboard-response","192","1327727","0.0-3.0-1.149","<span style=""font-size:30px; font-family: monospace"">da</span>"," ","","exp-sent","da","","",""
"","1141","html-keyboard-response","193","1329119","0.0-3.0-1.150","<span style=""font-size:30px; font-family: monospace"">minha</span>"," ","","exp-sent","minha","","",""
"","9028","html-keyboard-response","194","1338399","0.0-3.0-1.151","<span style=""font-size:30px; font-family: monospace"">vó.</span>"," ","","comp","vó.","","",""
"","32869","html-keyboard-response","195","1371519","0.0-3.0-2.151-0.151","<span style=""font-size:30px; font-family: monospace"">As cadeiras eram da avó?</span>","n","","comp","","As cadeiras eram da avó?","sim","false"
"","null","html-keyboard-response","196","1373021","0.0-3.0-0.152-0.152","<span style= ""font-size:30px; font-family: monospace"">+</span>","null","fixation","","","","",""
"","2023","html-keyboard-response","197","1375295","0.0-3.0-1.152","<span style=""font-size:30px; font-family: monospace"">O</span>"," ","","exp-sent","O","","",""
"","1861","html-keyboard-response","198","1377407","0.0-3.0-1.153","<span style=""font-size:30px; font-family: monospace"">moço</span>"," ","","exp-sent","moço","","",""
"","1605","html-keyboard-response","199","1379263","0.0-3.0-1.154","<span style=""font-size:30px; font-family: monospace"">usou</span>"," ","","exp-sent","usou","","",""
"","2404","html-keyboard-response","200","1381919","0.0-3.0-1.155","<span style=""font-size:30px; font-family: monospace"">várias</span>"," ","","exp-sent","várias","","",""
"","1060","html-keyboard-response","201","1383230","0.0-3.0-1.156","<span style=""font-size:30px; font-family: monospace"">velas</span>"," ","","exp-sent","velas","","",""
"","1030","html-keyboard-response","202","1384511","0.0-3.0-1.157","<span style=""font-size:30px; font-family: monospace"">no</span>"," ","","exp-sent","no","","",""
"","1572","html-keyboard-response","203","1386335","0.0-3.0-1.158","<span style=""font-size:30px; font-family: monospace"">enfeite</span>"," ","","exp-sent","enfeite","","",""
"","869","html-keyboard-response","204","1387455","0.0-3.0-1.159","<span style=""font-size:30px; font-family: monospace"">de</span>"," ","","exp-sent","de","","",""
"","3973","html-keyboard-response","205","1391679","0.0-3.0-1.160","<span style=""font-size:30px; font-family: monospace"">mesa.</span>"," ","","exp-sent","mesa.","","",""
"","null","html-keyboard-response","206","1392940","0.0-3.0-0.161-0.161","<span style= ""font-size:30px; font-family: monospace"">+</span>","null","fixation","","","","",""
"","2119","html-keyboard-response","207","1395311","0.0-3.0-1.161","<span style=""font-size:30px; font-family: monospace"">Gostamos</span>"," ","","exp-sent","Gostamos","","",""
"","1123","html-keyboard-response","208","1396686","0.0-3.0-1.162","<span style=""font-size:30px; font-family: monospace"">de</span>"," ","","exp-sent","de","","",""
"","1302","html-keyboard-response","209","1398239","0.0-3.0-1.163","<span style=""font-size:30px; font-family: monospace"">suco</span>"," ","","exp-sent","suco","","",""
"","1428","html-keyboard-response","210","1399919","0.0-3.0-1.164","<span style=""font-size:30px; font-family: monospace"">em</span>"," ","","exp-sent","em","","",""
"","2034","html-keyboard-response","211","1402207","0.0-3.0-1.165","<span style=""font-size:30px; font-family: monospace"">garrafa</span>"," ","","exp-sent","garrafa","","",""
"","1124","html-keyboard-response","212","1403583","0.0-3.0-1.166","<span style=""font-size:30px; font-family: monospace"">de</span>"," ","","exp-sent","de","","",""
"","2757","html-keyboard-response","213","1406591","0.0-3.0-1.167","<span style=""font-size:30px; font-family: monospace"">tamanho</span>"," ","","exp-sent","tamanho","","",""
"","1844","html-keyboard-response","214","1408687","0.0-3.0-1.168","<span style=""font-size:30px; font-family: monospace"">pequeno.</span>"," ","","exp-sent","pequeno.","","",""
"","null","html-keyboard-response","215","1409940","0.0-3.0-0.169-0.169","<span style= ""font-size:30px; font-family: monospace"">+</span>","null","fixation","","","","",""
"","2368","html-keyboard-response","216","1412559","0.0-3.0-1.169","<span style=""font-size:30px; font-family: monospace"">Sua</span>"," ","","exp-sent","Sua","","",""
"","1269","html-keyboard-response","217","1414079","0.0-3.0-1.170","<span style=""font-size:30px; font-family: monospace"">filha</span>"," ","","exp-sent","filha","","",""
"","981","html-keyboard-response","218","1415311","0.0-3.0-1.171","<span style=""font-size:30px; font-family: monospace"">é</span>"," ","","exp-sent","é","","",""
"","1220","html-keyboard-response","219","1416783","0.0-3.0-1.172","<span style=""font-size:30px; font-family: monospace"">muito</span>"," ","","exp-sent","muito","","",""
"","1764","html-keyboard-response","220","1418799","0.0-3.0-1.173","<span style=""font-size:30px; font-family: monospace"">capaz</span>"," ","","exp-sent","capaz","","",""
"","901","html-keyboard-response","221","1419951","0.0-3.0-1.174","<span style=""font-size:30px; font-family: monospace"">e</span>"," ","","exp-sent","e","","",""
"","2741","html-keyboard-response","222","1422943","0.0-3.0-1.175","<span style=""font-size:30px; font-family: monospace"">esforçada.</span>"," ","","exp-sent","esforçada.","","",""
"","null","html-keyboard-response","223","1424195","0.0-3.0-0.176-0.176","<span style= ""font-size:30px; font-family: monospace"">+</span>","null","fixation","","","","",""
"","2193","html-keyboard-response","224","1426639","0.0-3.0-1.176","<span style=""font-size:30px; font-family: monospace"">A</span>"," ","","exp-sent","A","","",""
"","1829","html-keyboard-response","225","1428719","0.0-3.0-1.177","<span style=""font-size:30px; font-family: monospace"">batida</span>"," ","","exp-sent","batida","","",""
"","15141","html-keyboard-response","226","1444112","0.0-3.0-1.178","<span style=""font-size:30px; font-family: monospace"">causou</span>"," ","","exp-sent","causou","","",""
"","14612","html-keyboard-response","227","1458976","0.0-3.0-1.179","<span style=""font-size:30px; font-family: monospace"">muita</span>"," ","","exp-sent","muita","","",""
"","7732","html-keyboard-response","228","1466959","0.0-3.0-1.180","<span style=""font-size:30px; font-family: monospace"">confusão</span>"," ","","exp-sent","confusão","","",""
"","1221","html-keyboard-response","229","1468432","0.0-3.0-1.181","<span style=""font-size:30px; font-family: monospace"">na</span>"," ","","exp-sent","na","","",""
"","1515","html-keyboard-response","230","1470207","0.0-3.0-1.182","<span style=""font-size:30px; font-family: monospace"">estrada.</span>"," ","","exp-sent","estrada.","","",""
"","null","html-keyboard-response","231","1471460","0.0-3.0-0.183-0.183","<span style= ""font-size:30px; font-family: monospace"">+</span>","null","fixation","","","","",""
"","4401","html-keyboard-response","232","1476111","0.0-3.0-1.183","<span style=""font-size:30px; font-family: monospace"">Eu</span>"," ","","exp-sent","Eu","","",""
"","2261","html-keyboard-response","233","1478623","0.0-3.0-1.184","<span style=""font-size:30px; font-family: monospace"">cozinhei</span>"," ","","exp-sent","cozinhei","","",""
"","997","html-keyboard-response","234","1479871","0.0-3.0-1.185","<span style=""font-size:30px; font-family: monospace"">um</span>"," ","","exp-sent","um","","",""
"","2609","html-keyboard-response","235","1482735","0.0-3.0-1.186","<span style=""font-size:30px; font-family: monospace"">almoço</span>"," ","","exp-sent","almoço","","",""
"","4927","html-keyboard-response","236","1487919","0.0-3.0-1.187","<span style=""font-size:30px; font-family: monospace"">nutritivo</span>"," ","","exp-sent","nutritivo","","",""
"","1524","html-keyboard-response","237","1489694","0.0-3.0-1.188","<span style=""font-size:30px; font-family: monospace"">para</span>"," ","","exp-sent","para","","",""
"","3605","html-keyboard-response","238","1493552","0.0-3.0-1.189","<span style=""font-size:30px; font-family: monospace"">hoje.</span>"," ","","comp","hoje.","","",""
"","49492","html-keyboard-response","239","1543295","0.0-3.0-2.189-0.189","<span style=""font-size:30px; font-family: monospace"">O almoço era nutritivo?</span>","n","","comp","","O almoço era nutritivo?","sim","false"
"","null","html-keyboard-response","240","1544797","0.0-3.0-0.190-0.190","<span style= ""font-size:30px; font-family: monospace"">+</span>","null","fixation","","","","",""
"","3285","html-keyboard-response","241","1548334","0.0-3.0-1.190","<span style=""font-size:30px; font-family: monospace"">A</span>"," ","","exp-sent","A","","",""
"","1748","html-keyboard-response","242","1550334","0.0-3.0-1.191","<span style=""font-size:30px; font-family: monospace"">força</span>"," ","","exp-sent","força","","",""
"","963","html-keyboard-response","243","1551550","0.0-3.0-1.192","<span style=""font-size:30px; font-family: monospace"">d'água</span>"," ","","exp-sent","d'água","","",""
"","1037","html-keyboard-response","244","1552846","0.0-3.0-1.193","<span style=""font-size:30px; font-family: monospace"">estava</span>"," ","","exp-sent","estava","","",""
"","1205","html-keyboard-response","245","1554302","0.0-3.0-1.194","<span style=""font-size:30px; font-family: monospace"">normal</span>"," ","","exp-sent","normal","","",""
"","932","html-keyboard-response","246","1555486","0.0-3.0-1.195","<span style=""font-size:30px; font-family: monospace"">naquele</span>"," ","","exp-sent","naquele","","",""
"","3460","html-keyboard-response","247","1559198","0.0-3.0-1.196","<span style=""font-size:30px; font-family: monospace"">dia.</span>"," ","","exp-sent","dia.","","",""
"","null","html-keyboard-response","248","1560465","0.0-3.0-0.197-0.197","<span style= ""font-size:30px; font-family: monospace"">+</span>","null","fixation","","","","",""
"","705","html-keyboard-response","249","1561422","0.0-3.0-1.197","<span style=""font-size:30px; font-family: monospace"">A</span>"," ","","exp-sent","A","","",""
"","1157","html-keyboard-response","250","1562831","0.0-3.0-1.198","<span style=""font-size:30px; font-family: monospace"">médica</span>"," ","","exp-sent","médica","","",""
"","1827","html-keyboard-response","251","1564910","0.0-3.0-1.199","<span style=""font-size:30px; font-family: monospace"">ofereceu</span>"," ","","exp-sent","ofereceu","","",""
"","517","html-keyboard-response","252","1565678","0.0-3.0-1.200","<span style=""font-size:30px; font-family: monospace"">a</span>"," ","","exp-sent","a","","",""
"","772","html-keyboard-response","253","1566702","0.0-3.0-1.201","<span style=""font-size:30px; font-family: monospace"">pomada</span>"," ","","exp-sent","pomada","","",""
"","596","html-keyboard-response","254","1567550","0.0-3.0-1.202","<span style=""font-size:30px; font-family: monospace"">para</span>"," ","","exp-sent","para","","",""
"","772","html-keyboard-response","255","1568574","0.0-3.0-1.203","<span style=""font-size:30px; font-family: monospace"">o</span>"," ","","exp-sent","o","","",""
"","2453","html-keyboard-response","256","1571278","0.0-3.0-1.204","<span style=""font-size:30px; font-family: monospace"">avô.</span>"," ","","exp-sent","avô.","","",""
"","null","html-keyboard-response","257","1572532","0.0-3.0-0.205-0.205","<span style= ""font-size:30px; font-family: monospace"">+</span>","null","fixation","","","","",""
"","879","html-keyboard-response","258","1573662","0.0-3.0-1.205","<span style=""font-size:30px; font-family: monospace"">Ele</span>"," ","","exp-sent","Ele","","",""
"","1077","html-keyboard-response","259","1574990","0.0-3.0-1.206","<span style=""font-size:30px; font-family: monospace"">conversou</span>"," ","","exp-sent","conversou","","",""
"","1028","html-keyboard-response","260","1576270","0.0-3.0-1.207","<span style=""font-size:30px; font-family: monospace"">com</span>"," ","","exp-sent","com","","",""
"","837","html-keyboard-response","261","1577358","0.0-3.0-1.208","<span style=""font-size:30px; font-family: monospace"">o</span>"," ","","exp-sent","o","","",""
"","916","html-keyboard-response","262","1578526","0.0-3.0-1.209","<span style=""font-size:30px; font-family: monospace"">patrão</span>"," ","","exp-sent","patrão","","",""
"","788","html-keyboard-response","263","1579566","0.0-3.0-1.210","<span style=""font-size:30px; font-family: monospace"">durante</span>"," ","","exp-sent","durante","","",""
"","916","html-keyboard-response","264","1580734","0.0-3.0-1.211","<span style=""font-size:30px; font-family: monospace"">a</span>"," ","","exp-sent","a","","",""
"","1332","html-keyboard-response","265","1582318","0.0-3.0-1.212","<span style=""font-size:30px; font-family: monospace"">tarde.</span>"," ","","exp-sent","tarde.","","",""
"","null","html-keyboard-response","266","1583570","0.0-3.0-0.213-0.213","<span style= ""font-size:30px; font-family: monospace"">+</span>","null","fixation","","","","",""
"","1025","html-keyboard-response","267","1584846","0.0-3.0-1.213","<span style=""font-size:30px; font-family: monospace"">Algumas</span>"," ","","exp-sent","Algumas","","",""
"","1125","html-keyboard-response","268","1586222","0.0-3.0-1.214","<span style=""font-size:30px; font-family: monospace"">pessoas</span>"," ","","exp-sent","pessoas","","",""
"","1812","html-keyboard-response","269","1588286","0.0-3.0-1.215","<span style=""font-size:30px; font-family: monospace"">acreditam</span>"," ","","exp-sent","acreditam","","",""
"","900","html-keyboard-response","270","1589438","0.0-3.0-1.216","<span style=""font-size:30px; font-family: monospace"">em</span>"," ","","exp-sent","em","","",""
"","1236","html-keyboard-response","271","1590926","0.0-3.0-1.217","<span style=""font-size:30px; font-family: monospace"">espíritos</span>"," ","","exp-sent","espíritos","","",""
"","1157","html-keyboard-response","272","1592334","0.0-3.0-1.218","<span style=""font-size:30px; font-family: monospace"">e</span>"," ","","exp-sent","e","","",""
"","916","html-keyboard-response","273","1593502","0.0-3.0-1.219","<span style=""font-size:30px; font-family: monospace"">em</span>"," ","","exp-sent","em","","",""
"","1269","html-keyboard-response","274","1595022","0.0-3.0-1.220","<span style=""font-size:30px; font-family: monospace"">outras</span>"," ","","exp-sent","outras","","",""
"","3397","html-keyboard-response","275","1598670","0.0-3.0-1.221","<span style=""font-size:30px; font-family: monospace"">vidas.</span>"," ","","exp-sent","vidas.","","",""
"","null","html-keyboard-response","276","1599922","0.0-3.0-0.222-0.222","<span style= ""font-size:30px; font-family: monospace"">+</span>","null","fixation","","","","",""
"","1456","html-keyboard-response","277","1601630","0.0-3.0-1.222","<span style=""font-size:30px; font-family: monospace"">Ela</span>"," ","","exp-sent","Ela","","",""
"","1027","html-keyboard-response","278","1602910","0.0-3.0-1.223","<span style=""font-size:30px; font-family: monospace"">gosta</span>"," ","","exp-sent","gosta","","",""
"","1092","html-keyboard-response","279","1604255","0.0-3.0-1.224","<span style=""font-size:30px; font-family: monospace"">de</span>"," ","","exp-sent","de","","",""
"","1684","html-keyboard-response","280","1606190","0.0-3.0-1.225","<span style=""font-size:30px; font-family: monospace"">estudar</span>"," ","","exp-sent","estudar","","",""
"","2805","html-keyboard-response","281","1609247","0.0-3.0-1.226","<span style=""font-size:30px; font-family: monospace"">matemática</span>"," ","","exp-sent","matemática","","",""
"","1060","html-keyboard-response","282","1610559","0.0-3.0-1.227","<span style=""font-size:30px; font-family: monospace"">com</span>"," ","","exp-sent","com","","",""
"","1733","html-keyboard-response","283","1612543","0.0-3.0-1.228","<span style=""font-size:30px; font-family: monospace"">colegas.</span>"," ","","comp","colegas.","","",""
"","5844","html-keyboard-response","284","1618639","0.0-3.0-2.228-0.228","<span style=""font-size:30px; font-family: monospace"">Ela gosta de estudar física?</span>","n","","comp","","Ela gosta de estudar física?","não","false"
"","null","html-keyboard-response","285","1620140","0.0-3.0-0.229-0.229","<span style= ""font-size:30px; font-family: monospace"">+</span>","null","fixation","","","","",""
"","9448","html-keyboard-response","286","1629839","0.0-3.0-1.229","<span style=""font-size:30px; font-family: monospace"">Ganhamos</span>"," ","","exp-sent","Ganhamos","","",""
"","1444","html-keyboard-response","287","1631535","0.0-3.0-1.230","<span style=""font-size:30px; font-family: monospace"">passagem</span>"," ","","exp-sent","passagem","","",""
"","868","html-keyboard-response","288","1632655","0.0-3.0-1.231","<span style=""font-size:30px; font-family: monospace"">para</span>"," ","","exp-sent","para","","",""
"","836","html-keyboard-response","289","1633743","0.0-3.0-1.232","<span style=""font-size:30px; font-family: monospace"">uma</span>"," ","","exp-sent","uma","","",""
"","996","html-keyboard-response","290","1634991","0.0-3.0-1.233","<span style=""font-size:30px; font-family: monospace"">viagem</span>"," ","","exp-sent","viagem","","",""
"","643","html-keyboard-response","291","1635887","0.0-3.0-1.234","<span style=""font-size:30px; font-family: monospace"">de</span>"," ","","exp-sent","de","","",""
"","4437","html-keyboard-response","292","1640575","0.0-3.0-1.235","<span style=""font-size:30px; font-family: monospace"">férias.</span>"," ","","exp-sent","férias.","","",""
"","null","html-keyboard-response","293","1641828","0.0-3.0-0.236-0.236","<span style= ""font-size:30px; font-family: monospace"">+</span>","null","fixation","","","","",""
"","1424","html-keyboard-response","294","1643503","0.0-3.0-1.236","<span style=""font-size:30px; font-family: monospace"">Caiu</span>"," ","","exp-sent","Caiu","","",""
"","2164","html-keyboard-response","295","1645919","0.0-3.0-1.237","<span style=""font-size:30px; font-family: monospace"">algo</span>"," ","","exp-sent","algo","","",""
"","1444","html-keyboard-response","296","1647615","0.0-3.0-1.238","<span style=""font-size:30px; font-family: monospace"">no</span>"," ","","exp-sent","no","","",""
"","1076","html-keyboard-response","297","1648943","0.0-3.0-1.239","<span style=""font-size:30px; font-family: monospace"">meu</span>"," ","","exp-sent","meu","","",""
"","2244","html-keyboard-response","298","1651439","0.0-3.0-1.240","<span style=""font-size:30px; font-family: monospace"">olho</span>"," ","","exp-sent","olho","","",""
"","1669","html-keyboard-response","299","1653359","0.0-3.0-1.241","<span style=""font-size:30px; font-family: monospace"">ontem</span>"," ","","exp-sent","ontem","","",""
"","948","html-keyboard-response","300","1654559","0.0-3.0-1.242","<span style=""font-size:30px; font-family: monospace"">de</span>"," ","","exp-sent","de","","",""
"","1396","html-keyboard-response","301","1656207","0.0-3.0-1.243","<span style=""font-size:30px; font-family: monospace"">tarde.</span>"," ","","exp-sent","tarde.","","",""
"","null","html-keyboard-response","302","1657459","0.0-3.0-0.244-0.244","<span style= ""font-size:30px; font-family: monospace"">+</span>","null","fixation","","","","",""
"","3568","html-keyboard-response","303","1661279","0.0-3.0-1.244","<span style=""font-size:30px; font-family: monospace"">Não</span>"," ","","exp-sent","Não","","",""
"","1013","html-keyboard-response","304","1662543","0.0-3.0-1.245","<span style=""font-size:30px; font-family: monospace"">havia</span>"," ","","exp-sent","havia","","",""
"","565","html-keyboard-response","305","1663359","0.0-3.0-1.246","<span style=""font-size:30px; font-family: monospace"">mais</span>"," ","","exp-sent","mais","","",""
"","2420","html-keyboard-response","306","1666030","0.0-3.0-1.247","<span style=""font-size:30px; font-family: monospace"">nenhum</span>"," ","","exp-sent","nenhum","","",""
"","2916","html-keyboard-response","307","1669198","0.0-3.0-1.248","<span style=""font-size:30px; font-family: monospace"">ingresso</span>"," ","","exp-sent","ingresso","","",""
"","981","html-keyboard-response","308","1670430","0.0-3.0-1.249","<span style=""font-size:30px; font-family: monospace"">para</span>"," ","","exp-sent","para","","",""
"","565","html-keyboard-response","309","1671246","0.0-3.0-1.250","<span style=""font-size:30px; font-family: monospace"">o</span>"," ","","exp-sent","o","","",""
"","709","html-keyboard-response","310","1672206","0.0-3.0-1.251","<span style=""font-size:30px; font-family: monospace"">evento.</span>"," ","","exp-sent","evento.","","",""
"","null","html-keyboard-response","311","1673458","0.0-3.0-0.252-0.252","<span style= ""font-size:30px; font-family: monospace"">+</span>","null","fixation","","","","",""
"","1072","html-keyboard-response","312","1674782","0.0-3.0-1.252","<span style=""font-size:30px; font-family: monospace"">A</span>"," ","","exp-sent","A","","",""
"","1348","html-keyboard-response","313","1676382","0.0-3.0-1.253","<span style=""font-size:30px; font-family: monospace"">médica</span>"," ","","exp-sent","médica","","",""
"","2004","html-keyboard-response","314","1678638","0.0-3.0-1.254","<span style=""font-size:30px; font-family: monospace"">descobriu</span>"," ","","exp-sent","descobriu","","",""
"","852","html-keyboard-response","315","1679742","0.0-3.0-1.255","<span style=""font-size:30px; font-family: monospace"">uma</span>"," ","","exp-sent","uma","","",""
"","1508","html-keyboard-response","316","1681501","0.0-3.0-1.256","<span style=""font-size:30px; font-family: monospace"">cura</span>"," ","","exp-sent","cura","","",""
"","1318","html-keyboard-response","317","1683070","0.0-3.0-1.257","<span style=""font-size:30px; font-family: monospace"">para</span>"," ","","exp-sent","para","","",""
"","1077","html-keyboard-response","318","1684398","0.0-3.0-1.258","<span style=""font-size:30px; font-family: monospace"">a</span>"," ","","exp-sent","a","","",""
"","1349","html-keyboard-response","319","1685998","0.0-3.0-1.259","<span style=""font-size:30px; font-family: monospace"">doença.</span>"," ","","exp-sent","doença.","","",""
"","null","html-keyboard-response","320","1687252","0.0-3.0-0.260-0.260","<span style= ""font-size:30px; font-family: monospace"">+</span>","null","fixation","","","","",""
"","1263","html-keyboard-response","321","1688766","0.0-3.0-1.260","<span style=""font-size:30px; font-family: monospace"">O</span>"," ","","exp-sent","O","","",""
"","1269","html-keyboard-response","322","1690286","0.0-3.0-1.261","<span style=""font-size:30px; font-family: monospace"">menino</span>"," ","","exp-sent","menino","","",""
"","1318","html-keyboard-response","323","1691854","0.0-3.0-1.262","<span style=""font-size:30px; font-family: monospace"">riscou</span>"," ","","exp-sent","riscou","","",""
"","811","html-keyboard-response","324","1692926","0.0-3.0-1.263","<span style=""font-size:30px; font-family: monospace"">o</span>"," ","","exp-sent","o","","",""
"","1140","html-keyboard-response","325","1694318","0.0-3.0-1.264","<span style=""font-size:30px; font-family: monospace"">caderno</span>"," ","","exp-sent","caderno","","",""
"","820","html-keyboard-response","326","1695390","0.0-3.0-1.265","<span style=""font-size:30px; font-family: monospace"">com</span>"," ","","exp-sent","com","","",""
"","773","html-keyboard-response","327","1696415","0.0-3.0-1.266","<span style=""font-size:30px; font-family: monospace"">a</span>"," ","","exp-sent","a","","",""
"","1300","html-keyboard-response","328","1697966","0.0-3.0-1.267","<span style=""font-size:30px; font-family: monospace"">caneta.</span>"," ","","comp","caneta.","","",""
"","47126","html-keyboard-response","329","1745342","0.0-3.0-2.267-0.267","<span style=""font-size:30px; font-family: monospace"">O menino riscou a parede com a caneta?</span>","n","","comp","","O menino riscou a parede com a caneta?","não","false"
"","null","html-keyboard-response","330","1746844","0.0-3.0-0.268-0.268","<span style= ""font-size:30px; font-family: monospace"">+</span>","null","fixation","","","","",""
"","1606","html-keyboard-response","331","1748702","0.0-3.0-1.268","<span style=""font-size:30px; font-family: monospace"">Preciso</span>"," ","","exp-sent","Preciso","","",""
"","1236","html-keyboard-response","332","1750190","0.0-3.0-1.269","<span style=""font-size:30px; font-family: monospace"">de</span>"," ","","exp-sent","de","","",""
"","1557","html-keyboard-response","333","1751998","0.0-3.0-1.270","<span style=""font-size:30px; font-family: monospace"">um</span>"," ","","exp-sent","um","","",""
"","1621","html-keyboard-response","334","1753870","0.0-3.0-1.271","<span style=""font-size:30px; font-family: monospace"">relatório</span>"," ","","exp-sent","relatório","","",""
"","1541","html-keyboard-response","335","1755662","0.0-3.0-1.272","<span style=""font-size:30px; font-family: monospace"">oficial</span>"," ","","exp-sent","oficial","","",""
"","1172","html-keyboard-response","336","1757086","0.0-3.0-1.273","<span style=""font-size:30px; font-family: monospace"">para</span>"," ","","exp-sent","para","","",""
"","10564","html-keyboard-response","337","1767901","0.0-3.0-1.274","<span style=""font-size:30px; font-family: monospace"">amanhã.</span>"," ","","exp-sent","amanhã.","","",""
"","null","html-keyboard-response","338","1769153","0.0-3.0-0.275-0.275","<span style= ""font-size:30px; font-family: monospace"">+</span>","null","fixation","","","","",""
"","3457","html-keyboard-response","339","1772862","0.0-3.0-1.275","<span style=""font-size:30px; font-family: monospace"">Ele</span>"," ","","exp-sent","Ele","","",""
"","1348","html-keyboard-response","340","1774462","0.0-3.0-1.276","<span style=""font-size:30px; font-family: monospace"">viu</span>"," ","","exp-sent","viu","","",""
"","1301","html-keyboard-response","341","1776014","0.0-3.0-1.277","<span style=""font-size:30px; font-family: monospace"">um</span>"," ","","exp-sent","um","","",""
"","2980","html-keyboard-response","342","1779246","0.0-3.0-1.278","<span style=""font-size:30px; font-family: monospace"">inseto</span>"," ","","exp-sent","inseto","","",""
"","4885","html-keyboard-response","343","1784382","0.0-3.0-1.279","<span style=""font-size:30px; font-family: monospace"">marrom</span>"," ","","exp-sent","marrom","","",""
"","885","html-keyboard-response","344","1785518","0.0-3.0-1.280","<span style=""font-size:30px; font-family: monospace"">na</span>"," ","","exp-sent","na","","",""
"","4469","html-keyboard-response","345","1790239","0.0-3.0-1.281","<span style=""font-size:30px; font-family: monospace"">parede.</span>"," ","","exp-sent","parede.","","",""
"","null","html-keyboard-response","346","1791491","0.0-3.0-0.282-0.282","<span style= ""font-size:30px; font-family: monospace"">+</span>","null","fixation","","","","",""
"","3407","html-keyboard-response","347","1795150","0.0-3.0-1.282","<span style=""font-size:30px; font-family: monospace"">O</span>"," ","","exp-sent","O","","",""
"","1364","html-keyboard-response","348","1796766","0.0-3.0-1.283","<span style=""font-size:30px; font-family: monospace"">avô</span>"," ","","exp-sent","avô","","",""
"","915","html-keyboard-response","349","1797933","0.0-3.0-1.284","<span style=""font-size:30px; font-family: monospace"">fez</span>"," ","","exp-sent","fez","","",""
"","692","html-keyboard-response","350","1798877","0.0-3.0-1.285","<span style=""font-size:30px; font-family: monospace"">uma</span>"," ","","exp-sent","uma","","",""
"","1749","html-keyboard-response","351","1800878","0.0-3.0-1.286","<span style=""font-size:30px; font-family: monospace"">lista</span>"," ","","exp-sent","lista","","",""
"","1205","html-keyboard-response","352","1802334","0.0-3.0-1.287","<span style=""font-size:30px; font-family: monospace"">de</span>"," ","","exp-sent","de","","",""
"","1796","html-keyboard-response","353","1804382","0.0-3.0-1.288","<span style=""font-size:30px; font-family: monospace"">compras</span>"," ","","exp-sent","compras","","",""
"","1172","html-keyboard-response","354","1805806","0.0-3.0-1.289","<span style=""font-size:30px; font-family: monospace"">do</span>"," ","","exp-sent","do","","",""
"","6517","html-keyboard-response","355","1812574","0.0-3.0-1.290","<span style=""font-size:30px; font-family: monospace"">mercado.</span>"," ","","exp-sent","mercado.","","",""
"","null","html-keyboard-response","356","1813826","0.0-3.0-0.291-0.291","<span style= ""font-size:30px; font-family: monospace"">+</span>","null","fixation","","","","",""
"","1057","html-keyboard-response","357","1815134","0.0-3.0-1.291","<span style=""font-size:30px; font-family: monospace"">As</span>"," ","","exp-sent","As","","",""
"","2484","html-keyboard-response","358","1817870","0.0-3.0-1.292","<span style=""font-size:30px; font-family: monospace"">pessoas</span>"," ","","exp-sent","pessoas","","",""
"","1205","html-keyboard-response","359","1819342","0.0-3.0-1.293","<span style=""font-size:30px; font-family: monospace"">não</span>"," ","","exp-sent","não","","",""
"","1477","html-keyboard-response","360","1821070","0.0-3.0-1.294","<span style=""font-size:30px; font-family: monospace"">enviam</span>"," ","","exp-sent","enviam","","",""
"","2180","html-keyboard-response","361","1823502","0.0-3.0-1.295","<span style=""font-size:30px; font-family: monospace"">telegrama</span>"," ","","exp-sent","telegrama","","",""
"","1028","html-keyboard-response","362","1824782","0.0-3.0-1.296","<span style=""font-size:30px; font-family: monospace"">nos</span>"," ","","exp-sent","nos","","",""
"","660","html-keyboard-response","363","1825694","0.0-3.0-1.297","<span style=""font-size:30px; font-family: monospace"">dias</span>"," ","","exp-sent","dias","","",""
"","489","html-keyboard-response","364","1826446","0.0-3.0-1.298","<span style=""font-size:30px; font-family: monospace"">de</span>"," ","","exp-sent","de","","",""
"","1652","html-keyboard-response","365","1828350","0.0-3.0-1.299","<span style=""font-size:30px; font-family: monospace"">hoje.</span>"," ","","exp-sent","hoje.","","",""
"","null","html-keyboard-response","366","1829602","0.0-3.0-0.300-0.300","<span style= ""font-size:30px; font-family: monospace"">+</span>","null","fixation","","","","",""
"","752","html-keyboard-response","367","1830606","0.0-3.0-1.300","<span style=""font-size:30px; font-family: monospace"">Ele</span>"," ","","exp-sent","Ele","","",""
"","805","html-keyboard-response","368","1831662","0.0-3.0-1.301","<span style=""font-size:30px; font-family: monospace"">não</span>"," ","","exp-sent","não","","",""
"","1061","html-keyboard-response","369","1832974","0.0-3.0-1.302","<span style=""font-size:30px; font-family: monospace"">gosta</span>"," ","","exp-sent","gosta","","",""
"","2041","html-keyboard-response","370","1835278","0.0-3.0-1.303","<span style=""font-size:30px; font-family: monospace"">de</span>"," ","","exp-sent","de","","",""
"","964","html-keyboard-response","371","1836494","0.0-3.0-1.304","<span style=""font-size:30px; font-family: monospace"">tomate</span>"," ","","exp-sent","tomate","","",""
"","1204","html-keyboard-response","372","1837950","0.0-3.0-1.305","<span style=""font-size:30px; font-family: monospace"">misturado</span>"," ","","exp-sent","misturado","","",""
"","789","html-keyboard-response","373","1838990","0.0-3.0-1.306","<span style=""font-size:30px; font-family: monospace"">na</span>"," ","","exp-sent","na","","",""
"","900","html-keyboard-response","374","1840142","0.0-3.0-1.307","<span style=""font-size:30px; font-family: monospace"">comida.</span>"," ","","comp","comida.","","",""
"","6485","html-keyboard-response","375","1846878","0.0-3.0-2.307-0.307","<span style=""font-size:30px; font-family: monospace"">Ele gosta de tomate na comida?</span>","n","","comp","","Ele gosta de tomate na comida?","não","false"
"","null","html-keyboard-response","376","1848380","0.0-3.0-0.308-0.308","<span style= ""font-size:30px; font-family: monospace"">+</span>","null","fixation","","","","",""
"","11591","html-keyboard-response","377","1860222","0.0-3.0-1.308","<span style=""font-size:30px; font-family: monospace"">As</span>"," ","","exp-sent","As","","",""
"","644","html-keyboard-response","378","1861118","0.0-3.0-1.309","<span style=""font-size:30px; font-family: monospace"">crianças</span>"," ","","exp-sent","crianças","","",""
"","564","html-keyboard-response","379","1861934","0.0-3.0-1.310","<span style=""font-size:30px; font-family: monospace"">viram</span>"," ","","exp-sent","viram","","",""
"","500","html-keyboard-response","380","1862686","0.0-3.0-1.311","<span style=""font-size:30px; font-family: monospace"">um</span>"," ","","exp-sent","um","","",""
"","868","html-keyboard-response","381","1863806","0.0-3.0-1.312","<span style=""font-size:30px; font-family: monospace"">vaga-lume</span>"," ","","exp-sent","vaga-lume","","",""
"","596","html-keyboard-response","382","1864654","0.0-3.0-1.313","<span style=""font-size:30px; font-family: monospace"">nos</span>"," ","","exp-sent","nos","","",""
"","1092","html-keyboard-response","383","1865998","0.0-3.0-1.314","<span style=""font-size:30px; font-family: monospace"">arbustos.</span>"," ","","exp-sent","arbustos.","","",""
"","null","html-keyboard-response","384","1867251","0.0-3.0-0.315-0.315","<span style= ""font-size:30px; font-family: monospace"">+</span>","null","fixation","","","","",""
"","784","html-keyboard-response","385","1868286","0.0-3.0-1.315","<span style=""font-size:30px; font-family: monospace"">Ontem</span>"," ","","exp-sent","Ontem","","",""
"","516","html-keyboard-response","386","1869053","0.0-3.0-1.316","<span style=""font-size:30px; font-family: monospace"">o</span>"," ","","exp-sent","o","","",""
"","1653","html-keyboard-response","387","1870958","0.0-3.0-1.317","<span style=""font-size:30px; font-family: monospace"">funcionário</span>"," ","","exp-sent","funcionário","","",""
"","788","html-keyboard-response","388","1871997","0.0-3.0-1.318","<span style=""font-size:30px; font-family: monospace"">pediu</span>"," ","","exp-sent","pediu","","",""
"","2051","html-keyboard-response","389","1874301","0.0-3.0-1.319","<span style=""font-size:30px; font-family: monospace"">autorização</span>"," ","","exp-sent","autorização","","",""
"","1861","html-keyboard-response","390","1876414","0.0-3.0-1.320","<span style=""font-size:30px; font-family: monospace"">para</span>"," ","","exp-sent","para","","",""
"","692","html-keyboard-response","391","1877358","0.0-3.0-1.321","<span style=""font-size:30px; font-family: monospace"">a</span>"," ","","exp-sent","a","","",""
"","1060","html-keyboard-response","392","1878669","0.0-3.0-1.322","<span style=""font-size:30px; font-family: monospace"">colega.</span>"," ","","exp-sent","colega.","","",""
"","null","html-keyboard-response","393","1879922","0.0-3.0-0.323-0.323","<span style= ""font-size:30px; font-family: monospace"">+</span>","null","fixation","","","","",""
"","1186","html-keyboard-response","394","1881374","0.0-3.0-1.323","<span style=""font-size:30px; font-family: monospace"">Eu</span>"," ","","exp-sent","Eu","","",""
"","884","html-keyboard-response","395","1882509","0.0-3.0-1.324","<span style=""font-size:30px; font-family: monospace"">sempre</span>"," ","","exp-sent","sempre","","",""
"","4693","html-keyboard-response","396","1887454","0.0-3.0-1.325","<span style=""font-size:30px; font-family: monospace"">fujo</span>"," ","","exp-sent","fujo","","",""
"","1435","html-keyboard-response","397","1889149","0.0-3.0-1.326","<span style=""font-size:30px; font-family: monospace"">de</span>"," ","","exp-sent","de","","",""
"","2309","html-keyboard-response","398","1891710","0.0-3.0-1.327","<span style=""font-size:30px; font-family: monospace"">conflito</span>"," ","","exp-sent","conflito","","",""
"","980","html-keyboard-response","399","1892941","0.0-3.0-1.328","<span style=""font-size:30px; font-family: monospace"">com</span>"," ","","exp-sent","com","","",""
"","708","html-keyboard-response","400","1893901","0.0-3.0-1.329","<span style=""font-size:30px; font-family: monospace"">as</span>"," ","","exp-sent","as","","",""
"","1349","html-keyboard-response","401","1895502","0.0-3.0-1.330","<span style=""font-size:30px; font-family: monospace"">pessoas.</span>"," ","","exp-sent","pessoas.","","",""
"","null","html-keyboard-response","402","1896755","0.0-3.0-0.331-0.331","<span style= ""font-size:30px; font-family: monospace"">+</span>","null","fixation","","","","",""
"","7359","html-keyboard-response","403","1904365","0.0-3.0-1.331","<span style=""font-size:30px; font-family: monospace"">O</span>"," ","","exp-sent","O","","",""
"","3172","html-keyboard-response","404","1907790","0.0-3.0-1.332","<span style=""font-size:30px; font-family: monospace"">bolo</span>"," ","","exp-sent","bolo","","",""
"","3076","html-keyboard-response","405","1911118","0.0-3.0-1.333","<span style=""font-size:30px; font-family: monospace"">era</span>"," ","","exp-sent","era","","",""
"","1524","html-keyboard-response","406","1912893","0.0-3.0-1.334","<span style=""font-size:30px; font-family: monospace"">de</span>"," ","","exp-sent","de","","",""
"","1557","html-keyboard-response","407","1914702","0.0-3.0-1.335","<span style=""font-size:30px; font-family: monospace"">abacaxi</span>"," ","","exp-sent","abacaxi","","",""
"","964","html-keyboard-response","408","1915917","0.0-3.0-1.336","<span style=""font-size:30px; font-family: monospace"">e</span>"," ","","exp-sent","e","","",""
"","2165","html-keyboard-response","409","1918333","0.0-3.0-1.337","<span style=""font-size:30px; font-family: monospace"">creme</span>"," ","","exp-sent","creme","","",""
"","724","html-keyboard-response","410","1919309","0.0-3.0-1.338","<span style=""font-size:30px; font-family: monospace"">de</span>"," ","","exp-sent","de","","",""
"","1364","html-keyboard-response","411","1920925","0.0-3.0-1.339","<span style=""font-size:30px; font-family: monospace"">coco.</span>"," ","","exp-sent","coco.","","",""
"","null","html-keyboard-response","412","1922177","0.0-3.0-0.340-0.340","<span style= ""font-size:30px; font-family: monospace"">+</span>","null","fixation","","","","",""
"","800","html-keyboard-response","413","1923229","0.0-3.0-1.340","<span style=""font-size:30px; font-family: monospace"">As</span>"," ","","exp-sent","As","","",""
"","789","html-keyboard-response","414","1924269","0.0-3.0-1.341","<span style=""font-size:30px; font-family: monospace"">crianças</span>"," ","","exp-sent","crianças","","",""
"","2517","html-keyboard-response","415","1927038","0.0-3.0-1.342","<span style=""font-size:30px; font-family: monospace"">brincaram</span>"," ","","exp-sent","brincaram","","",""
"","725","html-keyboard-response","416","1928014","0.0-3.0-1.343","<span style=""font-size:30px; font-family: monospace"">com</span>"," ","","exp-sent","com","","",""
"","1060","html-keyboard-response","417","1929325","0.0-3.0-1.344","<span style=""font-size:30px; font-family: monospace"">bolhas</span>"," ","","exp-sent","bolhas","","",""
"","1108","html-keyboard-response","418","1930686","0.0-3.0-1.345","<span style=""font-size:30px; font-family: monospace"">no</span>"," ","","exp-sent","no","","",""
"","1477","html-keyboard-response","419","1932414","0.0-3.0-1.346","<span style=""font-size:30px; font-family: monospace"">banho.</span>"," ","","comp","banho.","","",""
"","8323","html-keyboard-response","420","1940989","0.0-3.0-2.346-0.346","<span style=""font-size:30px; font-family: monospace"">As crianças brincaram com bolhas?</span>","n","","comp","","As crianças brincaram com bolhas?","sim","false"
"","null","html-keyboard-response","421","1942492","0.0-3.0-0.347-0.347","<span style= ""font-size:30px; font-family: monospace"">+</span>","null","fixation","","","","",""
"","1518","html-keyboard-response","422","1944270","0.0-3.0-1.347","<span style=""font-size:30px; font-family: monospace"">Minha</span>"," ","","exp-sent","Minha","","",""
"","28817","html-keyboard-response","423","1973342","0.0-3.0-1.348","<span style=""font-size:30px; font-family: monospace"">prima</span>"," ","","exp-sent","prima","","",""
"","2885","html-keyboard-response","424","1976478","0.0-3.0-1.349","<span style=""font-size:30px; font-family: monospace"">trocou</span>"," ","","exp-sent","trocou","","",""
"","709","html-keyboard-response","425","1977437","0.0-3.0-1.350","<span style=""font-size:30px; font-family: monospace"">a</span>"," ","","exp-sent","a","","",""
"","1013","html-keyboard-response","426","1978701","0.0-3.0-1.351","<span style=""font-size:30px; font-family: monospace"">tela</span>"," ","","exp-sent","tela","","",""
"","628","html-keyboard-response","427","1979582","0.0-3.0-1.352","<span style=""font-size:30px; font-family: monospace"">do</span>"," ","","exp-sent","do","","",""
"","804","html-keyboard-response","428","1980637","0.0-3.0-1.353","<span style=""font-size:30px; font-family: monospace"">celular</span>"," ","","exp-sent","celular","","",""
"","549","html-keyboard-response","429","1981437","0.0-3.0-1.354","<span style=""font-size:30px; font-family: monospace"">duas</span>"," ","","exp-sent","duas","","",""
"","3668","html-keyboard-response","430","1985358","0.0-3.0-1.355","<span style=""font-size:30px; font-family: monospace"">vezes.</span>"," ","","exp-sent","vezes.","","",""
"","null","html-keyboard-response","431","1986610","0.0-3.0-0.356-0.356","<span style= ""font-size:30px; font-family: monospace"">+</span>","null","fixation","","","","",""
"","2208","html-keyboard-response","432","1989070","0.0-3.0-1.356","<span style=""font-size:30px; font-family: monospace"">Agora</span>"," ","","exp-sent","Agora","","",""
"","564","html-keyboard-response","433","1989885","0.0-3.0-1.357","<span style=""font-size:30px; font-family: monospace"">a</span>"," ","","exp-sent","a","","",""
"","533","html-keyboard-response","434","1990669","0.0-3.0-1.358","<span style=""font-size:30px; font-family: monospace"">minha</span>"," ","","exp-sent","minha","","",""
"","2020","html-keyboard-response","435","1992941","0.0-3.0-1.359","<span style=""font-size:30px; font-family: monospace"">única</span>"," ","","exp-sent","única","","",""
"","1924","html-keyboard-response","436","1995117","0.0-3.0-1.360","<span style=""font-size:30px; font-family: monospace"">preocupação</span>"," ","","exp-sent","preocupação","","",""
"","693","html-keyboard-response","437","1996062","0.0-3.0-1.361","<span style=""font-size:30px; font-family: monospace"">é</span>"," ","","exp-sent","é","","",""
"","660","html-keyboard-response","438","1996973","0.0-3.0-1.362","<span style=""font-size:30px; font-family: monospace"">um</span>"," ","","exp-sent","um","","",""
"","1108","html-keyboard-response","439","1998333","0.0-3.0-1.363","<span style=""font-size:30px; font-family: monospace"">descanso</span>"," ","","exp-sent","descanso","","",""
"","4628","html-keyboard-response","440","2003214","0.0-3.0-1.364","<span style=""font-size:30px; font-family: monospace"">tranquilo.</span>"," ","","exp-sent","tranquilo.","","",""
"","null","html-keyboard-response","441","2004467","0.0-3.0-0.365-0.365","<span style= ""font-size:30px; font-family: monospace"">+</span>","null","fixation","","","","",""
"","2560","html-keyboard-response","442","2007278","0.0-3.0-1.365","<span style=""font-size:30px; font-family: monospace"">A</span>"," ","","exp-sent","A","","",""
"","1236","html-keyboard-response","443","2008765","0.0-3.0-1.366","<span style=""font-size:30px; font-family: monospace"">criança</span>"," ","","exp-sent","criança","","",""
"","1957","html-keyboard-response","444","2010973","0.0-3.0-1.367","<span style=""font-size:30px; font-family: monospace"">ganhou</span>"," ","","exp-sent","ganhou","","",""
"","996","html-keyboard-response","445","2012222","0.0-3.0-1.368","<span style=""font-size:30px; font-family: monospace"">um</span>"," ","","exp-sent","um","","",""
"","1700","html-keyboard-response","446","2014173","0.0-3.0-1.369","<span style=""font-size:30px; font-family: monospace"">presente</span>"," ","","exp-sent","presente","","",""
"","2933","html-keyboard-response","447","2017358","0.0-3.0-1.370","<span style=""font-size:30px; font-family: monospace"">maravilhoso.</span>"," ","","exp-sent","maravilhoso.","","",""
"","null","html-keyboard-response","448","2018610","0.0-3.0-0.371-0.371","<span style= ""font-size:30px; font-family: monospace"">+</span>","null","fixation","","","","",""
"","1457","html-keyboard-response","449","2020317","0.0-3.0-1.371","<span style=""font-size:30px; font-family: monospace"">Os</span>"," ","","exp-sent","Os","","",""
"","1444","html-keyboard-response","450","2022014","0.0-3.0-1.372","<span style=""font-size:30px; font-family: monospace"">bichos</span>"," ","","exp-sent","bichos","","",""
"","788","html-keyboard-response","451","2023053","0.0-3.0-1.373","<span style=""font-size:30px; font-family: monospace"">têm</span>"," ","","exp-sent","têm","","",""
"","852","html-keyboard-response","452","2024157","0.0-3.0-1.374","<span style=""font-size:30px; font-family: monospace"">um</span>"," ","","exp-sent","um","","",""
"","2404","html-keyboard-response","453","2026814","0.0-3.0-1.375","<span style=""font-size:30px; font-family: monospace"">instinto</span>"," ","","exp-sent","instinto","","",""
"","1733","html-keyboard-response","454","2028798","0.0-3.0-1.376","<span style=""font-size:30px; font-family: monospace"">de</span>"," ","","exp-sent","de","","",""
"","3251","html-keyboard-response","455","2032301","0.0-3.0-1.377","<span style=""font-size:30px; font-family: monospace"">sobrevivência</span>"," ","","exp-sent","sobrevivência","","",""
"","1364","html-keyboard-response","456","2033917","0.0-3.0-1.378","<span style=""font-size:30px; font-family: monospace"">forte.</span>"," ","","exp-sent","forte.","","",""
"","null","html-keyboard-response","457","2035169","0.0-3.0-0.379-0.379","<span style= ""font-size:30px; font-family: monospace"">+</span>","null","fixation","","","","",""
"","1921","html-keyboard-response","458","2037341","0.0-3.0-1.379","<span style=""font-size:30px; font-family: monospace"">Aquele</span>"," ","","exp-sent","Aquele","","",""
"","2245","html-keyboard-response","459","2039838","0.0-3.0-1.380","<span style=""font-size:30px; font-family: monospace"">menino</span>"," ","","exp-sent","menino","","",""
"","1092","html-keyboard-response","460","2041181","0.0-3.0-1.381","<span style=""font-size:30px; font-family: monospace"">alto</span>"," ","","exp-sent","alto","","",""
"","1235","html-keyboard-response","461","2042669","0.0-3.0-1.382","<span style=""font-size:30px; font-family: monospace"">é</span>"," ","","exp-sent","é","","",""
"","2372","html-keyboard-response","462","2045292","0.0-3.0-1.383","<span style=""font-size:30px; font-family: monospace"">exibido</span>"," ","","exp-sent","exibido","","",""
"","854","html-keyboard-response","463","2046398","0.0-3.0-1.384","<span style=""font-size:30px; font-family: monospace"">e</span>"," ","","exp-sent","e","","",""
"","1779","html-keyboard-response","464","2048429","0.0-3.0-1.385","<span style=""font-size:30px; font-family: monospace"">sovina.</span>"," ","","comp","sovina.","","",""
"","16073","html-keyboard-response","465","2064765","0.0-3.0-2.385-0.385","<span style=""font-size:30px; font-family: monospace"">Aquele menino é humilde?</span>","n","","comp","","Aquele menino é humilde?","não","false"
"","null","html-keyboard-response","466","2066268","0.0-3.0-0.386-0.386","<span style= ""font-size:30px; font-family: monospace"">+</span>","null","fixation","","","","",""
"","19574","html-keyboard-response","467","2086093","0.0-3.0-1.386","<span style=""font-size:30px; font-family: monospace"">Barulho</span>"," ","","exp-sent","Barulho","","",""
"","676","html-keyboard-response","468","2087021","0.0-3.0-1.387","<span style=""font-size:30px; font-family: monospace"">de</span>"," ","","exp-sent","de","","",""
"","775","html-keyboard-response","469","2088061","0.0-3.0-1.388","<span style=""font-size:30px; font-family: monospace"">carros</span>"," ","","exp-sent","carros","","",""
"","597","html-keyboard-response","470","2088924","0.0-3.0-1.389","<span style=""font-size:30px; font-family: monospace"">é</span>"," ","","exp-sent","é","","",""
"","932","html-keyboard-response","471","2090109","0.0-3.0-1.390","<span style=""font-size:30px; font-family: monospace"">irritante</span>"," ","","exp-sent","irritante","","",""
"","677","html-keyboard-response","472","2091037","0.0-3.0-1.391","<span style=""font-size:30px; font-family: monospace"">para</span>"," ","","exp-sent","para","","",""
"","517","html-keyboard-response","473","2091804","0.0-3.0-1.392","<span style=""font-size:30px; font-family: monospace"">a</span>"," ","","exp-sent","a","","",""
"","1749","html-keyboard-response","474","2093805","0.0-3.0-1.393","<span style=""font-size:30px; font-family: monospace"">moça.</span>"," ","","exp-sent","moça.","","",""
"","null","html-keyboard-response","475","2095056","0.0-3.0-0.394-0.394","<span style= ""font-size:30px; font-family: monospace"">+</span>","null","fixation","","","","",""
"","769","html-keyboard-response","476","2096077","0.0-3.0-1.394","<span style=""font-size:30px; font-family: monospace"">A</span>"," ","","exp-sent","A","","",""
"","757","html-keyboard-response","477","2097085","0.0-3.0-1.395","<span style=""font-size:30px; font-family: monospace"">loja</span>"," ","","exp-sent","loja","","",""
"","804","html-keyboard-response","478","2098141","0.0-3.0-1.396","<span style=""font-size:30px; font-family: monospace"">também</span>"," ","","exp-sent","também","","",""
"","653","html-keyboard-response","479","2099053","0.0-3.0-1.397","<span style=""font-size:30px; font-family: monospace"">vende</span>"," ","","exp-sent","vende","","",""
"","1363","html-keyboard-response","480","2100668","0.0-3.0-1.398","<span style=""font-size:30px; font-family: monospace"">taça</span>"," ","","exp-sent","taça","","",""
"","502","html-keyboard-response","481","2101421","0.0-3.0-1.399","<span style=""font-size:30px; font-family: monospace"">de</span>"," ","","exp-sent","de","","",""
"","823","html-keyboard-response","482","2102509","0.0-3.0-1.400","<span style=""font-size:30px; font-family: monospace"">vinho</span>"," ","","exp-sent","vinho","","",""
"","836","html-keyboard-response","483","2103597","0.0-3.0-1.401","<span style=""font-size:30px; font-family: monospace"">e</span>"," ","","exp-sent","e","","",""
"","3605","html-keyboard-response","484","2107453","0.0-3.0-1.402","<span style=""font-size:30px; font-family: monospace"">espumante.</span>"," ","","exp-sent","espumante.","","",""
"","null","html-keyboard-response","485","2108705","0.0-3.0-0.403-0.403","<span style= ""font-size:30px; font-family: monospace"">+</span>","null","fixation","","","","",""
"","592","html-keyboard-response","486","2109548","0.0-3.0-1.403","<span style=""font-size:30px; font-family: monospace"">A</span>"," ","","exp-sent","A","","",""
"","997","html-keyboard-response","487","2110796","0.0-3.0-1.404","<span style=""font-size:30px; font-family: monospace"">bruxa</span>"," ","","exp-sent","bruxa","","",""
"","1173","html-keyboard-response","488","2112221","0.0-3.0-1.405","<span style=""font-size:30px; font-family: monospace"">tinha</span>"," ","","exp-sent","tinha","","",""
"","741","html-keyboard-response","489","2113213","0.0-3.0-1.406","<span style=""font-size:30px; font-family: monospace"">uma</span>"," ","","exp-sent","uma","","",""
"","1732","html-keyboard-response","490","2115197","0.0-3.0-1.407","<span style=""font-size:30px; font-family: monospace"">vassoura</span>"," ","","exp-sent","vassoura","","",""
"","947","html-keyboard-response","491","2116397","0.0-3.0-1.408","<span style=""font-size:30px; font-family: monospace"">e</span>"," ","","exp-sent","e","","",""
"","821","html-keyboard-response","492","2117469","0.0-3.0-1.409","<span style=""font-size:30px; font-family: monospace"">um</span>"," ","","exp-sent","um","","",""
"","1827","html-keyboard-response","493","2119549","0.0-3.0-1.410","<span style=""font-size:30px; font-family: monospace"">gato.</span>"," ","","exp-sent","gato.","","",""
"","null","html-keyboard-response","494","2120801","0.0-3.0-0.411-0.411","<span style= ""font-size:30px; font-family: monospace"">+</span>","null","fixation","","","","",""
"","689","html-keyboard-response","495","2121741","0.0-3.0-1.411","<span style=""font-size:30px; font-family: monospace"">Eu</span>"," ","","exp-sent","Eu","","",""
"","2563","html-keyboard-response","496","2124556","0.0-3.0-1.412","<span style=""font-size:30px; font-family: monospace"">me</span>"," ","","exp-sent","me","","",""
"","1845","html-keyboard-response","497","2126651","0.0-3.0-1.413","<span style=""font-size:30px; font-family: monospace"">divirto</span>"," ","","exp-sent","divirto","","",""
"","948","html-keyboard-response","498","2127851","0.0-3.0-1.414","<span style=""font-size:30px; font-family: monospace"">em</span>"," ","","exp-sent","em","","",""
"","1414","html-keyboard-response","499","2129515","0.0-3.0-1.415","<span style=""font-size:30px; font-family: monospace"">festas</span>"," ","","exp-sent","festas","","",""
"","1364","html-keyboard-response","500","2131131","0.0-3.0-1.416","<span style=""font-size:30px; font-family: monospace"">de</span>"," ","","exp-sent","de","","",""
"","2212","html-keyboard-response","501","2133596","0.0-3.0-1.417","<span style=""font-size:30px; font-family: monospace"">criança.</span>"," ","","exp-sent","criança.","","",""
"","null","html-keyboard-response","502","2134848","0.0-3.0-0.418-0.418","<span style= ""font-size:30px; font-family: monospace"">+</span>","null","fixation","","","","",""
"","766","html-keyboard-response","503","2135866","0.0-3.0-1.418","<span style=""font-size:30px; font-family: monospace"">A</span>"," ","","exp-sent","A","","",""
"","1573","html-keyboard-response","504","2137691","0.0-3.0-1.419","<span style=""font-size:30px; font-family: monospace"">janela</span>"," ","","exp-sent","janela","","",""
"","1445","html-keyboard-response","505","2139387","0.0-3.0-1.420","<span style=""font-size:30px; font-family: monospace"">alta</span>"," ","","exp-sent","alta","","",""
"","1396","html-keyboard-response","506","2141035","0.0-3.0-1.421","<span style=""font-size:30px; font-family: monospace"">estava</span>"," ","","exp-sent","estava","","",""
"","2308","html-keyboard-response","507","2143596","0.0-3.0-1.422","<span style=""font-size:30px; font-family: monospace"">quebrada</span>"," ","","exp-sent","quebrada","","",""
"","1189","html-keyboard-response","508","2145035","0.0-3.0-1.423","<span style=""font-size:30px; font-family: monospace"">desde</span>"," ","","exp-sent","desde","","",""
"","2020","html-keyboard-response","509","2147307","0.0-3.0-1.424","<span style=""font-size:30px; font-family: monospace"">ontem.</span>"," ","","comp","ontem.","","",""
"","22101","html-keyboard-response","510","2169659","0.0-3.0-2.424-0.424","<span style=""font-size:30px; font-family: monospace"">A janela alta estava quebrada?</span>","s","","comp","","A janela alta estava quebrada?","sim","false"
"","null","html-keyboard-response","511","2171162","0.0-3.0-0.425-0.425","<span style= ""font-size:30px; font-family: monospace"">+</span>","null","fixation","","","","",""
"","1109","html-keyboard-response","512","2172523","0.0-3.0-1.425","<span style=""font-size:30px; font-family: monospace"">A</span>"," ","","exp-sent","A","","",""
"","1045","html-keyboard-response","513","2173819","0.0-3.0-1.426","<span style=""font-size:30px; font-family: monospace"">senhora</span>"," ","","exp-sent","senhora","","",""
"","693","html-keyboard-response","514","2174763","0.0-3.0-1.427","<span style=""font-size:30px; font-family: monospace"">cumprimentou</span>"," ","","exp-sent","cumprimentou","","",""
"","549","html-keyboard-response","515","2175563","0.0-3.0-1.428","<span style=""font-size:30px; font-family: monospace"">o</span>"," ","","exp-sent","o","","",""
"","645","html-keyboard-response","516","2176459","0.0-3.0-1.429","<span style=""font-size:30px; font-family: monospace"">operador</span>"," ","","exp-sent","operador","","",""
"","549","html-keyboard-response","517","2177259","0.0-3.0-1.430","<span style=""font-size:30px; font-family: monospace"">de</span>"," ","","exp-sent","de","","",""
"","580","html-keyboard-response","518","2178091","0.0-3.0-1.431","<span style=""font-size:30px; font-family: monospace"">caixa.</span>"," ","","exp-sent","caixa.","","",""
"","null","html-keyboard-response","519","2179344","0.0-3.0-0.432-0.432","<span style= ""font-size:30px; font-family: monospace"">+</span>","null","fixation","","","","",""
"","832","html-keyboard-response","520","2180426","0.0-3.0-1.432","<span style=""font-size:30px; font-family: monospace"">A</span>"," ","","exp-sent","A","","",""
"","758","html-keyboard-response","521","2181435","0.0-3.0-1.433","<span style=""font-size:30px; font-family: monospace"">gente</span>"," ","","exp-sent","gente","","",""
"","677","html-keyboard-response","522","2182363","0.0-3.0-1.434","<span style=""font-size:30px; font-family: monospace"">viu</span>"," ","","exp-sent","viu","","",""
"","1156","html-keyboard-response","523","2183771","0.0-3.0-1.435","<span style=""font-size:30px; font-family: monospace"">o</span>"," ","","exp-sent","o","","",""
"","1521","html-keyboard-response","524","2185545","0.0-3.0-1.436","<span style=""font-size:30px; font-family: monospace"">eclipse</span>"," ","","exp-sent","eclipse","","",""
"","868","html-keyboard-response","525","2186665","0.0-3.0-1.437","<span style=""font-size:30px; font-family: monospace"">lunar</span>"," ","","exp-sent","lunar","","",""
"","725","html-keyboard-response","526","2187641","0.0-3.0-1.438","<span style=""font-size:30px; font-family: monospace"">durante</span>"," ","","exp-sent","durante","","",""
"","563","html-keyboard-response","527","2188457","0.0-3.0-1.439","<span style=""font-size:30px; font-family: monospace"">o</span>"," ","","exp-sent","o","","",""
"","1989","html-keyboard-response","528","2190697","0.0-3.0-1.440","<span style=""font-size:30px; font-family: monospace"">dia.</span>"," ","","exp-sent","dia.","","",""
"","null","html-keyboard-response","529","2191949","0.0-3.0-0.441-0.441","<span style= ""font-size:30px; font-family: monospace"">+</span>","null","fixation","","","","",""
"","816","html-keyboard-response","530","2193017","0.0-3.0-1.441","<span style=""font-size:30px; font-family: monospace"">A</span>"," ","","exp-sent","A","","",""
"","2709","html-keyboard-response","531","2195977","0.0-3.0-1.442","<span style=""font-size:30px; font-family: monospace"">mordida</span>"," ","","exp-sent","mordida","","",""
"","1476","html-keyboard-response","532","2197705","0.0-3.0-1.443","<span style=""font-size:30px; font-family: monospace"">do</span>"," ","","exp-sent","do","","",""
"","2468","html-keyboard-response","533","2200425","0.0-3.0-1.444","<span style=""font-size:30px; font-family: monospace"">cachorro</span>"," ","","exp-sent","cachorro","","",""
"","1205","html-keyboard-response","534","2201881","0.0-3.0-1.445","<span style=""font-size:30px; font-family: monospace"">voraz</span>"," ","","exp-sent","voraz","","",""
"","932","html-keyboard-response","535","2203065","0.0-3.0-1.446","<span style=""font-size:30px; font-family: monospace"">causou</span>"," ","","exp-sent","causou","","",""
"","821","html-keyboard-response","536","2204136","0.0-3.0-1.447","<span style=""font-size:30px; font-family: monospace"">uma</span>"," ","","exp-sent","uma","","",""
"","1669","html-keyboard-response","537","2206057","0.0-3.0-1.448","<span style=""font-size:30px; font-family: monospace"">cicatriz.</span>"," ","","exp-sent","cicatriz.","","",""
"","null","html-keyboard-response","538","2207310","0.0-3.0-0.449-0.449","<span style= ""font-size:30px; font-family: monospace"">+</span>","null","fixation","","","","",""
"","718","html-keyboard-response","539","2208281","0.0-3.0-1.449","<span style=""font-size:30px; font-family: monospace"">Elas</span>"," ","","exp-sent","Elas","","",""
"","900","html-keyboard-response","540","2209433","0.0-3.0-1.450","<span style=""font-size:30px; font-family: monospace"">não</span>"," ","","exp-sent","não","","",""
"","1012","html-keyboard-response","541","2210697","0.0-3.0-1.451","<span style=""font-size:30px; font-family: monospace"">viram</span>"," ","","exp-sent","viram","","",""
"","2437","html-keyboard-response","542","2213385","0.0-3.0-1.452","<span style=""font-size:30px; font-family: monospace"">nenhuma</span>"," ","","exp-sent","nenhuma","","",""
"","1093","html-keyboard-response","543","2214729","0.0-3.0-1.453","<span style=""font-size:30px; font-family: monospace"">diferença</span>"," ","","exp-sent","diferença","","",""
"","965","html-keyboard-response","544","2215944","0.0-3.0-1.454","<span style=""font-size:30px; font-family: monospace"">entre</span>"," ","","exp-sent","entre","","",""
"","901","html-keyboard-response","545","2217097","0.0-3.0-1.455","<span style=""font-size:30px; font-family: monospace"">os</span>"," ","","exp-sent","os","","",""
"","1620","html-keyboard-response","546","2218969","0.0-3.0-1.456","<span style=""font-size:30px; font-family: monospace"">textos.</span>"," ","","exp-sent","textos.","","",""
"","null","html-keyboard-response","547","2220230","0.0-3.0-0.457-0.457","<span style= ""font-size:30px; font-family: monospace"">+</span>","null","fixation","","","","",""
"","1112","html-keyboard-response","548","2221593","0.0-3.0-1.457","<span style=""font-size:30px; font-family: monospace"">Amanhã</span>"," ","","exp-sent","Amanhã","","",""
"","852","html-keyboard-response","549","2222697","0.0-3.0-1.458","<span style=""font-size:30px; font-family: monospace"">vai</span>"," ","","exp-sent","vai","","",""
"","885","html-keyboard-response","550","2223833","0.0-3.0-1.459","<span style=""font-size:30px; font-family: monospace"">ter</span>"," ","","exp-sent","ter","","",""
"","836","html-keyboard-response","551","2224920","0.0-3.0-1.460","<span style=""font-size:30px; font-family: monospace"">um</span>"," ","","exp-sent","um","","",""
"","1141","html-keyboard-response","552","2226313","0.0-3.0-1.461","<span style=""font-size:30px; font-family: monospace"">bazar</span>"," ","","exp-sent","bazar","","",""
"","1045","html-keyboard-response","553","2227609","0.0-3.0-1.462","<span style=""font-size:30px; font-family: monospace"">no</span>"," ","","exp-sent","no","","",""
"","945","html-keyboard-response","554","2228809","0.0-3.0-1.463","<span style=""font-size:30px; font-family: monospace"">bairro.</span>"," ","","comp","bairro.","","",""
"","7974","html-keyboard-response","555","2237033","0.0-3.0-2.463-0.463","<span style=""font-size:30px; font-family: monospace"">Amanhã vai acontecer um bazar no bairro?</span>","n","","comp","","Amanhã vai acontecer um bazar no bairro?","sim","false"
"","null","html-keyboard-response","556","2238541","0.0-3.0-0.464-0.464","<span style= ""font-size:30px; font-family: monospace"">+</span>","null","fixation","","","","",""
"","1472","html-keyboard-response","557","2240265","0.0-3.0-1.464","<span style=""font-size:30px; font-family: monospace"">Ursos</span>"," ","","exp-sent","Ursos","","",""
"","868","html-keyboard-response","558","2241385","0.0-3.0-1.465","<span style=""font-size:30px; font-family: monospace"">têm</span>"," ","","exp-sent","têm","","",""
"","2004","html-keyboard-response","559","2243640","0.0-3.0-1.466","<span style=""font-size:30px; font-family: monospace"">uma</span>"," ","","exp-sent","uma","","",""
"","645","html-keyboard-response","560","2244537","0.0-3.0-1.467","<span style=""font-size:30px; font-family: monospace"">patada</span>"," ","","exp-sent","patada","","",""
"","468","html-keyboard-response","561","2245257","0.0-3.0-1.468","<span style=""font-size:30px; font-family: monospace"">brutal</span>"," ","","exp-sent","brutal","","",""
"","420","html-keyboard-response","562","2245927","0.0-3.0-1.469","<span style=""font-size:30px; font-family: monospace"">e</span>"," ","","exp-sent","e","","",""
"","386","html-keyboard-response","563","2246567","0.0-3.0-1.470","<span style=""font-size:30px; font-family: monospace"">poderosa.</span>"," ","","exp-sent","poderosa.","","",""
"","null","html-keyboard-response","564","2247819","0.0-3.0-0.471-0.471","<span style= ""font-size:30px; font-family: monospace"">+</span>","null","fixation","","","","",""
"","401","html-keyboard-response","565","2248472","0.0-3.0-1.471","<span style=""font-size:30px; font-family: monospace"">Eu</span>"," ","","exp-sent","Eu","","",""
"","693","html-keyboard-response","566","2249415","0.0-3.0-1.472","<span style=""font-size:30px; font-family: monospace"">fiz</span>"," ","","exp-sent","fiz","","",""
"","436","html-keyboard-response","567","2250104","0.0-3.0-1.473","<span style=""font-size:30px; font-family: monospace"">aulas</span>"," ","","exp-sent","aulas","","",""
"","421","html-keyboard-response","568","2250776","0.0-3.0-1.474","<span style=""font-size:30px; font-family: monospace"">de</span>"," ","","exp-sent","de","","",""
"","1188","html-keyboard-response","569","2252216","0.0-3.0-1.475","<span style=""font-size:30px; font-family: monospace"">espanhol</span>"," ","","exp-sent","espanhol","","",""
"","921","html-keyboard-response","570","2253400","0.0-3.0-1.476","<span style=""font-size:30px; font-family: monospace"">nesta</span>"," ","","exp-sent","nesta","","",""
"","790","html-keyboard-response","571","2254456","0.0-3.0-1.477","<span style=""font-size:30px; font-family: monospace"">cidade.</span>"," ","","exp-sent","cidade.","","",""
"","null","html-keyboard-response","572","2255710","0.0-3.0-0.478-0.478","<span style= ""font-size:30px; font-family: monospace"">+</span>","null","fixation","","","","",""
"","733","html-keyboard-response","573","2256695","0.0-3.0-1.478","<span style=""font-size:30px; font-family: monospace"">Ele</span>"," ","","exp-sent","Ele","","",""
"","1380","html-keyboard-response","574","2258327","0.0-3.0-1.479","<span style=""font-size:30px; font-family: monospace"">comprou</span>"," ","","exp-sent","comprou","","",""
"","1078","html-keyboard-response","575","2259656","0.0-3.0-1.480","<span style=""font-size:30px; font-family: monospace"">mais</span>"," ","","exp-sent","mais","","",""
"","756","html-keyboard-response","576","2260664","0.0-3.0-1.481","<span style=""font-size:30px; font-family: monospace"">uma</span>"," ","","exp-sent","uma","","",""
"","1349","html-keyboard-response","577","2262264","0.0-3.0-1.482","<span style=""font-size:30px; font-family: monospace"">esponja</span>"," ","","exp-sent","esponja","","",""
"","933","html-keyboard-response","578","2263447","0.0-3.0-1.483","<span style=""font-size:30px; font-family: monospace"">para</span>"," ","","exp-sent","para","","",""
"","821","html-keyboard-response","579","2264520","0.0-3.0-1.484","<span style=""font-size:30px; font-family: monospace"">a</span>"," ","","exp-sent","a","","",""
"","4692","html-keyboard-response","580","2269464","0.0-3.0-1.485","<span style=""font-size:30px; font-family: monospace"">cozinha.</span>"," ","","exp-sent","cozinha.","","",""
