[
	{
		"view_history": [
			{
				"page_index": 0,
				"viewing_time": 23333
			},
			{
				"page_index": 1,
				"viewing_time": 16336
			}
		],
		"rt": 39669,
		"trial_type": "instructions",
		"trial_index": 0,
		"time_elapsed": 39670,
		"internal_node_id": "0.0-0.0"
	},
	{
		"rt": null,
		"stimulus": "<span style= \"font-size:30px; font-family: monospace\">+</span>",
		"response": null,
		"trial_part": "fixation",
		"trial_type": "html-keyboard-response",
		"trial_index": 1,
		"time_elapsed": 40773,
		"internal_node_id": "0.0-1.0-0.0-0.0"
	},
	{
		"rt": 6760,
		"stimulus": "../audio/prac-question-1-1.mp3",
		"response": " ",
		"word": "O",
		"trial_type": "audio-keyboard-response",
		"trial_index": 2,
		"time_elapsed": 48014,
		"internal_node_id": "0.0-1.0-1.0"
	},
	{
		"rt": 2739,
		"stimulus": "../audio/prac-question-1-2.mp3",
		"response": " ",
		"word": "dia",
		"trial_type": "audio-keyboard-response",
		"trial_index": 3,
		"time_elapsed": 51038,
		"internal_node_id": "0.0-1.0-1.1"
	},
	{
		"rt": 1821,
		"stimulus": "../audio/prac-question-1-3.mp3",
		"response": " ",
		"word": "estará",
		"trial_type": "audio-keyboard-response",
		"trial_index": 4,
		"time_elapsed": 53150,
		"internal_node_id": "0.0-1.0-1.2"
	},
	{
		"rt": 2229,
		"stimulus": "../audio/prac-question-1-4.mp3",
		"response": " ",
		"word": "cheio",
		"trial_type": "audio-keyboard-response",
		"trial_index": 5,
		"time_elapsed": 55677,
		"internal_node_id": "0.0-1.0-1.3"
	},
	{
		"rt": 3251,
		"stimulus": "../audio/prac-question-1-5.mp3",
		"response": " ",
		"word": "de",
		"trial_type": "audio-keyboard-response",
		"trial_index": 6,
		"time_elapsed": 59213,
		"internal_node_id": "0.0-1.0-1.4"
	},
	{
		"rt": 1832,
		"stimulus": "../audio/prac-question-1-6.mp3",
		"response": " ",
		"word": "nuvens",
		"trial_type": "audio-keyboard-response",
		"trial_index": 7,
		"time_elapsed": 61341,
		"internal_node_id": "0.0-1.0-1.5"
	},
	{
		"rt": 2251,
		"stimulus": "../audio/prac-question-1-7.mp3",
		"response": " ",
		"word": "hoje.",
		"trial_type": "audio-keyboard-response",
		"trial_index": 8,
		"time_elapsed": 63885,
		"internal_node_id": "0.0-1.0-1.6"
	},
	{
		"rt": null,
		"stimulus": "<span style= \"font-size:30px; font-family: monospace\">+</span>",
		"response": null,
		"trial_part": "fixation",
		"trial_type": "html-keyboard-response",
		"trial_index": 9,
		"time_elapsed": 65154,
		"internal_node_id": "0.0-1.0-0.7-0.7"
	},
	{
		"rt": 1349,
		"stimulus": "../audio/prac-question-2-1.mp3",
		"response": " ",
		"word": "A",
		"trial_type": "audio-keyboard-response",
		"trial_index": 10,
		"time_elapsed": 66797,
		"internal_node_id": "0.0-1.0-1.7"
	},
	{
		"rt": 1592,
		"stimulus": "../audio/prac-question-2-2.mp3",
		"response": " ",
		"word": "caneca",
		"trial_type": "audio-keyboard-response",
		"trial_index": 11,
		"time_elapsed": 68669,
		"internal_node_id": "0.0-1.0-1.8"
	},
	{
		"rt": 1819,
		"stimulus": "../audio/prac-question-2-3.mp3",
		"response": " ",
		"word": "colorida",
		"trial_type": "audio-keyboard-response",
		"trial_index": 12,
		"time_elapsed": 70765,
		"internal_node_id": "0.0-1.0-1.9"
	},
	{
		"rt": 1429,
		"stimulus": "../audio/prac-question-2-4.mp3",
		"response": " ",
		"word": "caiu",
		"trial_type": "audio-keyboard-response",
		"trial_index": 13,
		"time_elapsed": 72477,
		"internal_node_id": "0.0-1.0-1.10"
	},
	{
		"rt": 1160,
		"stimulus": "../audio/prac-question-2-5.mp3",
		"response": " ",
		"word": "da",
		"trial_type": "audio-keyboard-response",
		"trial_index": 14,
		"time_elapsed": 73917,
		"internal_node_id": "0.0-1.0-1.11"
	},
	{
		"rt": 1789,
		"stimulus": "../audio/prac-question-2-6.mp3",
		"response": " ",
		"word": "mesa",
		"trial_type": "audio-keyboard-response",
		"trial_index": 15,
		"time_elapsed": 75997,
		"internal_node_id": "0.0-1.0-1.12"
	},
	{
		"rt": 1181,
		"stimulus": "../audio/prac-question-2-7.mp3",
		"response": " ",
		"word": "de",
		"trial_type": "audio-keyboard-response",
		"trial_index": 16,
		"time_elapsed": 77453,
		"internal_node_id": "0.0-1.0-1.13"
	},
	{
		"rt": 2509,
		"stimulus": "../audio/prac-question-2-8.mp3",
		"response": " ",
		"word": "jantar.",
		"trial_type": "audio-keyboard-response",
		"trial_index": 17,
		"time_elapsed": 80237,
		"internal_node_id": "0.0-1.0-1.14"
	},
	{
		"rt": 4633,
		"stimulus": "<span style=\"font-size:25px; font-family: monospace\">A caneca era colorida?</span>",
		"response": "s",
		"question": "A caneca era colorida?",
		"answer": "null",
		"trial": "prac-sent",
		"trial_type": "html-keyboard-response",
		"trial_index": 18,
		"time_elapsed": 85134,
		"internal_node_id": "0.0-1.0-2.14-0.14",
		"accuracy": false
	},
	{
		"view_history": [
			{
				"page_index": 0,
				"viewing_time": 4423
			}
		],
		"rt": 4423,
		"trial_type": "instructions",
		"trial_index": 19,
		"time_elapsed": 90061,
		"internal_node_id": "0.0-2.0"
	},
	{
		"rt": null,
		"stimulus": "<span style= \"font-size:30px; font-family: monospace\">+</span>",
		"response": null,
		"trial_part": "fixation",
		"trial_type": "html-keyboard-response",
		"trial_index": 20,
		"time_elapsed": 91182,
		"internal_node_id": "0.0-3.0-0.0-0.0"
	},
	{
		"rt": 4480,
		"stimulus": "../audio/23-1-masc.mp3",
		"response": " ",
		"word": "Português",
		"trial_type": "audio-keyboard-response",
		"trial_index": 21,
		"time_elapsed": 95965,
		"internal_node_id": "0.0-3.0-1.0"
	},
	{
		"rt": 1691,
		"stimulus": "../audio/23-2-masc.mp3",
		"response": " ",
		"word": "é",
		"trial_type": "audio-keyboard-response",
		"trial_index": 22,
		"time_elapsed": 97933,
		"internal_node_id": "0.0-3.0-1.1"
	},
	{
		"rt": 1669,
		"stimulus": "../audio/23-3-masc.mp3",
		"response": " ",
		"word": "um",
		"trial_type": "audio-keyboard-response",
		"trial_index": 23,
		"time_elapsed": 99885,
		"internal_node_id": "0.0-3.0-1.2"
	},
	{
		"rt": 1901,
		"stimulus": "../audio/23-4-masc.mp3",
		"response": " ",
		"word": "assunto",
		"trial_type": "audio-keyboard-response",
		"trial_index": 24,
		"time_elapsed": 102061,
		"internal_node_id": "0.0-3.0-1.3"
	},
	{
		"rt": 3189,
		"stimulus": "../audio/23-5-masc.mp3",
		"response": " ",
		"word": "elementar",
		"trial_type": "audio-keyboard-response",
		"trial_index": 25,
		"time_elapsed": 105533,
		"internal_node_id": "0.0-3.0-1.4"
	},
	{
		"rt": 1869,
		"stimulus": "../audio/23-6-masc.mp3",
		"response": " ",
		"word": "para",
		"trial_type": "audio-keyboard-response",
		"trial_index": 26,
		"time_elapsed": 107693,
		"internal_node_id": "0.0-3.0-1.5"
	},
	{
		"rt": 1459,
		"stimulus": "../audio/23-7-masc.mp3",
		"response": " ",
		"word": "os",
		"trial_type": "audio-keyboard-response",
		"trial_index": 27,
		"time_elapsed": 109437,
		"internal_node_id": "0.0-3.0-1.6"
	},
	{
		"rt": 2040,
		"stimulus": "../audio/23-8-masc.mp3",
		"response": " ",
		"word": "alunos.",
		"trial_type": "audio-keyboard-response",
		"trial_index": 28,
		"time_elapsed": 111757,
		"internal_node_id": "0.0-3.0-1.7"
	},
	{
		"rt": null,
		"stimulus": "<span style= \"font-size:30px; font-family: monospace\">+</span>",
		"response": null,
		"trial_part": "fixation",
		"trial_type": "html-keyboard-response",
		"trial_index": 29,
		"time_elapsed": 113026,
		"internal_node_id": "0.0-3.0-0.8-0.8"
	},
	{
		"rt": 541,
		"stimulus": "../audio/21-1-masc.mp3",
		"response": " ",
		"word": "Precisamos",
		"trial_type": "audio-keyboard-response",
		"trial_index": 30,
		"time_elapsed": 113869,
		"internal_node_id": "0.0-3.0-1.8"
	},
	{
		"rt": 1872,
		"stimulus": "../audio/21-2-masc.mp3",
		"response": " ",
		"word": "de",
		"trial_type": "audio-keyboard-response",
		"trial_index": 31,
		"time_elapsed": 116028,
		"internal_node_id": "0.0-3.0-1.9"
	},
	{
		"rt": 1861,
		"stimulus": "../audio/21-3-masc.mp3",
		"response": " ",
		"word": "paciência",
		"trial_type": "audio-keyboard-response",
		"trial_index": 32,
		"time_elapsed": 118189,
		"internal_node_id": "0.0-3.0-1.10"
	},
	{
		"rt": 1389,
		"stimulus": "../audio/21-4-masc.mp3",
		"response": " ",
		"word": "e",
		"trial_type": "audio-keyboard-response",
		"trial_index": 33,
		"time_elapsed": 119852,
		"internal_node_id": "0.0-3.0-1.11"
	},
	{
		"rt": 1760,
		"stimulus": "../audio/21-5-masc.mp3",
		"response": " ",
		"word": "bondade",
		"trial_type": "audio-keyboard-response",
		"trial_index": 34,
		"time_elapsed": 121901,
		"internal_node_id": "0.0-3.0-1.12"
	},
	{
		"rt": 1552,
		"stimulus": "../audio/21-6-masc.mp3",
		"response": " ",
		"word": "para",
		"trial_type": "audio-keyboard-response",
		"trial_index": 35,
		"time_elapsed": 123740,
		"internal_node_id": "0.0-3.0-1.13"
	},
	{
		"rt": 1259,
		"stimulus": "../audio/21-7-masc.mp3",
		"response": " ",
		"word": "um",
		"trial_type": "audio-keyboard-response",
		"trial_index": 36,
		"time_elapsed": 125276,
		"internal_node_id": "0.0-3.0-1.14"
	},
	{
		"rt": 1661,
		"stimulus": "../audio/21-8-masc.mp3",
		"response": " ",
		"word": "mundo",
		"trial_type": "audio-keyboard-response",
		"trial_index": 37,
		"time_elapsed": 127212,
		"internal_node_id": "0.0-3.0-1.15"
	},
	{
		"rt": 2600,
		"stimulus": "../audio/21-9-masc.mp3",
		"response": " ",
		"word": "melhor.",
		"trial_type": "audio-keyboard-response",
		"trial_index": 38,
		"time_elapsed": 130109,
		"internal_node_id": "0.0-3.0-1.16"
	},
	{
		"rt": null,
		"stimulus": "<span style= \"font-size:30px; font-family: monospace\">+</span>",
		"response": null,
		"trial_part": "fixation",
		"trial_type": "html-keyboard-response",
		"trial_index": 39,
		"time_elapsed": 131364,
		"internal_node_id": "0.0-3.0-0.17-0.17"
	},
	{
		"rt": 1989,
		"stimulus": "../audio/24-1-masc.mp3",
		"response": " ",
		"word": "As",
		"trial_type": "audio-keyboard-response",
		"trial_index": 40,
		"time_elapsed": 133644,
		"internal_node_id": "0.0-3.0-1.17"
	},
	{
		"rt": 1779,
		"stimulus": "../audio/24-2-masc.mp3",
		"response": " ",
		"word": "crianças",
		"trial_type": "audio-keyboard-response",
		"trial_index": 41,
		"time_elapsed": 135724,
		"internal_node_id": "0.0-3.0-1.18"
	},
	{
		"rt": 1301,
		"stimulus": "../audio/24-3-masc.mp3",
		"response": " ",
		"word": "vão",
		"trial_type": "audio-keyboard-response",
		"trial_index": 42,
		"time_elapsed": 137308,
		"internal_node_id": "0.0-3.0-1.19"
	},
	{
		"rt": 1512,
		"stimulus": "../audio/24-4-masc.mp3",
		"response": " ",
		"word": "ao",
		"trial_type": "audio-keyboard-response",
		"trial_index": 43,
		"time_elapsed": 139100,
		"internal_node_id": "0.0-3.0-1.20"
	},
	{
		"rt": 1589,
		"stimulus": "../audio/24-5-masc.mp3",
		"response": " ",
		"word": "cinema",
		"trial_type": "audio-keyboard-response",
		"trial_index": 44,
		"time_elapsed": 140972,
		"internal_node_id": "0.0-3.0-1.21"
	},
	{
		"rt": 1528,
		"stimulus": "../audio/24-6-masc.mp3",
		"response": " ",
		"word": "mais",
		"trial_type": "audio-keyboard-response",
		"trial_index": 45,
		"time_elapsed": 142797,
		"internal_node_id": "0.0-3.0-1.22"
	},
	{
		"rt": 2269,
		"stimulus": "../audio/24-7-masc.mp3",
		"response": " ",
		"word": "tarde.",
		"trial_type": "audio-keyboard-response",
		"trial_index": 46,
		"time_elapsed": 145357,
		"internal_node_id": "0.0-3.0-1.23"
	},
	{
		"rt": null,
		"stimulus": "<span style= \"font-size:30px; font-family: monospace\">+</span>",
		"response": null,
		"trial_part": "fixation",
		"trial_type": "html-keyboard-response",
		"trial_index": 47,
		"time_elapsed": 146624,
		"internal_node_id": "0.0-3.0-0.24-0.24"
	},
	{
		"rt": 1451,
		"stimulus": "../audio/22-1-fem.mp3",
		"response": " ",
		"word": "Eu",
		"trial_type": "audio-keyboard-response",
		"trial_index": 48,
		"time_elapsed": 148364,
		"internal_node_id": "0.0-3.0-1.24"
	},
	{
		"rt": 1691,
		"stimulus": "../audio/22-2-fem.mp3",
		"response": " ",
		"word": "detesto",
		"trial_type": "audio-keyboard-response",
		"trial_index": 49,
		"time_elapsed": 150332,
		"internal_node_id": "0.0-3.0-1.25"
	},
	{
		"rt": 1520,
		"stimulus": "../audio/22-3-fem.mp3",
		"response": " ",
		"word": "fumaça",
		"trial_type": "audio-keyboard-response",
		"trial_index": 50,
		"time_elapsed": 152141,
		"internal_node_id": "0.0-3.0-1.26"
	},
	{
		"rt": 1192,
		"stimulus": "../audio/22-4-fem.mp3",
		"response": " ",
		"word": "de",
		"trial_type": "audio-keyboard-response",
		"trial_index": 51,
		"time_elapsed": 153628,
		"internal_node_id": "0.0-3.0-1.27"
	},
	{
		"rt": 1752,
		"stimulus": "../audio/22-5-fem.mp3",
		"response": " ",
		"word": "cachimbo",
		"trial_type": "audio-keyboard-response",
		"trial_index": 52,
		"time_elapsed": 155661,
		"internal_node_id": "0.0-3.0-1.28"
	},
	{
		"rt": 1160,
		"stimulus": "../audio/22-6-fem.mp3",
		"response": " ",
		"word": "e",
		"trial_type": "audio-keyboard-response",
		"trial_index": 53,
		"time_elapsed": 157100,
		"internal_node_id": "0.0-3.0-1.29"
	},
	{
		"rt": 1200,
		"stimulus": "../audio/22-7-fem.mp3",
		"response": " ",
		"word": "de",
		"trial_type": "audio-keyboard-response",
		"trial_index": 54,
		"time_elapsed": 158588,
		"internal_node_id": "0.0-3.0-1.30"
	},
	{
		"rt": 2168,
		"stimulus": "../audio/22-8-fem.mp3",
		"response": " ",
		"word": "cigarro.",
		"trial_type": "audio-keyboard-response",
		"trial_index": 55,
		"time_elapsed": 161036,
		"internal_node_id": "0.0-3.0-1.31"
	},
	{
		"rt": null,
		"stimulus": "<span style= \"font-size:30px; font-family: monospace\">+</span>",
		"response": null,
		"trial_part": "fixation",
		"trial_type": "html-keyboard-response",
		"trial_index": 56,
		"time_elapsed": 162304,
		"internal_node_id": "0.0-3.0-0.32-0.32"
	},
	{
		"rt": 1619,
		"stimulus": "../audio/25-1-masc.mp3",
		"response": " ",
		"word": "Ela",
		"trial_type": "audio-keyboard-response",
		"trial_index": 57,
		"time_elapsed": 164204,
		"internal_node_id": "0.0-3.0-1.32"
	},
	{
		"rt": 1341,
		"stimulus": "../audio/25-2-masc.mp3",
		"response": " ",
		"word": "faz",
		"trial_type": "audio-keyboard-response",
		"trial_index": 58,
		"time_elapsed": 165821,
		"internal_node_id": "0.0-3.0-1.33"
	},
	{
		"rt": 1491,
		"stimulus": "../audio/25-3-masc.mp3",
		"response": " ",
		"word": "tanto",
		"trial_type": "audio-keyboard-response",
		"trial_index": 59,
		"time_elapsed": 167580,
		"internal_node_id": "0.0-3.0-1.34"
	},
	{
		"rt": 1240,
		"stimulus": "../audio/25-4-masc.mp3",
		"response": " ",
		"word": "cabelo",
		"trial_type": "audio-keyboard-response",
		"trial_index": 60,
		"time_elapsed": 169101,
		"internal_node_id": "0.0-3.0-1.35"
	},
	{
		"rt": 1669,
		"stimulus": "../audio/25-5-masc.mp3",
		"response": " ",
		"word": "liso",
		"trial_type": "audio-keyboard-response",
		"trial_index": 61,
		"time_elapsed": 171052,
		"internal_node_id": "0.0-3.0-1.36"
	},
	{
		"rt": 1400,
		"stimulus": "../audio/25-6-masc.mp3",
		"response": " ",
		"word": "quanto",
		"trial_type": "audio-keyboard-response",
		"trial_index": 62,
		"time_elapsed": 172716,
		"internal_node_id": "0.0-3.0-1.37"
	},
	{
		"rt": 2171,
		"stimulus": "../audio/25-7-masc.mp3",
		"response": " ",
		"word": "cacheado.",
		"trial_type": "audio-keyboard-response",
		"trial_index": 63,
		"time_elapsed": 175164,
		"internal_node_id": "0.0-3.0-1.38"
	},
	{
		"rt": 16891,
		"stimulus": "<span style=\"font-size:25px; font-family: monospace\">Ela só faz cabelo cacheado?</span>",
		"response": "s",
		"question": "Ela só faz cabelo cacheado?",
		"answer": "null",
		"trial": "exp-sent",
		"trial_type": "html-keyboard-response",
		"trial_index": 64,
		"time_elapsed": 192316,
		"internal_node_id": "0.0-3.0-2.38-0.38",
		"accuracy": false
	},
	{
		"rt": null,
		"stimulus": "<span style= \"font-size:30px; font-family: monospace\">+</span>",
		"response": null,
		"trial_part": "fixation",
		"trial_type": "html-keyboard-response",
		"trial_index": 65,
		"time_elapsed": 193833,
		"internal_node_id": "0.0-3.0-0.39-0.39"
	},
	{
		"rt": 36280,
		"stimulus": "../audio/33-1-masc.mp3",
		"response": " ",
		"word": "Eles",
		"trial_type": "audio-keyboard-response",
		"trial_index": 66,
		"time_elapsed": 230411,
		"internal_node_id": "0.0-3.0-1.39"
	},
	{
		"rt": 1709,
		"stimulus": "../audio/33-2-masc.mp3",
		"response": " ",
		"word": "sabem",
		"trial_type": "audio-keyboard-response",
		"trial_index": 67,
		"time_elapsed": 232571,
		"internal_node_id": "0.0-3.0-1.40"
	},
	{
		"rt": 1141,
		"stimulus": "../audio/33-3-masc.mp3",
		"response": " ",
		"word": "do",
		"trial_type": "audio-keyboard-response",
		"trial_index": 68,
		"time_elapsed": 233995,
		"internal_node_id": "0.0-3.0-1.41"
	},
	{
		"rt": 1280,
		"stimulus": "../audio/33-4-masc.mp3",
		"response": " ",
		"word": "seu",
		"trial_type": "audio-keyboard-response",
		"trial_index": 69,
		"time_elapsed": 235564,
		"internal_node_id": "0.0-3.0-1.42"
	},
	{
		"rt": 1440,
		"stimulus": "../audio/33-5-masc.mp3",
		"response": " ",
		"word": "privilégio",
		"trial_type": "audio-keyboard-response",
		"trial_index": 70,
		"time_elapsed": 237291,
		"internal_node_id": "0.0-3.0-1.43"
	},
	{
		"rt": 1701,
		"stimulus": "../audio/33-6-masc.mp3",
		"response": " ",
		"word": "nessa",
		"trial_type": "audio-keyboard-response",
		"trial_index": 71,
		"time_elapsed": 239260,
		"internal_node_id": "0.0-3.0-1.44"
	},
	{
		"rt": 2760,
		"stimulus": "../audio/33-7-masc.mp3",
		"response": " ",
		"word": "confusão.",
		"trial_type": "audio-keyboard-response",
		"trial_index": 72,
		"time_elapsed": 242316,
		"internal_node_id": "0.0-3.0-1.45"
	},
	{
		"rt": null,
		"stimulus": "<span style= \"font-size:30px; font-family: monospace\">+</span>",
		"response": null,
		"trial_part": "fixation",
		"trial_type": "html-keyboard-response",
		"trial_index": 73,
		"time_elapsed": 243591,
		"internal_node_id": "0.0-3.0-0.46-0.46"
	},
	{
		"rt": 2141,
		"stimulus": "../audio/31-1-masc.mp3",
		"response": " ",
		"word": "O",
		"trial_type": "audio-keyboard-response",
		"trial_index": 74,
		"time_elapsed": 246028,
		"internal_node_id": "0.0-3.0-1.46"
	},
	{
		"rt": 1960,
		"stimulus": "../audio/31-2-masc.mp3",
		"response": " ",
		"word": "padeiro",
		"trial_type": "audio-keyboard-response",
		"trial_index": 75,
		"time_elapsed": 248284,
		"internal_node_id": "0.0-3.0-1.47"
	},
	{
		"rt": 1851,
		"stimulus": "../audio/31-3-masc.mp3",
		"response": " ",
		"word": "usou",
		"trial_type": "audio-keyboard-response",
		"trial_index": 76,
		"time_elapsed": 250428,
		"internal_node_id": "0.0-3.0-1.48"
	},
	{
		"rt": 1400,
		"stimulus": "../audio/31-4-masc.mp3",
		"response": " ",
		"word": "a",
		"trial_type": "audio-keyboard-response",
		"trial_index": 77,
		"time_elapsed": 252124,
		"internal_node_id": "0.0-3.0-1.49"
	},
	{
		"rt": 13400,
		"stimulus": "../audio/31-5-masc.mp3",
		"response": " ",
		"word": "balança",
		"trial_type": "audio-keyboard-response",
		"trial_index": 78,
		"time_elapsed": 265819,
		"internal_node_id": "0.0-3.0-1.50"
	},
	{
		"rt": 1480,
		"stimulus": "../audio/31-6-masc.mp3",
		"response": " ",
		"word": "o",
		"trial_type": "audio-keyboard-response",
		"trial_index": 79,
		"time_elapsed": 267595,
		"internal_node_id": "0.0-3.0-1.51"
	},
	{
		"rt": 1419,
		"stimulus": "../audio/31-7-masc.mp3",
		"response": " ",
		"word": "dia",
		"trial_type": "audio-keyboard-response",
		"trial_index": 80,
		"time_elapsed": 269291,
		"internal_node_id": "0.0-3.0-1.52"
	},
	{
		"rt": 1600,
		"stimulus": "../audio/31-8-masc.mp3",
		"response": " ",
		"word": "inteiro.",
		"trial_type": "audio-keyboard-response",
		"trial_index": 81,
		"time_elapsed": 271179,
		"internal_node_id": "0.0-3.0-1.53"
	},
	{
		"rt": null,
		"stimulus": "<span style= \"font-size:30px; font-family: monospace\">+</span>",
		"response": null,
		"trial_part": "fixation",
		"trial_type": "html-keyboard-response",
		"trial_index": 82,
		"time_elapsed": 272455,
		"internal_node_id": "0.0-3.0-0.54-0.54"
	},
	{
		"rt": 3651,
		"stimulus": "../audio/32-1-fem.mp3",
		"response": " ",
		"word": "A",
		"trial_type": "audio-keyboard-response",
		"trial_index": 83,
		"time_elapsed": 276396,
		"internal_node_id": "0.0-3.0-1.54"
	},
	{
		"rt": 1331,
		"stimulus": "../audio/32-2-fem.mp3",
		"response": " ",
		"word": "tia",
		"trial_type": "audio-keyboard-response",
		"trial_index": 84,
		"time_elapsed": 277995,
		"internal_node_id": "0.0-3.0-1.55"
	},
	{
		"rt": 2091,
		"stimulus": "../audio/32-3-fem.mp3",
		"response": " ",
		"word": "comprou",
		"trial_type": "audio-keyboard-response",
		"trial_index": 85,
		"time_elapsed": 280380,
		"internal_node_id": "0.0-3.0-1.56"
	},
	{
		"rt": 1989,
		"stimulus": "../audio/32-4-fem.mp3",
		"response": " ",
		"word": "um",
		"trial_type": "audio-keyboard-response",
		"trial_index": 86,
		"time_elapsed": 282667,
		"internal_node_id": "0.0-3.0-1.57"
	},
	{
		"rt": 2011,
		"stimulus": "../audio/32-5-fem.mp3",
		"response": " ",
		"word": "pilão",
		"trial_type": "audio-keyboard-response",
		"trial_index": 87,
		"time_elapsed": 284971,
		"internal_node_id": "0.0-3.0-1.58"
	},
	{
		"rt": 2120,
		"stimulus": "../audio/32-6-fem.mp3",
		"response": " ",
		"word": "para",
		"trial_type": "audio-keyboard-response",
		"trial_index": 88,
		"time_elapsed": 287388,
		"internal_node_id": "0.0-3.0-1.59"
	},
	{
		"rt": 1699,
		"stimulus": "../audio/32-7-fem.mp3",
		"response": " ",
		"word": "a",
		"trial_type": "audio-keyboard-response",
		"trial_index": 89,
		"time_elapsed": 289371,
		"internal_node_id": "0.0-3.0-1.60"
	},
	{
		"rt": 4600,
		"stimulus": "../audio/32-8-fem.mp3",
		"response": " ",
		"word": "cozinha.",
		"trial_type": "audio-keyboard-response",
		"trial_index": 90,
		"time_elapsed": 294251,
		"internal_node_id": "0.0-3.0-1.61"
	},
	{
		"rt": null,
		"stimulus": "<span style= \"font-size:30px; font-family: monospace\">+</span>",
		"response": null,
		"trial_part": "fixation",
		"trial_type": "html-keyboard-response",
		"trial_index": 91,
		"time_elapsed": 295526,
		"internal_node_id": "0.0-3.0-0.62-0.62"
	},
	{
		"rt": 2421,
		"stimulus": "../audio/34-1-fem.mp3",
		"response": " ",
		"word": "Cobrança",
		"trial_type": "audio-keyboard-response",
		"trial_index": 92,
		"time_elapsed": 298236,
		"internal_node_id": "0.0-3.0-1.62"
	},
	{
		"rt": 2040,
		"stimulus": "../audio/34-2-fem.mp3",
		"response": " ",
		"word": "excessiva",
		"trial_type": "audio-keyboard-response",
		"trial_index": 93,
		"time_elapsed": 300571,
		"internal_node_id": "0.0-3.0-1.63"
	},
	{
		"rt": 9741,
		"stimulus": "../audio/34-3-fem.mp3",
		"response": " ",
		"word": "é",
		"trial_type": "audio-keyboard-response",
		"trial_index": 94,
		"time_elapsed": 310588,
		"internal_node_id": "0.0-3.0-1.64"
	},
	{
		"rt": 2261,
		"stimulus": "../audio/34-4-fem.mp3",
		"response": " ",
		"word": "um",
		"trial_type": "audio-keyboard-response",
		"trial_index": 95,
		"time_elapsed": 313147,
		"internal_node_id": "0.0-3.0-1.65"
	},
	{
		"rt": 5291,
		"stimulus": "../audio/34-5-fem.mp3",
		"response": " ",
		"word": "fardo",
		"trial_type": "audio-keyboard-response",
		"trial_index": 96,
		"time_elapsed": 318730,
		"internal_node_id": "0.0-3.0-1.66"
	},
	{
		"rt": 2691,
		"stimulus": "../audio/34-6-fem.mp3",
		"response": " ",
		"word": "para",
		"trial_type": "audio-keyboard-response",
		"trial_index": 97,
		"time_elapsed": 321691,
		"internal_node_id": "0.0-3.0-1.67"
	},
	{
		"rt": 1691,
		"stimulus": "../audio/34-7-fem.mp3",
		"response": " ",
		"word": "a",
		"trial_type": "audio-keyboard-response",
		"trial_index": 98,
		"time_elapsed": 323659,
		"internal_node_id": "0.0-3.0-1.68"
	},
	{
		"rt": 2488,
		"stimulus": "../audio/34-8-fem.mp3",
		"response": " ",
		"word": "cabeça.",
		"trial_type": "audio-keyboard-response",
		"trial_index": 99,
		"time_elapsed": 326442,
		"internal_node_id": "0.0-3.0-1.69"
	},
	{
		"rt": null,
		"stimulus": "<span style= \"font-size:30px; font-family: monospace\">+</span>",
		"response": null,
		"trial_part": "fixation",
		"trial_type": "html-keyboard-response",
		"trial_index": 100,
		"time_elapsed": 327705,
		"internal_node_id": "0.0-3.0-0.70-0.70"
	},
	{
		"rt": 2211,
		"stimulus": "../audio/35-1-fem.mp3",
		"response": " ",
		"word": "A",
		"trial_type": "audio-keyboard-response",
		"trial_index": 101,
		"time_elapsed": 330219,
		"internal_node_id": "0.0-3.0-1.70"
	},
	{
		"rt": 2421,
		"stimulus": "../audio/35-2-fem.mp3",
		"response": " ",
		"word": "receita",
		"trial_type": "audio-keyboard-response",
		"trial_index": 102,
		"time_elapsed": 332940,
		"internal_node_id": "0.0-3.0-1.71"
	},
	{
		"rt": 1299,
		"stimulus": "../audio/35-3-fem.mp3",
		"response": " ",
		"word": "para",
		"trial_type": "audio-keyboard-response",
		"trial_index": 103,
		"time_elapsed": 334539,
		"internal_node_id": "0.0-3.0-1.72"
	},
	{
		"rt": 2381,
		"stimulus": "../audio/35-4-fem.mp3",
		"response": " ",
		"word": "a",
		"trial_type": "audio-keyboard-response",
		"trial_index": 104,
		"time_elapsed": 337195,
		"internal_node_id": "0.0-3.0-1.73"
	},
	{
		"rt": 2640,
		"stimulus": "../audio/35-5-fem.mp3",
		"response": " ",
		"word": "preparação",
		"trial_type": "audio-keyboard-response",
		"trial_index": 105,
		"time_elapsed": 340122,
		"internal_node_id": "0.0-3.0-1.74"
	},
	{
		"rt": 1720,
		"stimulus": "../audio/35-6-fem.mp3",
		"response": " ",
		"word": "do",
		"trial_type": "audio-keyboard-response",
		"trial_index": 106,
		"time_elapsed": 342138,
		"internal_node_id": "0.0-3.0-1.75"
	},
	{
		"rt": 1731,
		"stimulus": "../audio/35-7-fem.mp3",
		"response": " ",
		"word": "bolo",
		"trial_type": "audio-keyboard-response",
		"trial_index": 107,
		"time_elapsed": 344155,
		"internal_node_id": "0.0-3.0-1.76"
	},
	{
		"rt": 1259,
		"stimulus": "../audio/35-8-fem.mp3",
		"response": " ",
		"word": "é",
		"trial_type": "audio-keyboard-response",
		"trial_index": 108,
		"time_elapsed": 345691,
		"internal_node_id": "0.0-3.0-1.77"
	},
	{
		"rt": 1909,
		"stimulus": "../audio/35-9-fem.mp3",
		"response": " ",
		"word": "leve.",
		"trial_type": "audio-keyboard-response",
		"trial_index": 109,
		"time_elapsed": 347899,
		"internal_node_id": "0.0-3.0-1.78"
	},
	{
		"rt": 6631,
		"stimulus": "<span style=\"font-size:25px; font-family: monospace\">A receita do bolo é pesada?</span>",
		"response": "n",
		"question": "A receita do bolo é pesada?",
		"answer": "null",
		"trial": "exp-sent",
		"trial_type": "html-keyboard-response",
		"trial_index": 110,
		"time_elapsed": 354795,
		"internal_node_id": "0.0-3.0-2.78-0.78",
		"accuracy": false
	},
	{
		"rt": null,
		"stimulus": "<span style= \"font-size:30px; font-family: monospace\">+</span>",
		"response": null,
		"trial_part": "fixation",
		"trial_type": "html-keyboard-response",
		"trial_index": 111,
		"time_elapsed": 356325,
		"internal_node_id": "0.0-3.0-0.79-0.79"
	},
	{
		"rt": 1501,
		"stimulus": "../audio/16-1-fem.mp3",
		"response": " ",
		"word": "Eu",
		"trial_type": "audio-keyboard-response",
		"trial_index": 112,
		"time_elapsed": 358107,
		"internal_node_id": "0.0-3.0-1.79"
	},
	{
		"rt": 2581,
		"stimulus": "../audio/16-2-fem.mp3",
		"response": " ",
		"word": "nunca",
		"trial_type": "audio-keyboard-response",
		"trial_index": 113,
		"time_elapsed": 360987,
		"internal_node_id": "0.0-3.0-1.80"
	},
	{
		"rt": 1549,
		"stimulus": "../audio/16-3-fem.mp3",
		"response": " ",
		"word": "conheci",
		"trial_type": "audio-keyboard-response",
		"trial_index": 114,
		"time_elapsed": 362826,
		"internal_node_id": "0.0-3.0-1.81"
	},
	{
		"rt": 1469,
		"stimulus": "../audio/16-4-fem.mp3",
		"response": " ",
		"word": "um",
		"trial_type": "audio-keyboard-response",
		"trial_index": 115,
		"time_elapsed": 364570,
		"internal_node_id": "0.0-3.0-1.82"
	},
	{
		"rt": 1691,
		"stimulus": "../audio/16-5-fem.mp3",
		"response": " ",
		"word": "general",
		"trial_type": "audio-keyboard-response",
		"trial_index": 116,
		"time_elapsed": 366555,
		"internal_node_id": "0.0-3.0-1.83"
	},
	{
		"rt": 1109,
		"stimulus": "../audio/16-6-fem.mp3",
		"response": " ",
		"word": "do",
		"trial_type": "audio-keyboard-response",
		"trial_index": 117,
		"time_elapsed": 367947,
		"internal_node_id": "0.0-3.0-1.84"
	},
	{
		"rt": 3280,
		"stimulus": "../audio/16-7-fem.mp3",
		"response": " ",
		"word": "exército.",
		"trial_type": "audio-keyboard-response",
		"trial_index": 118,
		"time_elapsed": 371515,
		"internal_node_id": "0.0-3.0-1.85"
	},
	{
		"rt": null,
		"stimulus": "<span style= \"font-size:30px; font-family: monospace\">+</span>",
		"response": null,
		"trial_part": "fixation",
		"trial_type": "html-keyboard-response",
		"trial_index": 119,
		"time_elapsed": 372792,
		"internal_node_id": "0.0-3.0-0.86-0.86"
	},
	{
		"rt": 2192,
		"stimulus": "../audio/18-1-masc.mp3",
		"response": " ",
		"word": "O",
		"trial_type": "audio-keyboard-response",
		"trial_index": 120,
		"time_elapsed": 375274,
		"internal_node_id": "0.0-3.0-1.86"
	},
	{
		"rt": 1920,
		"stimulus": "../audio/18-2-masc.mp3",
		"response": " ",
		"word": "enredo",
		"trial_type": "audio-keyboard-response",
		"trial_index": 121,
		"time_elapsed": 377482,
		"internal_node_id": "0.0-3.0-1.87"
	},
	{
		"rt": 1840,
		"stimulus": "../audio/18-3-masc.mp3",
		"response": " ",
		"word": "traz",
		"trial_type": "audio-keyboard-response",
		"trial_index": 122,
		"time_elapsed": 379610,
		"internal_node_id": "0.0-3.0-1.88"
	},
	{
		"rt": 1360,
		"stimulus": "../audio/18-4-masc.mp3",
		"response": " ",
		"word": "um",
		"trial_type": "audio-keyboard-response",
		"trial_index": 123,
		"time_elapsed": 381242,
		"internal_node_id": "0.0-3.0-1.89"
	},
	{
		"rt": 1480,
		"stimulus": "../audio/18-5-masc.mp3",
		"response": " ",
		"word": "dragão",
		"trial_type": "audio-keyboard-response",
		"trial_index": 124,
		"time_elapsed": 383002,
		"internal_node_id": "0.0-3.0-1.90"
	},
	{
		"rt": 1131,
		"stimulus": "../audio/18-6-masc.mp3",
		"response": " ",
		"word": "forte",
		"trial_type": "audio-keyboard-response",
		"trial_index": 125,
		"time_elapsed": 384411,
		"internal_node_id": "0.0-3.0-1.91"
	},
	{
		"rt": 971,
		"stimulus": "../audio/18-7-masc.mp3",
		"response": " ",
		"word": "e",
		"trial_type": "audio-keyboard-response",
		"trial_index": 126,
		"time_elapsed": 385658,
		"internal_node_id": "0.0-3.0-1.92"
	},
	{
		"rt": 1928,
		"stimulus": "../audio/18-8-masc.mp3",
		"response": " ",
		"word": "solitário.",
		"trial_type": "audio-keyboard-response",
		"trial_index": 127,
		"time_elapsed": 387883,
		"internal_node_id": "0.0-3.0-1.93"
	},
	{
		"rt": null,
		"stimulus": "<span style= \"font-size:30px; font-family: monospace\">+</span>",
		"response": null,
		"trial_part": "fixation",
		"trial_type": "html-keyboard-response",
		"trial_index": 128,
		"time_elapsed": 389148,
		"internal_node_id": "0.0-3.0-0.94-0.94"
	},
	{
		"rt": 1429,
		"stimulus": "../audio/17-1-fem.mp3",
		"response": " ",
		"word": "Falaram",
		"trial_type": "audio-keyboard-response",
		"trial_index": 129,
		"time_elapsed": 390890,
		"internal_node_id": "0.0-3.0-1.94"
	},
	{
		"rt": 1051,
		"stimulus": "../audio/17-2-fem.mp3",
		"response": " ",
		"word": "da",
		"trial_type": "audio-keyboard-response",
		"trial_index": 130,
		"time_elapsed": 392234,
		"internal_node_id": "0.0-3.0-1.95"
	},
	{
		"rt": 1291,
		"stimulus": "../audio/17-3-fem.mp3",
		"response": " ",
		"word": "lei",
		"trial_type": "audio-keyboard-response",
		"trial_index": 131,
		"time_elapsed": 393818,
		"internal_node_id": "0.0-3.0-1.96"
	},
	{
		"rt": 1160,
		"stimulus": "../audio/17-4-fem.mp3",
		"response": " ",
		"word": "no",
		"trial_type": "audio-keyboard-response",
		"trial_index": 132,
		"time_elapsed": 395258,
		"internal_node_id": "0.0-3.0-1.97"
	},
	{
		"rt": 1699,
		"stimulus": "../audio/17-5-fem.mp3",
		"response": " ",
		"word": "ministério",
		"trial_type": "audio-keyboard-response",
		"trial_index": 133,
		"time_elapsed": 397258,
		"internal_node_id": "0.0-3.0-1.98"
	},
	{
		"rt": 1189,
		"stimulus": "../audio/17-6-fem.mp3",
		"response": " ",
		"word": "diversas",
		"trial_type": "audio-keyboard-response",
		"trial_index": 134,
		"time_elapsed": 398731,
		"internal_node_id": "0.0-3.0-1.99"
	},
	{
		"rt": 1189,
		"stimulus": "../audio/17-7-fem.mp3",
		"response": " ",
		"word": "vezes.",
		"trial_type": "audio-keyboard-response",
		"trial_index": 135,
		"time_elapsed": 400219,
		"internal_node_id": "0.0-3.0-1.100"
	},
	{
		"rt": null,
		"stimulus": "<span style= \"font-size:30px; font-family: monospace\">+</span>",
		"response": null,
		"trial_part": "fixation",
		"trial_type": "html-keyboard-response",
		"trial_index": 136,
		"time_elapsed": 401491,
		"internal_node_id": "0.0-3.0-0.101-0.101"
	},
	{
		"rt": 1520,
		"stimulus": "../audio/19-1-fem.mp3",
		"response": " ",
		"word": "O",
		"trial_type": "audio-keyboard-response",
		"trial_index": 137,
		"time_elapsed": 403307,
		"internal_node_id": "0.0-3.0-1.101"
	},
	{
		"rt": 1891,
		"stimulus": "../audio/19-2-fem.mp3",
		"response": " ",
		"word": "menino",
		"trial_type": "audio-keyboard-response",
		"trial_index": 138,
		"time_elapsed": 405499,
		"internal_node_id": "0.0-3.0-1.102"
	},
	{
		"rt": 1440,
		"stimulus": "../audio/19-3-fem.mp3",
		"response": " ",
		"word": "ganhou",
		"trial_type": "audio-keyboard-response",
		"trial_index": 139,
		"time_elapsed": 407226,
		"internal_node_id": "0.0-3.0-1.103"
	},
	{
		"rt": 1291,
		"stimulus": "../audio/19-4-fem.mp3",
		"response": " ",
		"word": "uma",
		"trial_type": "audio-keyboard-response",
		"trial_index": 140,
		"time_elapsed": 408795,
		"internal_node_id": "0.0-3.0-1.104"
	},
	{
		"rt": 1261,
		"stimulus": "../audio/19-5-fem.mp3",
		"response": " ",
		"word": "bala",
		"trial_type": "audio-keyboard-response",
		"trial_index": 141,
		"time_elapsed": 410346,
		"internal_node_id": "0.0-3.0-1.105"
	},
	{
		"rt": 1360,
		"stimulus": "../audio/19-6-fem.mp3",
		"response": " ",
		"word": "depois",
		"trial_type": "audio-keyboard-response",
		"trial_index": 142,
		"time_elapsed": 411978,
		"internal_node_id": "0.0-3.0-1.106"
	},
	{
		"rt": 1160,
		"stimulus": "../audio/19-7-fem.mp3",
		"response": " ",
		"word": "do",
		"trial_type": "audio-keyboard-response",
		"trial_index": 143,
		"time_elapsed": 413419,
		"internal_node_id": "0.0-3.0-1.107"
	},
	{
		"rt": 1389,
		"stimulus": "../audio/19-8-fem.mp3",
		"response": " ",
		"word": "almoço.",
		"trial_type": "audio-keyboard-response",
		"trial_index": 144,
		"time_elapsed": 415098,
		"internal_node_id": "0.0-3.0-1.108"
	},
	{
		"rt": null,
		"stimulus": "<span style= \"font-size:30px; font-family: monospace\">+</span>",
		"response": null,
		"trial_part": "fixation",
		"trial_type": "html-keyboard-response",
		"trial_index": 145,
		"time_elapsed": 416362,
		"internal_node_id": "0.0-3.0-0.109-0.109"
	},
	{
		"rt": 1480,
		"stimulus": "../audio/20-1-fem.mp3",
		"response": " ",
		"word": "O",
		"trial_type": "audio-keyboard-response",
		"trial_index": 146,
		"time_elapsed": 418139,
		"internal_node_id": "0.0-3.0-1.109"
	},
	{
		"rt": 1309,
		"stimulus": "../audio/20-2-fem.mp3",
		"response": " ",
		"word": "colega",
		"trial_type": "audio-keyboard-response",
		"trial_index": 147,
		"time_elapsed": 419739,
		"internal_node_id": "0.0-3.0-1.110"
	},
	{
		"rt": 1429,
		"stimulus": "../audio/20-3-fem.mp3",
		"response": " ",
		"word": "parecia",
		"trial_type": "audio-keyboard-response",
		"trial_index": 148,
		"time_elapsed": 421450,
		"internal_node_id": "0.0-3.0-1.111"
	},
	{
		"rt": 1440,
		"stimulus": "../audio/20-4-fem.mp3",
		"response": " ",
		"word": "muito",
		"trial_type": "audio-keyboard-response",
		"trial_index": 149,
		"time_elapsed": 423178,
		"internal_node_id": "0.0-3.0-1.112"
	},
	{
		"rt": 1459,
		"stimulus": "../audio/20-5-fem.mp3",
		"response": " ",
		"word": "gripado",
		"trial_type": "audio-keyboard-response",
		"trial_index": 150,
		"time_elapsed": 424922,
		"internal_node_id": "0.0-3.0-1.113"
	},
	{
		"rt": 1171,
		"stimulus": "../audio/20-6-fem.mp3",
		"response": " ",
		"word": "no",
		"trial_type": "audio-keyboard-response",
		"trial_index": 151,
		"time_elapsed": 426378,
		"internal_node_id": "0.0-3.0-1.114"
	},
	{
		"rt": 1149,
		"stimulus": "../audio/20-7-fem.mp3",
		"response": " ",
		"word": "dia",
		"trial_type": "audio-keyboard-response",
		"trial_index": 152,
		"time_elapsed": 427818,
		"internal_node_id": "0.0-3.0-1.115"
	},
	{
		"rt": 1589,
		"stimulus": "../audio/20-8-fem.mp3",
		"response": " ",
		"word": "anterior.",
		"trial_type": "audio-keyboard-response",
		"trial_index": 153,
		"time_elapsed": 429706,
		"internal_node_id": "0.0-3.0-1.116"
	},
	{
		"rt": 7399,
		"stimulus": "<span style=\"font-size:25px; font-family: monospace\">O colega parecia muito gripado?</span>",
		"response": "s",
		"question": "O colega parecia muito gripado?",
		"answer": "null",
		"trial": "exp-sent",
		"trial_type": "html-keyboard-response",
		"trial_index": 154,
		"time_elapsed": 437371,
		"internal_node_id": "0.0-3.0-2.116-0.116",
		"accuracy": false
	},
	{
		"rt": null,
		"stimulus": "<span style= \"font-size:30px; font-family: monospace\">+</span>",
		"response": null,
		"trial_part": "fixation",
		"trial_type": "html-keyboard-response",
		"trial_index": 155,
		"time_elapsed": 438888,
		"internal_node_id": "0.0-3.0-0.117-0.117"
	},
	{
		"rt": 1611,
		"stimulus": "../audio/28-1-fem.mp3",
		"response": " ",
		"word": "O",
		"trial_type": "audio-keyboard-response",
		"trial_index": 156,
		"time_elapsed": 440795,
		"internal_node_id": "0.0-3.0-1.117"
	},
	{
		"rt": 1952,
		"stimulus": "../audio/28-2-fem.mp3",
		"response": " ",
		"word": "time",
		"trial_type": "audio-keyboard-response",
		"trial_index": 157,
		"time_elapsed": 443034,
		"internal_node_id": "0.0-3.0-1.118"
	},
	{
		"rt": 1099,
		"stimulus": "../audio/28-3-fem.mp3",
		"response": " ",
		"word": "quer",
		"trial_type": "audio-keyboard-response",
		"trial_index": 158,
		"time_elapsed": 444410,
		"internal_node_id": "0.0-3.0-1.119"
	},
	{
		"rt": 941,
		"stimulus": "../audio/28-4-fem.mp3",
		"response": " ",
		"word": "a",
		"trial_type": "audio-keyboard-response",
		"trial_index": 159,
		"time_elapsed": 445626,
		"internal_node_id": "0.0-3.0-1.120"
	},
	{
		"rt": 1360,
		"stimulus": "../audio/28-5-fem.mp3",
		"response": " ",
		"word": "vitória",
		"trial_type": "audio-keyboard-response",
		"trial_index": 160,
		"time_elapsed": 447274,
		"internal_node_id": "0.0-3.0-1.121"
	},
	{
		"rt": 1189,
		"stimulus": "../audio/28-6-fem.mp3",
		"response": " ",
		"word": "no",
		"trial_type": "audio-keyboard-response",
		"trial_index": 161,
		"time_elapsed": 448747,
		"internal_node_id": "0.0-3.0-1.122"
	},
	{
		"rt": 1568,
		"stimulus": "../audio/28-7-fem.mp3",
		"response": " ",
		"word": "jogo",
		"trial_type": "audio-keyboard-response",
		"trial_index": 162,
		"time_elapsed": 450602,
		"internal_node_id": "0.0-3.0-1.123"
	},
	{
		"rt": 1259,
		"stimulus": "../audio/28-8-fem.mp3",
		"response": " ",
		"word": "de",
		"trial_type": "audio-keyboard-response",
		"trial_index": 163,
		"time_elapsed": 452139,
		"internal_node_id": "0.0-3.0-1.124"
	},
	{
		"rt": 1549,
		"stimulus": "../audio/28-9-fem.mp3",
		"response": " ",
		"word": "vôlei.",
		"trial_type": "audio-keyboard-response",
		"trial_index": 164,
		"time_elapsed": 453979,
		"internal_node_id": "0.0-3.0-1.125"
	},
	{
		"rt": null,
		"stimulus": "<span style= \"font-size:30px; font-family: monospace\">+</span>",
		"response": null,
		"trial_part": "fixation",
		"trial_type": "html-keyboard-response",
		"trial_index": 165,
		"time_elapsed": 455248,
		"internal_node_id": "0.0-3.0-0.126-0.126"
	},
	{
		"rt": 1469,
		"stimulus": "../audio/29-1-fem.mp3",
		"response": " ",
		"word": "Hoje",
		"trial_type": "audio-keyboard-response",
		"trial_index": 166,
		"time_elapsed": 457019,
		"internal_node_id": "0.0-3.0-1.126"
	},
	{
		"rt": 1331,
		"stimulus": "../audio/29-2-fem.mp3",
		"response": " ",
		"word": "vamos",
		"trial_type": "audio-keyboard-response",
		"trial_index": 167,
		"time_elapsed": 458635,
		"internal_node_id": "0.0-3.0-1.127"
	},
	{
		"rt": 1379,
		"stimulus": "../audio/29-3-fem.mp3",
		"response": " ",
		"word": "fazer",
		"trial_type": "audio-keyboard-response",
		"trial_index": 168,
		"time_elapsed": 460298,
		"internal_node_id": "0.0-3.0-1.128"
	},
	{
		"rt": 1219,
		"stimulus": "../audio/29-4-fem.mp3",
		"response": " ",
		"word": "uma",
		"trial_type": "audio-keyboard-response",
		"trial_index": 169,
		"time_elapsed": 461802,
		"internal_node_id": "0.0-3.0-1.129"
	},
	{
		"rt": 1880,
		"stimulus": "../audio/29-5-fem.mp3",
		"response": " ",
		"word": "atividade",
		"trial_type": "audio-keyboard-response",
		"trial_index": 170,
		"time_elapsed": 463979,
		"internal_node_id": "0.0-3.0-1.130"
	},
	{
		"rt": 1528,
		"stimulus": "../audio/29-6-fem.mp3",
		"response": " ",
		"word": "sobre",
		"trial_type": "audio-keyboard-response",
		"trial_index": 171,
		"time_elapsed": 465802,
		"internal_node_id": "0.0-3.0-1.131"
	},
	{
		"rt": 1160,
		"stimulus": "../audio/29-7-fem.mp3",
		"response": " ",
		"word": "fauna",
		"trial_type": "audio-keyboard-response",
		"trial_index": 172,
		"time_elapsed": 467242,
		"internal_node_id": "0.0-3.0-1.132"
	},
	{
		"rt": 1339,
		"stimulus": "../audio/29-8-fem.mp3",
		"response": " ",
		"word": "marinha.",
		"trial_type": "audio-keyboard-response",
		"trial_index": 173,
		"time_elapsed": 468859,
		"internal_node_id": "0.0-3.0-1.133"
	},
	{
		"rt": null,
		"stimulus": "<span style= \"font-size:30px; font-family: monospace\">+</span>",
		"response": null,
		"trial_part": "fixation",
		"trial_type": "html-keyboard-response",
		"trial_index": 174,
		"time_elapsed": 470133,
		"internal_node_id": "0.0-3.0-0.134-0.134"
	},
	{
		"rt": 1139,
		"stimulus": "../audio/27-1-fem.mp3",
		"response": " ",
		"word": "O",
		"trial_type": "audio-keyboard-response",
		"trial_index": 175,
		"time_elapsed": 471562,
		"internal_node_id": "0.0-3.0-1.134"
	},
	{
		"rt": 1512,
		"stimulus": "../audio/27-2-fem.mp3",
		"response": " ",
		"word": "dinheiro",
		"trial_type": "audio-keyboard-response",
		"trial_index": 176,
		"time_elapsed": 473354,
		"internal_node_id": "0.0-3.0-1.135"
	},
	{
		"rt": 1651,
		"stimulus": "../audio/27-3-fem.mp3",
		"response": " ",
		"word": "chegou",
		"trial_type": "audio-keyboard-response",
		"trial_index": 177,
		"time_elapsed": 475289,
		"internal_node_id": "0.0-3.0-1.136"
	},
	{
		"rt": 1400,
		"stimulus": "../audio/27-4-fem.mp3",
		"response": " ",
		"word": "à",
		"trial_type": "audio-keyboard-response",
		"trial_index": 178,
		"time_elapsed": 476970,
		"internal_node_id": "0.0-3.0-1.137"
	},
	{
		"rt": 1781,
		"stimulus": "../audio/27-5-fem.mp3",
		"response": " ",
		"word": "elite",
		"trial_type": "audio-keyboard-response",
		"trial_index": 179,
		"time_elapsed": 479034,
		"internal_node_id": "0.0-3.0-1.138"
	},
	{
		"rt": 1651,
		"stimulus": "../audio/27-6-fem.mp3",
		"response": " ",
		"word": "deste",
		"trial_type": "audio-keyboard-response",
		"trial_index": 180,
		"time_elapsed": 480987,
		"internal_node_id": "0.0-3.0-1.139"
	},
	{
		"rt": 3459,
		"stimulus": "../audio/27-7-fem.mp3",
		"response": " ",
		"word": "país.",
		"trial_type": "audio-keyboard-response",
		"trial_index": 181,
		"time_elapsed": 484731,
		"internal_node_id": "0.0-3.0-1.140"
	},
	{
		"rt": null,
		"stimulus": "<span style= \"font-size:30px; font-family: monospace\">+</span>",
		"response": null,
		"trial_part": "fixation",
		"trial_type": "html-keyboard-response",
		"trial_index": 182,
		"time_elapsed": 485998,
		"internal_node_id": "0.0-3.0-0.141-0.141"
	},
	{
		"rt": 1600,
		"stimulus": "../audio/26-1-masc.mp3",
		"response": " ",
		"word": "Amanhã",
		"trial_type": "audio-keyboard-response",
		"trial_index": 183,
		"time_elapsed": 487882,
		"internal_node_id": "0.0-3.0-1.141"
	},
	{
		"rt": 1600,
		"stimulus": "../audio/26-2-masc.mp3",
		"response": " ",
		"word": "temos",
		"trial_type": "audio-keyboard-response",
		"trial_index": 184,
		"time_elapsed": 489770,
		"internal_node_id": "0.0-3.0-1.142"
	},
	{
		"rt": 1371,
		"stimulus": "../audio/26-3-masc.mp3",
		"response": " ",
		"word": "festa",
		"trial_type": "audio-keyboard-response",
		"trial_index": 185,
		"time_elapsed": 491435,
		"internal_node_id": "0.0-3.0-1.143"
	},
	{
		"rt": 1200,
		"stimulus": "../audio/26-4-masc.mp3",
		"response": " ",
		"word": "na",
		"trial_type": "audio-keyboard-response",
		"trial_index": 186,
		"time_elapsed": 492922,
		"internal_node_id": "0.0-3.0-1.144"
	},
	{
		"rt": 1531,
		"stimulus": "../audio/26-5-masc.mp3",
		"response": " ",
		"word": "piscina",
		"trial_type": "audio-keyboard-response",
		"trial_index": 187,
		"time_elapsed": 494730,
		"internal_node_id": "0.0-3.0-1.145"
	},
	{
		"rt": 1131,
		"stimulus": "../audio/26-6-masc.mp3",
		"response": " ",
		"word": "o",
		"trial_type": "audio-keyboard-response",
		"trial_index": 188,
		"time_elapsed": 496155,
		"internal_node_id": "0.0-3.0-1.146"
	},
	{
		"rt": 1189,
		"stimulus": "../audio/26-7-masc.mp3",
		"response": " ",
		"word": "dia",
		"trial_type": "audio-keyboard-response",
		"trial_index": 189,
		"time_elapsed": 497627,
		"internal_node_id": "0.0-3.0-1.147"
	},
	{
		"rt": 2219,
		"stimulus": "../audio/26-8-masc.mp3",
		"response": " ",
		"word": "todo.",
		"trial_type": "audio-keyboard-response",
		"trial_index": 190,
		"time_elapsed": 500122,
		"internal_node_id": "0.0-3.0-1.148"
	},
	{
		"rt": null,
		"stimulus": "<span style= \"font-size:30px; font-family: monospace\">+</span>",
		"response": null,
		"trial_part": "fixation",
		"trial_type": "html-keyboard-response",
		"trial_index": 191,
		"time_elapsed": 501388,
		"internal_node_id": "0.0-3.0-0.149-0.149"
	},
	{
		"rt": 1131,
		"stimulus": "../audio/30-1-masc.mp3",
		"response": " ",
		"word": "O",
		"trial_type": "audio-keyboard-response",
		"trial_index": 192,
		"time_elapsed": 502810,
		"internal_node_id": "0.0-3.0-1.149"
	},
	{
		"rt": 1720,
		"stimulus": "../audio/30-2-masc.mp3",
		"response": " ",
		"word": "funcionário",
		"trial_type": "audio-keyboard-response",
		"trial_index": 193,
		"time_elapsed": 504810,
		"internal_node_id": "0.0-3.0-1.150"
	},
	{
		"rt": 1640,
		"stimulus": "../audio/30-3-masc.mp3",
		"response": " ",
		"word": "entregou",
		"trial_type": "audio-keyboard-response",
		"trial_index": 194,
		"time_elapsed": 506747,
		"internal_node_id": "0.0-3.0-1.151"
	},
	{
		"rt": 1389,
		"stimulus": "../audio/30-4-masc.mp3",
		"response": " ",
		"word": "o",
		"trial_type": "audio-keyboard-response",
		"trial_index": 195,
		"time_elapsed": 508427,
		"internal_node_id": "0.0-3.0-1.152"
	},
	{
		"rt": 2800,
		"stimulus": "../audio/30-5-masc.mp3",
		"response": " ",
		"word": "restante",
		"trial_type": "audio-keyboard-response",
		"trial_index": 196,
		"time_elapsed": 511515,
		"internal_node_id": "0.0-3.0-1.153"
	},
	{
		"rt": 1331,
		"stimulus": "../audio/30-6-masc.mp3",
		"response": " ",
		"word": "do",
		"trial_type": "audio-keyboard-response",
		"trial_index": 197,
		"time_elapsed": 513130,
		"internal_node_id": "0.0-3.0-1.154"
	},
	{
		"rt": 1931,
		"stimulus": "../audio/30-7-masc.mp3",
		"response": " ",
		"word": "dinheiro.",
		"trial_type": "audio-keyboard-response",
		"trial_index": 198,
		"time_elapsed": 515355,
		"internal_node_id": "0.0-3.0-1.155"
	},
	{
		"rt": 5558,
		"stimulus": "<span style=\"font-size:25px; font-family: monospace\">O funcionário entregou o contrato?</span>",
		"response": "n",
		"question": "O funcionário entregou o contrato?",
		"answer": "null",
		"trial": "exp-sent",
		"trial_type": "html-keyboard-response",
		"trial_index": 199,
		"time_elapsed": 521180,
		"internal_node_id": "0.0-3.0-2.155-0.155",
		"accuracy": false
	},
	{
		"rt": null,
		"stimulus": "<span style= \"font-size:30px; font-family: monospace\">+</span>",
		"response": null,
		"trial_part": "fixation",
		"trial_type": "html-keyboard-response",
		"trial_index": 200,
		"time_elapsed": 522704,
		"internal_node_id": "0.0-3.0-0.156-0.156"
	},
	{
		"rt": 1840,
		"stimulus": "../audio/73-1-masc.mp3",
		"response": " ",
		"word": "O",
		"trial_type": "audio-keyboard-response",
		"trial_index": 201,
		"time_elapsed": 524827,
		"internal_node_id": "0.0-3.0-1.156"
	},
	{
		"rt": 1659,
		"stimulus": "../audio/73-2-masc.mp3",
		"response": " ",
		"word": "cliente",
		"trial_type": "audio-keyboard-response",
		"trial_index": 202,
		"time_elapsed": 526779,
		"internal_node_id": "0.0-3.0-1.157"
	},
	{
		"rt": 1349,
		"stimulus": "../audio/73-3-masc.mp3",
		"response": " ",
		"word": "era",
		"trial_type": "audio-keyboard-response",
		"trial_index": 203,
		"time_elapsed": 528410,
		"internal_node_id": "0.0-3.0-1.158"
	},
	{
		"rt": 1331,
		"stimulus": "../audio/73-4-masc.mp3",
		"response": " ",
		"word": "um",
		"trial_type": "audio-keyboard-response",
		"trial_index": 204,
		"time_elapsed": 530010,
		"internal_node_id": "0.0-3.0-1.159"
	},
	{
		"rt": 1520,
		"stimulus": "../audio/73-5-masc.mp3",
		"response": " ",
		"word": "homem",
		"trial_type": "audio-keyboard-response",
		"trial_index": 205,
		"time_elapsed": 531819,
		"internal_node_id": "0.0-3.0-1.160"
	},
	{
		"rt": 1360,
		"stimulus": "../audio/73-6-masc.mp3",
		"response": " ",
		"word": "muito",
		"trial_type": "audio-keyboard-response",
		"trial_index": 206,
		"time_elapsed": 533467,
		"internal_node_id": "0.0-3.0-1.161"
	},
	{
		"rt": 3941,
		"stimulus": "../audio/73-7-masc.mp3",
		"response": " ",
		"word": "educado.",
		"trial_type": "audio-keyboard-response",
		"trial_index": 207,
		"time_elapsed": 537707,
		"internal_node_id": "0.0-3.0-1.162"
	},
	{
		"rt": null,
		"stimulus": "<span style= \"font-size:30px; font-family: monospace\">+</span>",
		"response": null,
		"trial_part": "fixation",
		"trial_type": "html-keyboard-response",
		"trial_index": 208,
		"time_elapsed": 538971,
		"internal_node_id": "0.0-3.0-0.163-0.163"
	},
	{
		"rt": 1160,
		"stimulus": "../audio/72-1-fem.mp3",
		"response": " ",
		"word": "A",
		"trial_type": "audio-keyboard-response",
		"trial_index": 209,
		"time_elapsed": 540426,
		"internal_node_id": "0.0-3.0-1.163"
	},
	{
		"rt": 2149,
		"stimulus": "../audio/72-2-fem.mp3",
		"response": " ",
		"word": "vencedora",
		"trial_type": "audio-keyboard-response",
		"trial_index": 210,
		"time_elapsed": 542859,
		"internal_node_id": "0.0-3.0-1.164"
	},
	{
		"rt": 1589,
		"stimulus": "../audio/72-3-fem.mp3",
		"response": " ",
		"word": "recebeu",
		"trial_type": "audio-keyboard-response",
		"trial_index": 211,
		"time_elapsed": 544747,
		"internal_node_id": "0.0-3.0-1.165"
	},
	{
		"rt": 1080,
		"stimulus": "../audio/72-4-fem.mp3",
		"response": " ",
		"word": "um",
		"trial_type": "audio-keyboard-response",
		"trial_index": 212,
		"time_elapsed": 546107,
		"internal_node_id": "0.0-3.0-1.166"
	},
	{
		"rt": 1269,
		"stimulus": "../audio/72-5-fem.mp3",
		"response": " ",
		"word": "prêmio",
		"trial_type": "audio-keyboard-response",
		"trial_index": 213,
		"time_elapsed": 547659,
		"internal_node_id": "0.0-3.0-1.167"
	},
	{
		"rt": 1059,
		"stimulus": "../audio/72-6-fem.mp3",
		"response": " ",
		"word": "em",
		"trial_type": "audio-keyboard-response",
		"trial_index": 214,
		"time_elapsed": 549002,
		"internal_node_id": "0.0-3.0-1.168"
	},
	{
		"rt": 2109,
		"stimulus": "../audio/72-7-fem.mp3",
		"response": " ",
		"word": "dinheiro.",
		"trial_type": "audio-keyboard-response",
		"trial_index": 215,
		"time_elapsed": 551403,
		"internal_node_id": "0.0-3.0-1.169"
	},
	{
		"rt": null,
		"stimulus": "<span style= \"font-size:30px; font-family: monospace\">+</span>",
		"response": null,
		"trial_part": "fixation",
		"trial_type": "html-keyboard-response",
		"trial_index": 216,
		"time_elapsed": 552684,
		"internal_node_id": "0.0-3.0-0.170-0.170"
	},
	{
		"rt": 2360,
		"stimulus": "../audio/74-1-masc.mp3",
		"response": " ",
		"word": "Este",
		"trial_type": "audio-keyboard-response",
		"trial_index": 217,
		"time_elapsed": 555339,
		"internal_node_id": "0.0-3.0-1.170"
	},
	{
		"rt": 1600,
		"stimulus": "../audio/74-2-masc.mp3",
		"response": " ",
		"word": "emprego",
		"trial_type": "audio-keyboard-response",
		"trial_index": 218,
		"time_elapsed": 557211,
		"internal_node_id": "0.0-3.0-1.171"
	},
	{
		"rt": 1040,
		"stimulus": "../audio/74-3-masc.mp3",
		"response": " ",
		"word": "é",
		"trial_type": "audio-keyboard-response",
		"trial_index": 219,
		"time_elapsed": 558539,
		"internal_node_id": "0.0-3.0-1.172"
	},
	{
		"rt": 1299,
		"stimulus": "../audio/74-4-masc.mp3",
		"response": " ",
		"word": "muito",
		"trial_type": "audio-keyboard-response",
		"trial_index": 220,
		"time_elapsed": 560123,
		"internal_node_id": "0.0-3.0-1.173"
	},
	{
		"rt": 1709,
		"stimulus": "../audio/74-5-masc.mp3",
		"response": " ",
		"word": "cansativo",
		"trial_type": "audio-keyboard-response",
		"trial_index": 221,
		"time_elapsed": 562123,
		"internal_node_id": "0.0-3.0-1.174"
	},
	{
		"rt": 1011,
		"stimulus": "../audio/74-6-masc.mp3",
		"response": " ",
		"word": "a",
		"trial_type": "audio-keyboard-response",
		"trial_index": 222,
		"time_elapsed": 563418,
		"internal_node_id": "0.0-3.0-1.175"
	},
	{
		"rt": 1379,
		"stimulus": "../audio/74-7-masc.mp3",
		"response": " ",
		"word": "longo",
		"trial_type": "audio-keyboard-response",
		"trial_index": 223,
		"time_elapsed": 565083,
		"internal_node_id": "0.0-3.0-1.176"
	},
	{
		"rt": 2920,
		"stimulus": "../audio/74-8-masc.mp3",
		"response": " ",
		"word": "prazo.",
		"trial_type": "audio-keyboard-response",
		"trial_index": 224,
		"time_elapsed": 568299,
		"internal_node_id": "0.0-3.0-1.177"
	},
	{
		"rt": null,
		"stimulus": "<span style= \"font-size:30px; font-family: monospace\">+</span>",
		"response": null,
		"trial_part": "fixation",
		"trial_type": "html-keyboard-response",
		"trial_index": 225,
		"time_elapsed": 569569,
		"internal_node_id": "0.0-3.0-0.178-0.178"
	},
	{
		"rt": 1691,
		"stimulus": "../audio/71-1-masc.mp3",
		"response": " ",
		"word": "Minhas",
		"trial_type": "audio-keyboard-response",
		"trial_index": 226,
		"time_elapsed": 571531,
		"internal_node_id": "0.0-3.0-1.178"
	},
	{
		"rt": 1349,
		"stimulus": "../audio/71-2-masc.mp3",
		"response": " ",
		"word": "comidas",
		"trial_type": "audio-keyboard-response",
		"trial_index": 227,
		"time_elapsed": 573163,
		"internal_node_id": "0.0-3.0-1.179"
	},
	{
		"rt": 1512,
		"stimulus": "../audio/71-3-masc.mp3",
		"response": " ",
		"word": "favoritas",
		"trial_type": "audio-keyboard-response",
		"trial_index": 228,
		"time_elapsed": 574955,
		"internal_node_id": "0.0-3.0-1.180"
	},
	{
		"rt": 1179,
		"stimulus": "../audio/71-4-masc.mp3",
		"response": " ",
		"word": "são",
		"trial_type": "audio-keyboard-response",
		"trial_index": 229,
		"time_elapsed": 576411,
		"internal_node_id": "0.0-3.0-1.181"
	},
	{
		"rt": 1320,
		"stimulus": "../audio/71-5-masc.mp3",
		"response": " ",
		"word": "morango",
		"trial_type": "audio-keyboard-response",
		"trial_index": 230,
		"time_elapsed": 578011,
		"internal_node_id": "0.0-3.0-1.182"
	},
	{
		"rt": 1029,
		"stimulus": "../audio/71-6-masc.mp3",
		"response": " ",
		"word": "e",
		"trial_type": "audio-keyboard-response",
		"trial_index": 231,
		"time_elapsed": 579323,
		"internal_node_id": "0.0-3.0-1.183"
	},
	{
		"rt": 1659,
		"stimulus": "../audio/71-7-masc.mp3",
		"response": " ",
		"word": "uva.",
		"trial_type": "audio-keyboard-response",
		"trial_index": 232,
		"time_elapsed": 581259,
		"internal_node_id": "0.0-3.0-1.184"
	},
	{
		"rt": null,
		"stimulus": "<span style= \"font-size:30px; font-family: monospace\">+</span>",
		"response": null,
		"trial_part": "fixation",
		"trial_type": "html-keyboard-response",
		"trial_index": 233,
		"time_elapsed": 582532,
		"internal_node_id": "0.0-3.0-0.185-0.185"
	},
	{
		"rt": 1091,
		"stimulus": "../audio/75-1-masc.mp3",
		"response": " ",
		"word": "Só",
		"trial_type": "audio-keyboard-response",
		"trial_index": 234,
		"time_elapsed": 583915,
		"internal_node_id": "0.0-3.0-1.185"
	},
	{
		"rt": 1211,
		"stimulus": "../audio/75-2-masc.mp3",
		"response": " ",
		"word": "existe",
		"trial_type": "audio-keyboard-response",
		"trial_index": 235,
		"time_elapsed": 585419,
		"internal_node_id": "0.0-3.0-1.186"
	},
	{
		"rt": 1101,
		"stimulus": "../audio/75-3-masc.mp3",
		"response": " ",
		"word": "uma",
		"trial_type": "audio-keyboard-response",
		"trial_index": 236,
		"time_elapsed": 586795,
		"internal_node_id": "0.0-3.0-1.187"
	},
	{
		"rt": 1189,
		"stimulus": "../audio/75-4-masc.mp3",
		"response": " ",
		"word": "pessoa",
		"trial_type": "audio-keyboard-response",
		"trial_index": 237,
		"time_elapsed": 588267,
		"internal_node_id": "0.0-3.0-1.188"
	},
	{
		"rt": 1221,
		"stimulus": "../audio/75-5-masc.mp3",
		"response": " ",
		"word": "canhota",
		"trial_type": "audio-keyboard-response",
		"trial_index": 238,
		"time_elapsed": 589787,
		"internal_node_id": "0.0-3.0-1.189"
	},
	{
		"rt": 1328,
		"stimulus": "../audio/75-6-masc.mp3",
		"response": " ",
		"word": "nesta",
		"trial_type": "audio-keyboard-response",
		"trial_index": 239,
		"time_elapsed": 591403,
		"internal_node_id": "0.0-3.0-1.190"
	},
	{
		"rt": 1960,
		"stimulus": "../audio/75-7-masc.mp3",
		"response": " ",
		"word": "cidade.",
		"trial_type": "audio-keyboard-response",
		"trial_index": 240,
		"time_elapsed": 593642,
		"internal_node_id": "0.0-3.0-1.191"
	},
	{
		"rt": 10589,
		"stimulus": "<span style=\"font-size:25px; font-family: monospace\">Só existe uma pessoa canhota na cidade?</span>",
		"response": "s",
		"question": "Só existe uma pessoa canhota na cidade?",
		"answer": "null",
		"trial": "exp-sent",
		"trial_type": "html-keyboard-response",
		"trial_index": 241,
		"time_elapsed": 604492,
		"internal_node_id": "0.0-3.0-2.191-0.191",
		"accuracy": false
	},
	{
		"rt": null,
		"stimulus": "<span style= \"font-size:30px; font-family: monospace\">+</span>",
		"response": null,
		"trial_part": "fixation",
		"trial_type": "html-keyboard-response",
		"trial_index": 242,
		"time_elapsed": 606003,
		"internal_node_id": "0.0-3.0-0.192-0.192"
	},
	{
		"rt": 3211,
		"stimulus": "../audio/13-1-masc.mp3",
		"response": " ",
		"word": "Para",
		"trial_type": "audio-keyboard-response",
		"trial_index": 243,
		"time_elapsed": 609514,
		"internal_node_id": "0.0-3.0-1.192"
	},
	{
		"rt": 1891,
		"stimulus": "../audio/13-2-masc.mp3",
		"response": " ",
		"word": "mim",
		"trial_type": "audio-keyboard-response",
		"trial_index": 244,
		"time_elapsed": 611707,
		"internal_node_id": "0.0-3.0-1.193"
	},
	{
		"rt": 5949,
		"stimulus": "../audio/13-3-masc.mp3",
		"response": " ",
		"word": "é",
		"trial_type": "audio-keyboard-response",
		"trial_index": 245,
		"time_elapsed": 617947,
		"internal_node_id": "0.0-3.0-1.194"
	},
	{
		"rt": 2021,
		"stimulus": "../audio/13-4-masc.mp3",
		"response": " ",
		"word": "muito",
		"trial_type": "audio-keyboard-response",
		"trial_index": 246,
		"time_elapsed": 620268,
		"internal_node_id": "0.0-3.0-1.195"
	},
	{
		"rt": 1629,
		"stimulus": "../audio/13-5-masc.mp3",
		"response": " ",
		"word": "difícil",
		"trial_type": "audio-keyboard-response",
		"trial_index": 247,
		"time_elapsed": 622188,
		"internal_node_id": "0.0-3.0-1.196"
	},
	{
		"rt": 1520,
		"stimulus": "../audio/13-6-masc.mp3",
		"response": " ",
		"word": "acordar",
		"trial_type": "audio-keyboard-response",
		"trial_index": 248,
		"time_elapsed": 623995,
		"internal_node_id": "0.0-3.0-1.197"
	},
	{
		"rt": 2568,
		"stimulus": "../audio/13-7-masc.mp3",
		"response": " ",
		"word": "cedo.",
		"trial_type": "audio-keyboard-response",
		"trial_index": 249,
		"time_elapsed": 626843,
		"internal_node_id": "0.0-3.0-1.198"
	},
	{
		"rt": null,
		"stimulus": "<span style= \"font-size:30px; font-family: monospace\">+</span>",
		"response": null,
		"trial_part": "fixation",
		"trial_type": "html-keyboard-response",
		"trial_index": 250,
		"time_elapsed": 628116,
		"internal_node_id": "0.0-3.0-0.199-0.199"
	},
	{
		"rt": 1011,
		"stimulus": "../audio/14-1-masc.mp3",
		"response": " ",
		"word": "O",
		"trial_type": "audio-keyboard-response",
		"trial_index": 251,
		"time_elapsed": 629420,
		"internal_node_id": "0.0-3.0-1.199"
	},
	{
		"rt": 1109,
		"stimulus": "../audio/14-2-masc.mp3",
		"response": " ",
		"word": "cachorro",
		"trial_type": "audio-keyboard-response",
		"trial_index": 252,
		"time_elapsed": 630811,
		"internal_node_id": "0.0-3.0-1.200"
	},
	{
		"rt": 941,
		"stimulus": "../audio/14-3-masc.mp3",
		"response": " ",
		"word": "é",
		"trial_type": "audio-keyboard-response",
		"trial_index": 253,
		"time_elapsed": 632027,
		"internal_node_id": "0.0-3.0-1.201"
	},
	{
		"rt": 1229,
		"stimulus": "../audio/14-4-masc.mp3",
		"response": " ",
		"word": "muito",
		"trial_type": "audio-keyboard-response",
		"trial_index": 254,
		"time_elapsed": 633531,
		"internal_node_id": "0.0-3.0-1.202"
	},
	{
		"rt": 1291,
		"stimulus": "../audio/14-5-masc.mp3",
		"response": " ",
		"word": "fiel",
		"trial_type": "audio-keyboard-response",
		"trial_index": 255,
		"time_elapsed": 635100,
		"internal_node_id": "0.0-3.0-1.203"
	},
	{
		"rt": 1131,
		"stimulus": "../audio/14-6-masc.mp3",
		"response": " ",
		"word": "a",
		"trial_type": "audio-keyboard-response",
		"trial_index": 256,
		"time_elapsed": 636508,
		"internal_node_id": "0.0-3.0-1.204"
	},
	{
		"rt": 1488,
		"stimulus": "../audio/14-7-masc.mp3",
		"response": " ",
		"word": "seus",
		"trial_type": "audio-keyboard-response",
		"trial_index": 257,
		"time_elapsed": 638284,
		"internal_node_id": "0.0-3.0-1.205"
	},
	{
		"rt": 3080,
		"stimulus": "../audio/14-8-masc.mp3",
		"response": " ",
		"word": "donos.",
		"trial_type": "audio-keyboard-response",
		"trial_index": 258,
		"time_elapsed": 641660,
		"internal_node_id": "0.0-3.0-1.206"
	},
	{
		"rt": null,
		"stimulus": "<span style= \"font-size:30px; font-family: monospace\">+</span>",
		"response": null,
		"trial_part": "fixation",
		"trial_type": "html-keyboard-response",
		"trial_index": 259,
		"time_elapsed": 642931,
		"internal_node_id": "0.0-3.0-0.207-0.207"
	},
	{
		"rt": 461,
		"stimulus": "../audio/11-1-fem.mp3",
		"response": " ",
		"word": "Elas",
		"trial_type": "audio-keyboard-response",
		"trial_index": 260,
		"time_elapsed": 643676,
		"internal_node_id": "0.0-3.0-1.207"
	},
	{
		"rt": 1349,
		"stimulus": "../audio/11-2-fem.mp3",
		"response": " ",
		"word": "gostam",
		"trial_type": "audio-keyboard-response",
		"trial_index": 261,
		"time_elapsed": 645308,
		"internal_node_id": "0.0-3.0-1.208"
	},
	{
		"rt": 1408,
		"stimulus": "../audio/11-3-fem.mp3",
		"response": " ",
		"word": "muito",
		"trial_type": "audio-keyboard-response",
		"trial_index": 262,
		"time_elapsed": 647003,
		"internal_node_id": "0.0-3.0-1.209"
	},
	{
		"rt": 1280,
		"stimulus": "../audio/11-4-fem.mp3",
		"response": " ",
		"word": "de",
		"trial_type": "audio-keyboard-response",
		"trial_index": 263,
		"time_elapsed": 648556,
		"internal_node_id": "0.0-3.0-1.210"
	},
	{
		"rt": 1768,
		"stimulus": "../audio/11-5-fem.mp3",
		"response": " ",
		"word": "aritmética",
		"trial_type": "audio-keyboard-response",
		"trial_index": 264,
		"time_elapsed": 650604,
		"internal_node_id": "0.0-3.0-1.211"
	},
	{
		"rt": 1141,
		"stimulus": "../audio/11-6-fem.mp3",
		"response": " ",
		"word": "e",
		"trial_type": "audio-keyboard-response",
		"trial_index": 265,
		"time_elapsed": 652027,
		"internal_node_id": "0.0-3.0-1.212"
	},
	{
		"rt": 1229,
		"stimulus": "../audio/11-7-fem.mp3",
		"response": " ",
		"word": "de",
		"trial_type": "audio-keyboard-response",
		"trial_index": 266,
		"time_elapsed": 653532,
		"internal_node_id": "0.0-3.0-1.213"
	},
	{
		"rt": 1659,
		"stimulus": "../audio/11-8-fem.mp3",
		"response": " ",
		"word": "leitura.",
		"trial_type": "audio-keyboard-response",
		"trial_index": 267,
		"time_elapsed": 655484,
		"internal_node_id": "0.0-3.0-1.214"
	},
	{
		"rt": null,
		"stimulus": "<span style= \"font-size:30px; font-family: monospace\">+</span>",
		"response": null,
		"trial_part": "fixation",
		"trial_type": "html-keyboard-response",
		"trial_index": 268,
		"time_elapsed": 656757,
		"internal_node_id": "0.0-3.0-0.215-0.215"
	},
	{
		"rt": 1069,
		"stimulus": "../audio/12-1-fem.mp3",
		"response": " ",
		"word": "O",
		"trial_type": "audio-keyboard-response",
		"trial_index": 269,
		"time_elapsed": 658123,
		"internal_node_id": "0.0-3.0-1.215"
	},
	{
		"rt": 1168,
		"stimulus": "../audio/12-2-fem.mp3",
		"response": " ",
		"word": "dia",
		"trial_type": "audio-keyboard-response",
		"trial_index": 270,
		"time_elapsed": 659564,
		"internal_node_id": "0.0-3.0-1.216"
	},
	{
		"rt": 1160,
		"stimulus": "../audio/12-3-fem.mp3",
		"response": " ",
		"word": "estava",
		"trial_type": "audio-keyboard-response",
		"trial_index": 271,
		"time_elapsed": 661003,
		"internal_node_id": "0.0-3.0-1.217"
	},
	{
		"rt": 1432,
		"stimulus": "../audio/12-4-fem.mp3",
		"response": " ",
		"word": "quente,",
		"trial_type": "audio-keyboard-response",
		"trial_index": 272,
		"time_elapsed": 662716,
		"internal_node_id": "0.0-3.0-1.218"
	},
	{
		"rt": 1621,
		"stimulus": "../audio/12-5-fem.mp3",
		"response": " ",
		"word": "tranquilo",
		"trial_type": "audio-keyboard-response",
		"trial_index": 273,
		"time_elapsed": 664635,
		"internal_node_id": "0.0-3.0-1.219"
	},
	{
		"rt": 1029,
		"stimulus": "../audio/12-6-fem.mp3",
		"response": " ",
		"word": "e",
		"trial_type": "audio-keyboard-response",
		"trial_index": 274,
		"time_elapsed": 665931,
		"internal_node_id": "0.0-3.0-1.220"
	},
	{
		"rt": 1829,
		"stimulus": "../audio/12-7-fem.mp3",
		"response": " ",
		"word": "ensolarado.",
		"trial_type": "audio-keyboard-response",
		"trial_index": 275,
		"time_elapsed": 668043,
		"internal_node_id": "0.0-3.0-1.221"
	},
	{
		"rt": null,
		"stimulus": "<span style= \"font-size:30px; font-family: monospace\">+</span>",
		"response": null,
		"trial_part": "fixation",
		"trial_type": "html-keyboard-response",
		"trial_index": 276,
		"time_elapsed": 669321,
		"internal_node_id": "0.0-3.0-0.222-0.222"
	},
	{
		"rt": 1301,
		"stimulus": "../audio/15-1-masc.mp3",
		"response": " ",
		"word": "Meu",
		"trial_type": "audio-keyboard-response",
		"trial_index": 277,
		"time_elapsed": 670908,
		"internal_node_id": "0.0-3.0-1.222"
	},
	{
		"rt": 1189,
		"stimulus": "../audio/15-2-masc.mp3",
		"response": " ",
		"word": "primo",
		"trial_type": "audio-keyboard-response",
		"trial_index": 278,
		"time_elapsed": 672379,
		"internal_node_id": "0.0-3.0-1.223"
	},
	{
		"rt": 989,
		"stimulus": "../audio/15-3-masc.mp3",
		"response": " ",
		"word": "é",
		"trial_type": "audio-keyboard-response",
		"trial_index": 279,
		"time_elapsed": 673643,
		"internal_node_id": "0.0-3.0-1.224"
	},
	{
		"rt": 1051,
		"stimulus": "../audio/15-4-masc.mp3",
		"response": " ",
		"word": "um",
		"trial_type": "audio-keyboard-response",
		"trial_index": 280,
		"time_elapsed": 674988,
		"internal_node_id": "0.0-3.0-1.225"
	},
	{
		"rt": 1488,
		"stimulus": "../audio/15-5-masc.mp3",
		"response": " ",
		"word": "grande",
		"trial_type": "audio-keyboard-response",
		"trial_index": 281,
		"time_elapsed": 676763,
		"internal_node_id": "0.0-3.0-1.226"
	},
	{
		"rt": 1560,
		"stimulus": "../audio/15-6-masc.mp3",
		"response": " ",
		"word": "vendedor",
		"trial_type": "audio-keyboard-response",
		"trial_index": 282,
		"time_elapsed": 678620,
		"internal_node_id": "0.0-3.0-1.227"
	},
	{
		"rt": 1128,
		"stimulus": "../audio/15-7-masc.mp3",
		"response": " ",
		"word": "de",
		"trial_type": "audio-keyboard-response",
		"trial_index": 283,
		"time_elapsed": 680043,
		"internal_node_id": "0.0-3.0-1.228"
	},
	{
		"rt": 2619,
		"stimulus": "../audio/15-8-masc.mp3",
		"response": " ",
		"word": "carros.",
		"trial_type": "audio-keyboard-response",
		"trial_index": 284,
		"time_elapsed": 682941,
		"internal_node_id": "0.0-3.0-1.229"
	},
	{
		"rt": 7790,
		"stimulus": "<span style=\"font-size:25px; font-family: monospace\">O primo é um vendedor de carros?</span>",
		"response": "s",
		"question": "O primo é um vendedor de carros?",
		"answer": "null",
		"trial": "exp-sent",
		"trial_type": "html-keyboard-response",
		"trial_index": 285,
		"time_elapsed": 690988,
		"internal_node_id": "0.0-3.0-2.229-0.229",
		"accuracy": false
	},
	{
		"rt": null,
		"stimulus": "<span style= \"font-size:30px; font-family: monospace\">+</span>",
		"response": null,
		"trial_part": "fixation",
		"trial_type": "html-keyboard-response",
		"trial_index": 286,
		"time_elapsed": 692504,
		"internal_node_id": "0.0-3.0-0.230-0.230"
	},
	{
		"rt": 1320,
		"stimulus": "../audio/02-2-masc.mp3",
		"response": " ",
		"word": "Havia",
		"trial_type": "audio-keyboard-response",
		"trial_index": 287,
		"time_elapsed": 694108,
		"internal_node_id": "0.0-3.0-1.230"
	},
	{
		"rt": 1651,
		"stimulus": "../audio/02-2-masc.mp3",
		"response": " ",
		"word": "um",
		"trial_type": "audio-keyboard-response",
		"trial_index": 288,
		"time_elapsed": 696013,
		"internal_node_id": "0.0-3.0-1.231"
	},
	{
		"rt": 2029,
		"stimulus": "../audio/02-3-masc.mp3",
		"response": " ",
		"word": "cheiro",
		"trial_type": "audio-keyboard-response",
		"trial_index": 289,
		"time_elapsed": 698332,
		"internal_node_id": "0.0-3.0-1.232"
	},
	{
		"rt": 1480,
		"stimulus": "../audio/02-4-masc.mp3",
		"response": " ",
		"word": "de",
		"trial_type": "audio-keyboard-response",
		"trial_index": 290,
		"time_elapsed": 700108,
		"internal_node_id": "0.0-3.0-1.233"
	},
	{
		"rt": 1539,
		"stimulus": "../audio/02-5-masc.mp3",
		"response": " ",
		"word": "gasolina",
		"trial_type": "audio-keyboard-response",
		"trial_index": 291,
		"time_elapsed": 701932,
		"internal_node_id": "0.0-3.0-1.234"
	},
	{
		"rt": 1171,
		"stimulus": "../audio/02-6-masc.mp3",
		"response": " ",
		"word": "na",
		"trial_type": "audio-keyboard-response",
		"trial_index": 292,
		"time_elapsed": 703388,
		"internal_node_id": "0.0-3.0-1.235"
	},
	{
		"rt": 1888,
		"stimulus": "../audio/02-7-masc.mp3",
		"response": " ",
		"word": "garagem.",
		"trial_type": "audio-keyboard-response",
		"trial_index": 293,
		"time_elapsed": 705564,
		"internal_node_id": "0.0-3.0-1.236"
	},
	{
		"rt": null,
		"stimulus": "<span style= \"font-size:30px; font-family: monospace\">+</span>",
		"response": null,
		"trial_part": "fixation",
		"trial_type": "html-keyboard-response",
		"trial_index": 294,
		"time_elapsed": 706835,
		"internal_node_id": "0.0-3.0-0.237-0.237"
	},
	{
		"rt": 691,
		"stimulus": "../audio/01-1-masc.mp3",
		"response": " ",
		"word": "O",
		"trial_type": "audio-keyboard-response",
		"trial_index": 295,
		"time_elapsed": 707820,
		"internal_node_id": "0.0-3.0-1.237"
	},
	{
		"rt": 1379,
		"stimulus": "../audio/01-2-masc.mp3",
		"response": " ",
		"word": "menino",
		"trial_type": "audio-keyboard-response",
		"trial_index": 296,
		"time_elapsed": 709484,
		"internal_node_id": "0.0-3.0-1.238"
	},
	{
		"rt": 1501,
		"stimulus": "../audio/01-3-masc.mp3",
		"response": " ",
		"word": "derrubou",
		"trial_type": "audio-keyboard-response",
		"trial_index": 297,
		"time_elapsed": 711276,
		"internal_node_id": "0.0-3.0-1.239"
	},
	{
		"rt": 1011,
		"stimulus": "../audio/01-4-masc.mp3",
		"response": " ",
		"word": "a",
		"trial_type": "audio-keyboard-response",
		"trial_index": 298,
		"time_elapsed": 712572,
		"internal_node_id": "0.0-3.0-1.240"
	},
	{
		"rt": 1499,
		"stimulus": "../audio/01-5-masc.mp3",
		"response": " ",
		"word": "guitarra",
		"trial_type": "audio-keyboard-response",
		"trial_index": 299,
		"time_elapsed": 714364,
		"internal_node_id": "0.0-3.0-1.241"
	},
	{
		"rt": 1491,
		"stimulus": "../audio/01-6-masc.mp3",
		"response": " ",
		"word": "no",
		"trial_type": "audio-keyboard-response",
		"trial_index": 300,
		"time_elapsed": 716140,
		"internal_node_id": "0.0-3.0-1.242"
	},
	{
		"rt": 2000,
		"stimulus": "../audio/01-7-masc.mp3",
		"response": " ",
		"word": "chão.",
		"trial_type": "audio-keyboard-response",
		"trial_index": 301,
		"time_elapsed": 718428,
		"internal_node_id": "0.0-3.0-1.243"
	},
	{
		"rt": null,
		"stimulus": "<span style= \"font-size:30px; font-family: monospace\">+</span>",
		"response": null,
		"trial_part": "fixation",
		"trial_type": "html-keyboard-response",
		"trial_index": 302,
		"time_elapsed": 719695,
		"internal_node_id": "0.0-3.0-0.244-0.244"
	},
	{
		"rt": 1699,
		"stimulus": "../audio/04-1-fem.mp3",
		"response": " ",
		"word": "Duzentos",
		"trial_type": "audio-keyboard-response",
		"trial_index": 303,
		"time_elapsed": 721692,
		"internal_node_id": "0.0-3.0-1.244"
	},
	{
		"rt": 1200,
		"stimulus": "../audio/04-2-fem.mp3",
		"response": " ",
		"word": "carros",
		"trial_type": "audio-keyboard-response",
		"trial_index": 304,
		"time_elapsed": 723163,
		"internal_node_id": "0.0-3.0-1.245"
	},
	{
		"rt": 1981,
		"stimulus": "../audio/04-3-fem.mp3",
		"response": " ",
		"word": "passaram",
		"trial_type": "audio-keyboard-response",
		"trial_index": 305,
		"time_elapsed": 725436,
		"internal_node_id": "0.0-3.0-1.246"
	},
	{
		"rt": 1171,
		"stimulus": "../audio/04-4-fem.mp3",
		"response": " ",
		"word": "pela",
		"trial_type": "audio-keyboard-response",
		"trial_index": 306,
		"time_elapsed": 726908,
		"internal_node_id": "0.0-3.0-1.247"
	},
	{
		"rt": 1240,
		"stimulus": "../audio/04-5-fem.mp3",
		"response": " ",
		"word": "ponte",
		"trial_type": "audio-keyboard-response",
		"trial_index": 307,
		"time_elapsed": 728428,
		"internal_node_id": "0.0-3.0-1.248"
	},
	{
		"rt": 1440,
		"stimulus": "../audio/04-6-fem.mp3",
		"response": " ",
		"word": "hoje",
		"trial_type": "audio-keyboard-response",
		"trial_index": 308,
		"time_elapsed": 730156,
		"internal_node_id": "0.0-3.0-1.249"
	},
	{
		"rt": 1139,
		"stimulus": "../audio/04-7-fem.mp3",
		"response": " ",
		"word": "de",
		"trial_type": "audio-keyboard-response",
		"trial_index": 309,
		"time_elapsed": 731580,
		"internal_node_id": "0.0-3.0-1.250"
	},
	{
		"rt": 1829,
		"stimulus": "../audio/04-8-fem.mp3",
		"response": " ",
		"word": "tarde.",
		"trial_type": "audio-keyboard-response",
		"trial_index": 310,
		"time_elapsed": 733692,
		"internal_node_id": "0.0-3.0-1.251"
	},
	{
		"rt": null,
		"stimulus": "<span style= \"font-size:30px; font-family: monospace\">+</span>",
		"response": null,
		"trial_part": "fixation",
		"trial_type": "html-keyboard-response",
		"trial_index": 311,
		"time_elapsed": 734959,
		"internal_node_id": "0.0-3.0-0.252-0.252"
	},
	{
		"rt": 1120,
		"stimulus": "../audio/03-1-masc.mp3",
		"response": " ",
		"word": "O",
		"trial_type": "audio-keyboard-response",
		"trial_index": 312,
		"time_elapsed": 736380,
		"internal_node_id": "0.0-3.0-1.252"
	},
	{
		"rt": 1469,
		"stimulus": "../audio/03-2-masc.mp3",
		"response": " ",
		"word": "coelho",
		"trial_type": "audio-keyboard-response",
		"trial_index": 313,
		"time_elapsed": 738140,
		"internal_node_id": "0.0-3.0-1.253"
	},
	{
		"rt": 1219,
		"stimulus": "../audio/03-3-masc.mp3",
		"response": " ",
		"word": "foi",
		"trial_type": "audio-keyboard-response",
		"trial_index": 314,
		"time_elapsed": 739644,
		"internal_node_id": "0.0-3.0-1.254"
	},
	{
		"rt": 1640,
		"stimulus": "../audio/03-4-masc.mp3",
		"response": " ",
		"word": "bastante",
		"trial_type": "audio-keyboard-response",
		"trial_index": 315,
		"time_elapsed": 741580,
		"internal_node_id": "0.0-3.0-1.255"
	},
	{
		"rt": 1840,
		"stimulus": "../audio/03-5-masc.mp3",
		"response": " ",
		"word": "dócil",
		"trial_type": "audio-keyboard-response",
		"trial_index": 316,
		"time_elapsed": 743708,
		"internal_node_id": "0.0-3.0-1.256"
	},
	{
		"rt": 1160,
		"stimulus": "../audio/03-6-masc.mp3",
		"response": " ",
		"word": "com",
		"trial_type": "audio-keyboard-response",
		"trial_index": 317,
		"time_elapsed": 745148,
		"internal_node_id": "0.0-3.0-1.257"
	},
	{
		"rt": 1269,
		"stimulus": "../audio/03-7-masc.mp3",
		"response": " ",
		"word": "as",
		"trial_type": "audio-keyboard-response",
		"trial_index": 318,
		"time_elapsed": 746684,
		"internal_node_id": "0.0-3.0-1.258"
	},
	{
		"rt": 1672,
		"stimulus": "../audio/03-8-masc.mp3",
		"response": " ",
		"word": "crianças.",
		"trial_type": "audio-keyboard-response",
		"trial_index": 319,
		"time_elapsed": 748636,
		"internal_node_id": "0.0-3.0-1.259"
	},
	{
		"rt": null,
		"stimulus": "<span style= \"font-size:30px; font-family: monospace\">+</span>",
		"response": null,
		"trial_part": "fixation",
		"trial_type": "html-keyboard-response",
		"trial_index": 320,
		"time_elapsed": 749906,
		"internal_node_id": "0.0-3.0-0.260-0.260"
	},
	{
		"rt": 1659,
		"stimulus": "../audio/05-1-masc.mp3",
		"response": " ",
		"word": "A",
		"trial_type": "audio-keyboard-response",
		"trial_index": 321,
		"time_elapsed": 751852,
		"internal_node_id": "0.0-3.0-1.260"
	},
	{
		"rt": 2040,
		"stimulus": "../audio/05-2-masc.mp3",
		"response": " ",
		"word": "vendedora",
		"trial_type": "audio-keyboard-response",
		"trial_index": 322,
		"time_elapsed": 754172,
		"internal_node_id": "0.0-3.0-1.261"
	},
	{
		"rt": 1651,
		"stimulus": "../audio/05-3-masc.mp3",
		"response": " ",
		"word": "ajudou",
		"trial_type": "audio-keyboard-response",
		"trial_index": 323,
		"time_elapsed": 756108,
		"internal_node_id": "0.0-3.0-1.262"
	},
	{
		"rt": 1728,
		"stimulus": "../audio/05-4-masc.mp3",
		"response": " ",
		"word": "um",
		"trial_type": "audio-keyboard-response",
		"trial_index": 324,
		"time_elapsed": 758124,
		"internal_node_id": "0.0-3.0-1.263"
	},
	{
		"rt": 1960,
		"stimulus": "../audio/05-5-masc.mp3",
		"response": " ",
		"word": "turista",
		"trial_type": "audio-keyboard-response",
		"trial_index": 325,
		"time_elapsed": 760364,
		"internal_node_id": "0.0-3.0-1.264"
	},
	{
		"rt": 2429,
		"stimulus": "../audio/05-6-masc.mp3",
		"response": " ",
		"word": "na",
		"trial_type": "audio-keyboard-response",
		"trial_index": 326,
		"time_elapsed": 763084,
		"internal_node_id": "0.0-3.0-1.265"
	},
	{
		"rt": 2509,
		"stimulus": "../audio/05-7-masc.mp3",
		"response": " ",
		"word": "loja.",
		"trial_type": "audio-keyboard-response",
		"trial_index": 327,
		"time_elapsed": 765900,
		"internal_node_id": "0.0-3.0-1.266"
	},
	{
		"rt": 9985,
		"stimulus": "<span style=\"font-size:25px; font-family: monospace\">A vendedora ajudou um turista?</span>",
		"response": "n",
		"question": "A vendedora ajudou um turista?",
		"answer": "null",
		"trial": "exp-sent",
		"trial_type": "html-keyboard-response",
		"trial_index": 328,
		"time_elapsed": 776141,
		"internal_node_id": "0.0-3.0-2.266-0.266",
		"accuracy": false
	},
	{
		"rt": null,
		"stimulus": "<span style= \"font-size:30px; font-family: monospace\">+</span>",
		"response": null,
		"trial_part": "fixation",
		"trial_type": "html-keyboard-response",
		"trial_index": 329,
		"time_elapsed": 777658,
		"internal_node_id": "0.0-3.0-0.267-0.267"
	},
	{
		"rt": 1299,
		"stimulus": "../audio/62-1-fem.mp3",
		"response": " ",
		"word": "As",
		"trial_type": "audio-keyboard-response",
		"trial_index": 330,
		"time_elapsed": 779244,
		"internal_node_id": "0.0-3.0-1.267"
	},
	{
		"rt": 1781,
		"stimulus": "../audio/62-2-fem.mp3",
		"response": " ",
		"word": "artesãs",
		"trial_type": "audio-keyboard-response",
		"trial_index": 331,
		"time_elapsed": 781308,
		"internal_node_id": "0.0-3.0-1.268"
	},
	{
		"rt": 1651,
		"stimulus": "../audio/62-3-fem.mp3",
		"response": " ",
		"word": "gostam",
		"trial_type": "audio-keyboard-response",
		"trial_index": 332,
		"time_elapsed": 783260,
		"internal_node_id": "0.0-3.0-1.269"
	},
	{
		"rt": 1629,
		"stimulus": "../audio/62-4-fem.mp3",
		"response": " ",
		"word": "de",
		"trial_type": "audio-keyboard-response",
		"trial_index": 333,
		"time_elapsed": 785164,
		"internal_node_id": "0.0-3.0-1.270"
	},
	{
		"rt": 1912,
		"stimulus": "../audio/62-5-fem.mp3",
		"response": " ",
		"word": "maquiagem",
		"trial_type": "audio-keyboard-response",
		"trial_index": 334,
		"time_elapsed": 787356,
		"internal_node_id": "0.0-3.0-1.271"
	},
	{
		"rt": 2979,
		"stimulus": "../audio/62-6-fem.mp3",
		"response": " ",
		"word": "e",
		"trial_type": "audio-keyboard-response",
		"trial_index": 335,
		"time_elapsed": 790620,
		"internal_node_id": "0.0-3.0-1.272"
	},
	{
		"rt": 1259,
		"stimulus": "../audio/62-7-fem.mp3",
		"response": " ",
		"word": "de",
		"trial_type": "audio-keyboard-response",
		"trial_index": 336,
		"time_elapsed": 792171,
		"internal_node_id": "0.0-3.0-1.273"
	},
	{
		"rt": 1621,
		"stimulus": "../audio/62-8-fem.mp3",
		"response": " ",
		"word": "crochê.",
		"trial_type": "audio-keyboard-response",
		"trial_index": 337,
		"time_elapsed": 794076,
		"internal_node_id": "0.0-3.0-1.274"
	},
	{
		"rt": null,
		"stimulus": "<span style= \"font-size:30px; font-family: monospace\">+</span>",
		"response": null,
		"trial_part": "fixation",
		"trial_type": "html-keyboard-response",
		"trial_index": 338,
		"time_elapsed": 795343,
		"internal_node_id": "0.0-3.0-0.275-0.275"
	},
	{
		"rt": 1491,
		"stimulus": "../audio/64-1-fem.mp3",
		"response": " ",
		"word": "O",
		"trial_type": "audio-keyboard-response",
		"trial_index": 339,
		"time_elapsed": 797132,
		"internal_node_id": "0.0-3.0-1.275"
	},
	{
		"rt": 1331,
		"stimulus": "../audio/64-2-fem.mp3",
		"response": " ",
		"word": "dia",
		"trial_type": "audio-keyboard-response",
		"trial_index": 340,
		"time_elapsed": 798732,
		"internal_node_id": "0.0-3.0-1.276"
	},
	{
		"rt": 2640,
		"stimulus": "../audio/64-3-fem.mp3",
		"response": " ",
		"word": "começou",
		"trial_type": "audio-keyboard-response",
		"trial_index": 341,
		"time_elapsed": 801644,
		"internal_node_id": "0.0-3.0-1.277"
	},
	{
		"rt": 1229,
		"stimulus": "../audio/64-4-fem.mp3",
		"response": " ",
		"word": "com",
		"trial_type": "audio-keyboard-response",
		"trial_index": 342,
		"time_elapsed": 803164,
		"internal_node_id": "0.0-3.0-1.278"
	},
	{
		"rt": 1789,
		"stimulus": "../audio/64-5-fem.mp3",
		"response": " ",
		"word": "garoa",
		"trial_type": "audio-keyboard-response",
		"trial_index": 343,
		"time_elapsed": 805244,
		"internal_node_id": "0.0-3.0-1.279"
	},
	{
		"rt": 1709,
		"stimulus": "../audio/64-6-fem.mp3",
		"response": " ",
		"word": "gelada",
		"trial_type": "audio-keyboard-response",
		"trial_index": 344,
		"time_elapsed": 807244,
		"internal_node_id": "0.0-3.0-1.280"
	},
	{
		"rt": 1221,
		"stimulus": "../audio/64-7-fem.mp3",
		"response": " ",
		"word": "e",
		"trial_type": "audio-keyboard-response",
		"trial_index": 345,
		"time_elapsed": 808749,
		"internal_node_id": "0.0-3.0-1.281"
	},
	{
		"rt": 1880,
		"stimulus": "../audio/64-8-fem.mp3",
		"response": " ",
		"word": "leve.",
		"trial_type": "audio-keyboard-response",
		"trial_index": 346,
		"time_elapsed": 810909,
		"internal_node_id": "0.0-3.0-1.282"
	},
	{
		"rt": null,
		"stimulus": "<span style= \"font-size:30px; font-family: monospace\">+</span>",
		"response": null,
		"trial_part": "fixation",
		"trial_type": "html-keyboard-response",
		"trial_index": 347,
		"time_elapsed": 812164,
		"internal_node_id": "0.0-3.0-0.283-0.283"
	},
	{
		"rt": 1560,
		"stimulus": "../audio/61-1-fem.mp3",
		"response": " ",
		"word": "Aquele",
		"trial_type": "audio-keyboard-response",
		"trial_index": 348,
		"time_elapsed": 814013,
		"internal_node_id": "0.0-3.0-1.283"
	},
	{
		"rt": 1571,
		"stimulus": "../audio/61-2-fem.mp3",
		"response": " ",
		"word": "senhor",
		"trial_type": "audio-keyboard-response",
		"trial_index": 349,
		"time_elapsed": 815868,
		"internal_node_id": "0.0-3.0-1.284"
	},
	{
		"rt": 1179,
		"stimulus": "../audio/61-3-fem.mp3",
		"response": " ",
		"word": "é",
		"trial_type": "audio-keyboard-response",
		"trial_index": 350,
		"time_elapsed": 817324,
		"internal_node_id": "0.0-3.0-1.285"
	},
	{
		"rt": 1891,
		"stimulus": "../audio/61-4-fem.mp3",
		"response": " ",
		"word": "muito",
		"trial_type": "audio-keyboard-response",
		"trial_index": 351,
		"time_elapsed": 819501,
		"internal_node_id": "0.0-3.0-1.286"
	},
	{
		"rt": 1891,
		"stimulus": "../audio/61-5-fem.mp3",
		"response": " ",
		"word": "sovina",
		"trial_type": "audio-keyboard-response",
		"trial_index": 352,
		"time_elapsed": 821676,
		"internal_node_id": "0.0-3.0-1.287"
	},
	{
		"rt": 1131,
		"stimulus": "../audio/61-6-fem.mp3",
		"response": " ",
		"word": "e",
		"trial_type": "audio-keyboard-response",
		"trial_index": 353,
		"time_elapsed": 823101,
		"internal_node_id": "0.0-3.0-1.288"
	},
	{
		"rt": 2669,
		"stimulus": "../audio/61-7-fem.mp3",
		"response": " ",
		"word": "inflexível.",
		"trial_type": "audio-keyboard-response",
		"trial_index": 354,
		"time_elapsed": 826044,
		"internal_node_id": "0.0-3.0-1.289"
	},
	{
		"rt": null,
		"stimulus": "<span style= \"font-size:30px; font-family: monospace\">+</span>",
		"response": null,
		"trial_part": "fixation",
		"trial_type": "html-keyboard-response",
		"trial_index": 355,
		"time_elapsed": 827307,
		"internal_node_id": "0.0-3.0-0.290-0.290"
	},
	{
		"rt": 1211,
		"stimulus": "../audio/63-1-masc.mp3",
		"response": " ",
		"word": "A",
		"trial_type": "audio-keyboard-response",
		"trial_index": 356,
		"time_elapsed": 828813,
		"internal_node_id": "0.0-3.0-1.290"
	},
	{
		"rt": 1381,
		"stimulus": "../audio/63-2-masc.mp3",
		"response": " ",
		"word": "chuva",
		"trial_type": "audio-keyboard-response",
		"trial_index": 357,
		"time_elapsed": 830477,
		"internal_node_id": "0.0-3.0-1.291"
	},
	{
		"rt": 1299,
		"stimulus": "../audio/63-3-masc.mp3",
		"response": " ",
		"word": "entrou",
		"trial_type": "audio-keyboard-response",
		"trial_index": 358,
		"time_elapsed": 832060,
		"internal_node_id": "0.0-3.0-1.292"
	},
	{
		"rt": 1229,
		"stimulus": "../audio/63-4-masc.mp3",
		"response": " ",
		"word": "pela",
		"trial_type": "audio-keyboard-response",
		"trial_index": 359,
		"time_elapsed": 833581,
		"internal_node_id": "0.0-3.0-1.293"
	},
	{
		"rt": 1400,
		"stimulus": "../audio/63-5-masc.mp3",
		"response": " ",
		"word": "abertura",
		"trial_type": "audio-keyboard-response",
		"trial_index": 360,
		"time_elapsed": 835260,
		"internal_node_id": "0.0-3.0-1.294"
	},
	{
		"rt": 1189,
		"stimulus": "../audio/63-6-masc.mp3",
		"response": " ",
		"word": "na",
		"trial_type": "audio-keyboard-response",
		"trial_index": 361,
		"time_elapsed": 836732,
		"internal_node_id": "0.0-3.0-1.295"
	},
	{
		"rt": 2021,
		"stimulus": "../audio/63-7-masc.mp3",
		"response": " ",
		"word": "janela.",
		"trial_type": "audio-keyboard-response",
		"trial_index": 362,
		"time_elapsed": 839036,
		"internal_node_id": "0.0-3.0-1.296"
	},
	{
		"rt": null,
		"stimulus": "<span style= \"font-size:30px; font-family: monospace\">+</span>",
		"response": null,
		"trial_part": "fixation",
		"trial_type": "html-keyboard-response",
		"trial_index": 363,
		"time_elapsed": 840295,
		"internal_node_id": "0.0-3.0-0.297-0.297"
	},
	{
		"rt": 989,
		"stimulus": "../audio/65-1-fem.mp3",
		"response": " ",
		"word": "O",
		"trial_type": "audio-keyboard-response",
		"trial_index": 364,
		"time_elapsed": 841580,
		"internal_node_id": "0.0-3.0-1.297"
	},
	{
		"rt": 1720,
		"stimulus": "../audio/65-2-fem.mp3",
		"response": " ",
		"word": "fantasma",
		"trial_type": "audio-keyboard-response",
		"trial_index": 365,
		"time_elapsed": 843596,
		"internal_node_id": "0.0-3.0-1.298"
	},
	{
		"rt": 1341,
		"stimulus": "../audio/65-3-fem.mp3",
		"response": " ",
		"word": "veio",
		"trial_type": "audio-keyboard-response",
		"trial_index": 366,
		"time_elapsed": 845228,
		"internal_node_id": "0.0-3.0-1.299"
	},
	{
		"rt": 1139,
		"stimulus": "../audio/65-4-fem.mp3",
		"response": " ",
		"word": "da",
		"trial_type": "audio-keyboard-response",
		"trial_index": 367,
		"time_elapsed": 846653,
		"internal_node_id": "0.0-3.0-1.300"
	},
	{
		"rt": 1989,
		"stimulus": "../audio/65-5-fem.mp3",
		"response": " ",
		"word": "escuridão",
		"trial_type": "audio-keyboard-response",
		"trial_index": 368,
		"time_elapsed": 848924,
		"internal_node_id": "0.0-3.0-1.301"
	},
	{
		"rt": 952,
		"stimulus": "../audio/65-6-fem.mp3",
		"response": " ",
		"word": "do",
		"trial_type": "audio-keyboard-response",
		"trial_index": 369,
		"time_elapsed": 850157,
		"internal_node_id": "0.0-3.0-1.302"
	},
	{
		"rt": 2299,
		"stimulus": "../audio/65-7-fem.mp3",
		"response": " ",
		"word": "armário.",
		"trial_type": "audio-keyboard-response",
		"trial_index": 370,
		"time_elapsed": 852733,
		"internal_node_id": "0.0-3.0-1.303"
	},
	{
		"rt": 8422,
		"stimulus": "<span style=\"font-size:25px; font-family: monospace\">O fantasma veio da escuridão do armário?</span>",
		"response": "s",
		"question": "O fantasma veio da escuridão do armário?",
		"answer": "null",
		"trial": "exp-sent",
		"trial_type": "html-keyboard-response",
		"trial_index": 371,
		"time_elapsed": 861421,
		"internal_node_id": "0.0-3.0-2.303-0.303",
		"accuracy": false
	},
	{
		"rt": null,
		"stimulus": "<span style= \"font-size:30px; font-family: monospace\">+</span>",
		"response": null,
		"trial_part": "fixation",
		"trial_type": "html-keyboard-response",
		"trial_index": 372,
		"time_elapsed": 862946,
		"internal_node_id": "0.0-3.0-0.304-0.304"
	},
	{
		"rt": 6011,
		"stimulus": "../audio/57-1-fem.mp3",
		"response": " ",
		"word": "O",
		"trial_type": "audio-keyboard-response",
		"trial_index": 373,
		"time_elapsed": 869262,
		"internal_node_id": "0.0-3.0-1.304"
	},
	{
		"rt": 1848,
		"stimulus": "../audio/57-2-fem.mp3",
		"response": " ",
		"word": "capitão",
		"trial_type": "audio-keyboard-response",
		"trial_index": 374,
		"time_elapsed": 871405,
		"internal_node_id": "0.0-3.0-1.305"
	},
	{
		"rt": 2141,
		"stimulus": "../audio/57-3-fem.mp3",
		"response": " ",
		"word": "deu",
		"trial_type": "audio-keyboard-response",
		"trial_index": 375,
		"time_elapsed": 873837,
		"internal_node_id": "0.0-3.0-1.306"
	},
	{
		"rt": 1320,
		"stimulus": "../audio/57-4-fem.mp3",
		"response": " ",
		"word": "uma",
		"trial_type": "audio-keyboard-response",
		"trial_index": 376,
		"time_elapsed": 875437,
		"internal_node_id": "0.0-3.0-1.307"
	},
	{
		"rt": 1608,
		"stimulus": "../audio/57-5-fem.mp3",
		"response": " ",
		"word": "instrução",
		"trial_type": "audio-keyboard-response",
		"trial_index": 377,
		"time_elapsed": 877325,
		"internal_node_id": "0.0-3.0-1.308"
	},
	{
		"rt": 1040,
		"stimulus": "../audio/57-6-fem.mp3",
		"response": " ",
		"word": "para",
		"trial_type": "audio-keyboard-response",
		"trial_index": 378,
		"time_elapsed": 878653,
		"internal_node_id": "0.0-3.0-1.309"
	},
	{
		"rt": 901,
		"stimulus": "../audio/57-7-fem.mp3",
		"response": " ",
		"word": "as",
		"trial_type": "audio-keyboard-response",
		"trial_index": 379,
		"time_elapsed": 879838,
		"internal_node_id": "0.0-3.0-1.310"
	},
	{
		"rt": 1128,
		"stimulus": "../audio/57-8-fem.mp3",
		"response": " ",
		"word": "pessoas.",
		"trial_type": "audio-keyboard-response",
		"trial_index": 380,
		"time_elapsed": 881245,
		"internal_node_id": "0.0-3.0-1.311"
	},
	{
		"rt": null,
		"stimulus": "<span style= \"font-size:30px; font-family: monospace\">+</span>",
		"response": null,
		"trial_part": "fixation",
		"trial_type": "html-keyboard-response",
		"trial_index": 381,
		"time_elapsed": 882525,
		"internal_node_id": "0.0-3.0-0.312-0.312"
	},
	{
		"rt": 1211,
		"stimulus": "../audio/58-1-fem.mp3",
		"response": " ",
		"word": "Havia",
		"trial_type": "audio-keyboard-response",
		"trial_index": 382,
		"time_elapsed": 884029,
		"internal_node_id": "0.0-3.0-1.312"
	},
	{
		"rt": 1469,
		"stimulus": "../audio/58-2-fem.mp3",
		"response": " ",
		"word": "apenas",
		"trial_type": "audio-keyboard-response",
		"trial_index": 383,
		"time_elapsed": 885773,
		"internal_node_id": "0.0-3.0-1.313"
	},
	{
		"rt": 1072,
		"stimulus": "../audio/58-3-fem.mp3",
		"response": " ",
		"word": "um",
		"trial_type": "audio-keyboard-response",
		"trial_index": 384,
		"time_elapsed": 887117,
		"internal_node_id": "0.0-3.0-1.314"
	},
	{
		"rt": 1619,
		"stimulus": "../audio/58-4-fem.mp3",
		"response": " ",
		"word": "último",
		"trial_type": "audio-keyboard-response",
		"trial_index": 385,
		"time_elapsed": 889021,
		"internal_node_id": "0.0-3.0-1.315"
	},
	{
		"rt": 1491,
		"stimulus": "../audio/58-5-fem.mp3",
		"response": " ",
		"word": "herdeiro",
		"trial_type": "audio-keyboard-response",
		"trial_index": 386,
		"time_elapsed": 890797,
		"internal_node_id": "0.0-3.0-1.316"
	},
	{
		"rt": 1288,
		"stimulus": "../audio/58-6-fem.mp3",
		"response": " ",
		"word": "do",
		"trial_type": "audio-keyboard-response",
		"trial_index": 387,
		"time_elapsed": 892365,
		"internal_node_id": "0.0-3.0-1.317"
	},
	{
		"rt": 3040,
		"stimulus": "../audio/58-7-fem.mp3",
		"response": " ",
		"word": "dinheiro.",
		"trial_type": "audio-keyboard-response",
		"trial_index": 388,
		"time_elapsed": 895694,
		"internal_node_id": "0.0-3.0-1.318"
	},
	{
		"rt": null,
		"stimulus": "<span style= \"font-size:30px; font-family: monospace\">+</span>",
		"response": null,
		"trial_part": "fixation",
		"trial_type": "html-keyboard-response",
		"trial_index": 389,
		"time_elapsed": 896968,
		"internal_node_id": "0.0-3.0-0.319-0.319"
	},
	{
		"rt": 1080,
		"stimulus": "../audio/56-1-fem.mp3",
		"response": " ",
		"word": "A",
		"trial_type": "audio-keyboard-response",
		"trial_index": 390,
		"time_elapsed": 898333,
		"internal_node_id": "0.0-3.0-1.319"
	},
	{
		"rt": 1221,
		"stimulus": "../audio/56-2-fem.mp3",
		"response": " ",
		"word": "moça",
		"trial_type": "audio-keyboard-response",
		"trial_index": 391,
		"time_elapsed": 899837,
		"internal_node_id": "0.0-3.0-1.320"
	},
	{
		"rt": 1072,
		"stimulus": "../audio/56-3-fem.mp3",
		"response": " ",
		"word": "foi",
		"trial_type": "audio-keyboard-response",
		"trial_index": 392,
		"time_elapsed": 901197,
		"internal_node_id": "0.0-3.0-1.321"
	},
	{
		"rt": 840,
		"stimulus": "../audio/56-4-fem.mp3",
		"response": " ",
		"word": "à",
		"trial_type": "audio-keyboard-response",
		"trial_index": 393,
		"time_elapsed": 902317,
		"internal_node_id": "0.0-3.0-1.322"
	},
	{
		"rt": 1349,
		"stimulus": "../audio/56-5-fem.mp3",
		"response": " ",
		"word": "agência",
		"trial_type": "audio-keyboard-response",
		"trial_index": 394,
		"time_elapsed": 903949,
		"internal_node_id": "0.0-3.0-1.323"
	},
	{
		"rt": 1229,
		"stimulus": "../audio/56-6-fem.mp3",
		"response": " ",
		"word": "bancária",
		"trial_type": "audio-keyboard-response",
		"trial_index": 395,
		"time_elapsed": 905469,
		"internal_node_id": "0.0-3.0-1.324"
	},
	{
		"rt": 1549,
		"stimulus": "../audio/56-7-fem.mp3",
		"response": " ",
		"word": "ontem",
		"trial_type": "audio-keyboard-response",
		"trial_index": 396,
		"time_elapsed": 907294,
		"internal_node_id": "0.0-3.0-1.325"
	},
	{
		"rt": 1080,
		"stimulus": "../audio/56-8-fem.mp3",
		"response": " ",
		"word": "de",
		"trial_type": "audio-keyboard-response",
		"trial_index": 397,
		"time_elapsed": 908653,
		"internal_node_id": "0.0-3.0-1.326"
	},
	{
		"rt": 1541,
		"stimulus": "../audio/56-9-fem.mp3",
		"response": " ",
		"word": "tarde.",
		"trial_type": "audio-keyboard-response",
		"trial_index": 398,
		"time_elapsed": 910477,
		"internal_node_id": "0.0-3.0-1.327"
	},
	{
		"rt": null,
		"stimulus": "<span style= \"font-size:30px; font-family: monospace\">+</span>",
		"response": null,
		"trial_part": "fixation",
		"trial_type": "html-keyboard-response",
		"trial_index": 399,
		"time_elapsed": 911755,
		"internal_node_id": "0.0-3.0-0.328-0.328"
	},
	{
		"rt": 1011,
		"stimulus": "../audio/59-1-fem.mp3",
		"response": " ",
		"word": "O",
		"trial_type": "audio-keyboard-response",
		"trial_index": 400,
		"time_elapsed": 913054,
		"internal_node_id": "0.0-3.0-1.328"
	},
	{
		"rt": 1189,
		"stimulus": "../audio/59-2-fem.mp3",
		"response": " ",
		"word": "carteiro",
		"trial_type": "audio-keyboard-response",
		"trial_index": 401,
		"time_elapsed": 914525,
		"internal_node_id": "0.0-3.0-1.329"
	},
	{
		"rt": 981,
		"stimulus": "../audio/59-3-fem.mp3",
		"response": " ",
		"word": "fez",
		"trial_type": "audio-keyboard-response",
		"trial_index": 402,
		"time_elapsed": 915789,
		"internal_node_id": "0.0-3.0-1.330"
	},
	{
		"rt": 891,
		"stimulus": "../audio/59-4-fem.mp3",
		"response": " ",
		"word": "uma",
		"trial_type": "audio-keyboard-response",
		"trial_index": 403,
		"time_elapsed": 916957,
		"internal_node_id": "0.0-3.0-1.331"
	},
	{
		"rt": 1120,
		"stimulus": "../audio/59-5-fem.mp3",
		"response": " ",
		"word": "tentativa",
		"trial_type": "audio-keyboard-response",
		"trial_index": 404,
		"time_elapsed": 918365,
		"internal_node_id": "0.0-3.0-1.332"
	},
	{
		"rt": 1112,
		"stimulus": "../audio/59-6-fem.mp3",
		"response": " ",
		"word": "de",
		"trial_type": "audio-keyboard-response",
		"trial_index": 405,
		"time_elapsed": 919757,
		"internal_node_id": "0.0-3.0-1.333"
	},
	{
		"rt": 1869,
		"stimulus": "../audio/59-7-fem.mp3",
		"response": " ",
		"word": "entrega.",
		"trial_type": "audio-keyboard-response",
		"trial_index": 406,
		"time_elapsed": 921901,
		"internal_node_id": "0.0-3.0-1.334"
	},
	{
		"rt": null,
		"stimulus": "<span style= \"font-size:30px; font-family: monospace\">+</span>",
		"response": null,
		"trial_part": "fixation",
		"trial_type": "html-keyboard-response",
		"trial_index": 407,
		"time_elapsed": 923166,
		"internal_node_id": "0.0-3.0-0.335-0.335"
	},
	{
		"rt": 1739,
		"stimulus": "../audio/60-1-fem.mp3",
		"response": " ",
		"word": "Ondas",
		"trial_type": "audio-keyboard-response",
		"trial_index": 408,
		"time_elapsed": 925214,
		"internal_node_id": "0.0-3.0-1.335"
	},
	{
		"rt": 1240,
		"stimulus": "../audio/60-2-fem.mp3",
		"response": " ",
		"word": "têm",
		"trial_type": "audio-keyboard-response",
		"trial_index": 409,
		"time_elapsed": 926749,
		"internal_node_id": "0.0-3.0-1.336"
	},
	{
		"rt": 1240,
		"stimulus": "../audio/60-3-fem.mp3",
		"response": " ",
		"word": "um",
		"trial_type": "audio-keyboard-response",
		"trial_index": 410,
		"time_elapsed": 928253,
		"internal_node_id": "0.0-3.0-1.337"
	},
	{
		"rt": 1669,
		"stimulus": "../audio/60-4-fem.mp3",
		"response": " ",
		"word": "impacto",
		"trial_type": "audio-keyboard-response",
		"trial_index": 411,
		"time_elapsed": 930205,
		"internal_node_id": "0.0-3.0-1.338"
	},
	{
		"rt": 1400,
		"stimulus": "../audio/60-5-fem.mp3",
		"response": " ",
		"word": "destrutivo",
		"trial_type": "audio-keyboard-response",
		"trial_index": 412,
		"time_elapsed": 931885,
		"internal_node_id": "0.0-3.0-1.339"
	},
	{
		"rt": 1171,
		"stimulus": "../audio/60-6-fem.mp3",
		"response": " ",
		"word": "no",
		"trial_type": "audio-keyboard-response",
		"trial_index": 413,
		"time_elapsed": 933341,
		"internal_node_id": "0.0-3.0-1.340"
	},
	{
		"rt": 1709,
		"stimulus": "../audio/60-7-fem.mp3",
		"response": " ",
		"word": "litoral.",
		"trial_type": "audio-keyboard-response",
		"trial_index": 414,
		"time_elapsed": 935325,
		"internal_node_id": "0.0-3.0-1.341"
	},
	{
		"rt": 8911,
		"stimulus": "<span style=\"font-size:25px; font-family: monospace\">Ondas têm um impacto destrutivo?</span>",
		"response": "s",
		"question": "Ondas têm um impacto destrutivo?",
		"answer": "null",
		"trial": "exp-sent",
		"trial_type": "html-keyboard-response",
		"trial_index": 415,
		"time_elapsed": 944493,
		"internal_node_id": "0.0-3.0-2.341-0.341",
		"accuracy": false
	},
	{
		"rt": null,
		"stimulus": "<span style= \"font-size:30px; font-family: monospace\">+</span>",
		"response": null,
		"trial_part": "fixation",
		"trial_type": "html-keyboard-response",
		"trial_index": 416,
		"time_elapsed": 946010,
		"internal_node_id": "0.0-3.0-0.342-0.342"
	},
	{
		"rt": 1301,
		"stimulus": "../audio/76-1-masc.mp3",
		"response": " ",
		"word": "O",
		"trial_type": "audio-keyboard-response",
		"trial_index": 417,
		"time_elapsed": 947597,
		"internal_node_id": "0.0-3.0-1.342"
	},
	{
		"rt": 1392,
		"stimulus": "../audio/76-2-masc.mp3",
		"response": " ",
		"word": "bisavô",
		"trial_type": "audio-keyboard-response",
		"trial_index": 418,
		"time_elapsed": 949277,
		"internal_node_id": "0.0-3.0-1.343"
	},
	{
		"rt": 1251,
		"stimulus": "../audio/76-3-masc.mp3",
		"response": " ",
		"word": "comprou",
		"trial_type": "audio-keyboard-response",
		"trial_index": 419,
		"time_elapsed": 950813,
		"internal_node_id": "0.0-3.0-1.344"
	},
	{
		"rt": 901,
		"stimulus": "../audio/76-4-masc.mp3",
		"response": " ",
		"word": "um",
		"trial_type": "audio-keyboard-response",
		"trial_index": 420,
		"time_elapsed": 951996,
		"internal_node_id": "0.0-3.0-1.345"
	},
	{
		"rt": 869,
