[
	{
		"view_history": [
			{
				"page_index": 0,
				"viewing_time": 25624
			},
			{
				"page_index": 1,
				"viewing_time": 7296
			}
		],
		"rt": 32920,
		"trial_type": "instructions",
		"trial_index": 0,
		"time_elapsed": 32920,
		"internal_node_id": "0.0-0.0"
	},
	{
		"rt": null,
		"stimulus": "<span style= \"font-size:30px; font-family: monospace\">+</span>",
		"response": null,
		"trial_part": "fixation",
		"trial_type": "html-keyboard-response",
		"trial_index": 1,
		"time_elapsed": 34034,
		"internal_node_id": "0.0-1.0-0.0-0.0"
	},
	{
		"rt": 9952,
		"stimulus": "../audio/prac-question-1-1.mp3",
		"response": " ",
		"word": "O",
		"trial_type": "audio-keyboard-response",
		"trial_index": 2,
		"time_elapsed": 44241,
		"internal_node_id": "0.0-1.0-1.0"
	},
	{
		"rt": 2109,
		"stimulus": "../audio/prac-question-1-2.mp3",
		"response": " ",
		"word": "dia",
		"trial_type": "audio-keyboard-response",
		"trial_index": 3,
		"time_elapsed": 46624,
		"internal_node_id": "0.0-1.0-1.1"
	},
	{
		"rt": 3429,
		"stimulus": "../audio/prac-question-1-3.mp3",
		"response": " ",
		"word": "estará",
		"trial_type": "audio-keyboard-response",
		"trial_index": 4,
		"time_elapsed": 50336,
		"internal_node_id": "0.0-1.0-1.2"
	},
	{
		"rt": 17901,
		"stimulus": "../audio/prac-question-1-4.mp3",
		"response": " ",
		"word": "cheio",
		"trial_type": "audio-keyboard-response",
		"trial_index": 5,
		"time_elapsed": 68512,
		"internal_node_id": "0.0-1.0-1.3"
	},
	{
		"rt": 5069,
		"stimulus": "../audio/prac-question-1-5.mp3",
		"response": " ",
		"word": "de",
		"trial_type": "audio-keyboard-response",
		"trial_index": 6,
		"time_elapsed": 73856,
		"internal_node_id": "0.0-1.0-1.4"
	},
	{
		"rt": 1749,
		"stimulus": "../audio/prac-question-1-6.mp3",
		"response": " ",
		"word": "nuvens",
		"trial_type": "audio-keyboard-response",
		"trial_index": 7,
		"time_elapsed": 75888,
		"internal_node_id": "0.0-1.0-1.5"
	},
	{
		"rt": 1272,
		"stimulus": "../audio/prac-question-1-7.mp3",
		"response": " ",
		"word": "hoje.",
		"trial_type": "audio-keyboard-response",
		"trial_index": 8,
		"time_elapsed": 77440,
		"internal_node_id": "0.0-1.0-1.6"
	},
	{
		"rt": null,
		"stimulus": "<span style= \"font-size:30px; font-family: monospace\">+</span>",
		"response": null,
		"trial_part": "fixation",
		"trial_type": "html-keyboard-response",
		"trial_index": 9,
		"time_elapsed": 78706,
		"internal_node_id": "0.0-1.0-0.7-0.7"
	},
	{
		"rt": 949,
		"stimulus": "../audio/prac-question-2-1.mp3",
		"response": " ",
		"word": "A",
		"trial_type": "audio-keyboard-response",
		"trial_index": 10,
		"time_elapsed": 79936,
		"internal_node_id": "0.0-1.0-1.7"
	},
	{
		"rt": 1211,
		"stimulus": "../audio/prac-question-2-2.mp3",
		"response": " ",
		"word": "caneca",
		"trial_type": "audio-keyboard-response",
		"trial_index": 11,
		"time_elapsed": 81424,
		"internal_node_id": "0.0-1.0-1.8"
	},
	{
		"rt": 1112,
		"stimulus": "../audio/prac-question-2-3.mp3",
		"response": " ",
		"word": "colorida",
		"trial_type": "audio-keyboard-response",
		"trial_index": 12,
		"time_elapsed": 82800,
		"internal_node_id": "0.0-1.0-1.9"
	},
	{
		"rt": 1099,
		"stimulus": "../audio/prac-question-2-4.mp3",
		"response": " ",
		"word": "caiu",
		"trial_type": "audio-keyboard-response",
		"trial_index": 13,
		"time_elapsed": 84176,
		"internal_node_id": "0.0-1.0-1.10"
	},
	{
		"rt": 989,
		"stimulus": "../audio/prac-question-2-5.mp3",
		"response": " ",
		"word": "da",
		"trial_type": "audio-keyboard-response",
		"trial_index": 14,
		"time_elapsed": 85456,
		"internal_node_id": "0.0-1.0-1.11"
	},
	{
		"rt": 1011,
		"stimulus": "../audio/prac-question-2-6.mp3",
		"response": " ",
		"word": "mesa",
		"trial_type": "audio-keyboard-response",
		"trial_index": 15,
		"time_elapsed": 86752,
		"internal_node_id": "0.0-1.0-1.12"
	},
	{
		"rt": 1080,
		"stimulus": "../audio/prac-question-2-7.mp3",
		"response": " ",
		"word": "de",
		"trial_type": "audio-keyboard-response",
		"trial_index": 16,
		"time_elapsed": 88112,
		"internal_node_id": "0.0-1.0-1.13"
	},
	{
		"rt": 1240,
		"stimulus": "../audio/prac-question-2-8.mp3",
		"response": " ",
		"word": "jantar.",
		"trial_type": "audio-keyboard-response",
		"trial_index": 17,
		"time_elapsed": 89632,
		"internal_node_id": "0.0-1.0-1.14"
	},
	{
		"rt": 59271,
		"stimulus": "<span style=\"font-size:25px; font-family: monospace\">A caneca era colorida?</span>",
		"response": "n",
		"question": "A caneca era colorida?",
		"answer": "null",
		"trial": "prac-sent",
		"trial_type": "html-keyboard-response",
		"trial_index": 18,
		"time_elapsed": 149167,
		"internal_node_id": "0.0-1.0-2.14-0.14",
		"accuracy": false
	},
	{
		"view_history": [
			{
				"page_index": 0,
				"viewing_time": 6899
			}
		],
		"rt": 6900,
		"trial_type": "instructions",
		"trial_index": 19,
		"time_elapsed": 156568,
		"internal_node_id": "0.0-2.0"
	},
	{
		"rt": null,
		"stimulus": "<span style= \"font-size:30px; font-family: monospace\">+</span>",
		"response": null,
		"trial_part": "fixation",
		"trial_type": "html-keyboard-response",
		"trial_index": 20,
		"time_elapsed": 157669,
		"internal_node_id": "0.0-3.0-0.0-0.0"
	},
	{
		"rt": 1960,
		"stimulus": "../audio/69-1-fem.mp3",
		"response": " ",
		"word": "A",
		"trial_type": "audio-keyboard-response",
		"trial_index": 21,
		"time_elapsed": 160239,
		"internal_node_id": "0.0-3.0-1.0"
	},
	{
		"rt": 3280,
		"stimulus": "../audio/69-2-fem.mp3",
		"response": " ",
		"word": "loja",
		"trial_type": "audio-keyboard-response",
		"trial_index": 22,
		"time_elapsed": 163807,
		"internal_node_id": "0.0-3.0-1.1"
	},
	{
		"rt": 2651,
		"stimulus": "../audio/69-3-fem.mp3",
		"response": " ",
		"word": "recebeu",
		"trial_type": "audio-keyboard-response",
		"trial_index": 23,
		"time_elapsed": 166735,
		"internal_node_id": "0.0-3.0-1.2"
	},
	{
		"rt": 1819,
		"stimulus": "../audio/69-4-fem.mp3",
		"response": " ",
		"word": "uma",
		"trial_type": "audio-keyboard-response",
		"trial_index": 24,
		"time_elapsed": 168831,
		"internal_node_id": "0.0-3.0-1.3"
	},
	{
		"rt": 2341,
		"stimulus": "../audio/69-5-fem.mp3",
		"response": " ",
		"word": "poltrona",
		"trial_type": "audio-keyboard-response",
		"trial_index": 25,
		"time_elapsed": 171439,
		"internal_node_id": "0.0-3.0-1.4"
	},
	{
		"rt": 1531,
		"stimulus": "../audio/69-6-fem.mp3",
		"response": " ",
		"word": "de",
		"trial_type": "audio-keyboard-response",
		"trial_index": 26,
		"time_elapsed": 173231,
		"internal_node_id": "0.0-3.0-1.5"
	},
	{
		"rt": 1952,
		"stimulus": "../audio/69-7-fem.mp3",
		"response": " ",
		"word": "couro",
		"trial_type": "audio-keyboard-response",
		"trial_index": 27,
		"time_elapsed": 175455,
		"internal_node_id": "0.0-3.0-1.6"
	},
	{
		"rt": 1749,
		"stimulus": "../audio/69-8-fem.mp3",
		"response": " ",
		"word": "preto.",
		"trial_type": "audio-keyboard-response",
		"trial_index": 28,
		"time_elapsed": 177487,
		"internal_node_id": "0.0-3.0-1.7"
	},
	{
		"rt": null,
		"stimulus": "<span style= \"font-size:30px; font-family: monospace\">+</span>",
		"response": null,
		"trial_part": "fixation",
		"trial_type": "html-keyboard-response",
		"trial_index": 29,
		"time_elapsed": 178758,
		"internal_node_id": "0.0-3.0-0.8-0.8"
	},
	{
		"rt": 4771,
		"stimulus": "../audio/66-1-masc.mp3",
		"response": " ",
		"word": "Não",
		"trial_type": "audio-keyboard-response",
		"trial_index": 30,
		"time_elapsed": 183790,
		"internal_node_id": "0.0-3.0-1.8"
	},
	{
		"rt": 2709,
		"stimulus": "../audio/66-2-masc.mp3",
		"response": " ",
		"word": "gosto",
		"trial_type": "audio-keyboard-response",
		"trial_index": 31,
		"time_elapsed": 186782,
		"internal_node_id": "0.0-3.0-1.9"
	},
	{
		"rt": 1579,
		"stimulus": "../audio/66-3-masc.mp3",
		"response": " ",
		"word": "de",
		"trial_type": "audio-keyboard-response",
		"trial_index": 32,
		"time_elapsed": 188639,
		"internal_node_id": "0.0-3.0-1.10"
	},
	{
		"rt": 1880,
		"stimulus": "../audio/66-4-masc.mp3",
		"response": " ",
		"word": "gente",
		"trial_type": "audio-keyboard-response",
		"trial_index": 33,
		"time_elapsed": 190799,
		"internal_node_id": "0.0-3.0-1.11"
	},
	{
		"rt": 2509,
		"stimulus": "../audio/66-5-masc.mp3",
		"response": " ",
		"word": "egoísta",
		"trial_type": "audio-keyboard-response",
		"trial_index": 34,
		"time_elapsed": 193583,
		"internal_node_id": "0.0-3.0-1.12"
	},
	{
		"rt": 1589,
		"stimulus": "../audio/66-6-masc.mp3",
		"response": " ",
		"word": "nem",
		"trial_type": "audio-keyboard-response",
		"trial_index": 35,
		"time_elapsed": 195439,
		"internal_node_id": "0.0-3.0-1.13"
	},
	{
		"rt": 1901,
		"stimulus": "../audio/66-7-masc.mp3",
		"response": " ",
		"word": "chata.",
		"trial_type": "audio-keyboard-response",
		"trial_index": 36,
		"time_elapsed": 197614,
		"internal_node_id": "0.0-3.0-1.14"
	},
	{
		"rt": null,
		"stimulus": "<span style= \"font-size:30px; font-family: monospace\">+</span>",
		"response": null,
		"trial_part": "fixation",
		"trial_type": "html-keyboard-response",
		"trial_index": 37,
		"time_elapsed": 198872,
		"internal_node_id": "0.0-3.0-0.15-0.15"
	},
	{
		"rt": 4221,
		"stimulus": "../audio/68-1-masc.mp3",
		"response": " ",
		"word": "Meu",
		"trial_type": "audio-keyboard-response",
		"trial_index": 38,
		"time_elapsed": 203375,
		"internal_node_id": "0.0-3.0-1.15"
	},
	{
		"rt": 2168,
		"stimulus": "../audio/68-2-masc.mp3",
		"response": " ",
		"word": "irmão",
		"trial_type": "audio-keyboard-response",
		"trial_index": 39,
		"time_elapsed": 205822,
		"internal_node_id": "0.0-3.0-1.16"
	},
	{
		"rt": 2261,
		"stimulus": "../audio/68-3-masc.mp3",
		"response": " ",
		"word": "teve",
		"trial_type": "audio-keyboard-response",
		"trial_index": 40,
		"time_elapsed": 208366,
		"internal_node_id": "0.0-3.0-1.17"
	},
	{
		"rt": 2269,
		"stimulus": "../audio/68-4-masc.mp3",
		"response": " ",
		"word": "um",
		"trial_type": "audio-keyboard-response",
		"trial_index": 41,
		"time_elapsed": 210910,
		"internal_node_id": "0.0-3.0-1.18"
	},
	{
		"rt": 2611,
		"stimulus": "../audio/68-5-masc.mp3",
		"response": " ",
		"word": "noivado",
		"trial_type": "audio-keyboard-response",
		"trial_index": 42,
		"time_elapsed": 213790,
		"internal_node_id": "0.0-3.0-1.19"
	},
	{
		"rt": 2272,
		"stimulus": "../audio/68-6-masc.mp3",
		"response": " ",
		"word": "longo",
		"trial_type": "audio-keyboard-response",
		"trial_index": 43,
		"time_elapsed": 216335,
		"internal_node_id": "0.0-3.0-1.20"
	},
	{
		"rt": 1469,
		"stimulus": "../audio/68-7-masc.mp3",
		"response": " ",
		"word": "e",
		"trial_type": "audio-keyboard-response",
		"trial_index": 44,
		"time_elapsed": 218079,
		"internal_node_id": "0.0-3.0-1.21"
	},
	{
		"rt": 2429,
		"stimulus": "../audio/68-8-masc.mp3",
		"response": " ",
		"word": "maravilhoso.",
		"trial_type": "audio-keyboard-response",
		"trial_index": 45,
		"time_elapsed": 220782,
		"internal_node_id": "0.0-3.0-1.22"
	},
	{
		"rt": null,
		"stimulus": "<span style= \"font-size:30px; font-family: monospace\">+</span>",
		"response": null,
		"trial_part": "fixation",
		"trial_type": "html-keyboard-response",
		"trial_index": 46,
		"time_elapsed": 222048,
		"internal_node_id": "0.0-3.0-0.23-0.23"
	},
	{
		"rt": 2099,
		"stimulus": "../audio/67-1-fem.mp3",
		"response": " ",
		"word": "Minha",
		"trial_type": "audio-keyboard-response",
		"trial_index": 47,
		"time_elapsed": 224430,
		"internal_node_id": "0.0-3.0-1.23"
	},
	{
		"rt": 1640,
		"stimulus": "../audio/67-2-fem.mp3",
		"response": " ",
		"word": "tia",
		"trial_type": "audio-keyboard-response",
		"trial_index": 48,
		"time_elapsed": 226350,
		"internal_node_id": "0.0-3.0-1.24"
	},
	{
		"rt": 2040,
		"stimulus": "../audio/67-3-fem.mp3",
		"response": " ",
		"word": "comprou",
		"trial_type": "audio-keyboard-response",
		"trial_index": 49,
		"time_elapsed": 228654,
		"internal_node_id": "0.0-3.0-1.25"
	},
	{
		"rt": 1389,
		"stimulus": "../audio/67-4-fem.mp3",
		"response": " ",
		"word": "um",
		"trial_type": "audio-keyboard-response",
		"trial_index": 50,
		"time_elapsed": 230318,
		"internal_node_id": "0.0-3.0-1.26"
	},
	{
		"rt": 1851,
		"stimulus": "../audio/67-5-fem.mp3",
		"response": " ",
		"word": "cordão",
		"trial_type": "audio-keyboard-response",
		"trial_index": 51,
		"time_elapsed": 232430,
		"internal_node_id": "0.0-3.0-1.27"
	},
	{
		"rt": 1360,
		"stimulus": "../audio/67-6-fem.mp3",
		"response": " ",
		"word": "para",
		"trial_type": "audio-keyboard-response",
		"trial_index": 52,
		"time_elapsed": 234078,
		"internal_node_id": "0.0-3.0-1.28"
	},
	{
		"rt": 1192,
		"stimulus": "../audio/67-7-fem.mp3",
		"response": " ",
		"word": "o",
		"trial_type": "audio-keyboard-response",
		"trial_index": 53,
		"time_elapsed": 235534,
		"internal_node_id": "0.0-3.0-1.29"
	},
	{
		"rt": 1768,
		"stimulus": "../audio/67-8-fem.mp3",
		"response": " ",
		"word": "varal.",
		"trial_type": "audio-keyboard-response",
		"trial_index": 54,
		"time_elapsed": 237582,
		"internal_node_id": "0.0-3.0-1.30"
	},
	{
		"rt": null,
		"stimulus": "<span style= \"font-size:30px; font-family: monospace\">+</span>",
		"response": null,
		"trial_part": "fixation",
		"trial_type": "html-keyboard-response",
		"trial_index": 55,
		"time_elapsed": 238858,
		"internal_node_id": "0.0-3.0-0.31-0.31"
	},
	{
		"rt": 1339,
		"stimulus": "../audio/70-1-fem.mp3",
		"response": " ",
		"word": "O",
		"trial_type": "audio-keyboard-response",
		"trial_index": 56,
		"time_elapsed": 240479,
		"internal_node_id": "0.0-3.0-1.31"
	},
	{
		"rt": 1869,
		"stimulus": "../audio/70-2-fem.mp3",
		"response": " ",
		"word": "meu",
		"trial_type": "audio-keyboard-response",
		"trial_index": 57,
		"time_elapsed": 242622,
		"internal_node_id": "0.0-3.0-1.32"
	},
	{
		"rt": 1531,
		"stimulus": "../audio/70-3-fem.mp3",
		"response": " ",
		"word": "filho",
		"trial_type": "audio-keyboard-response",
		"trial_index": 58,
		"time_elapsed": 244430,
		"internal_node_id": "0.0-3.0-1.33"
	},
	{
		"rt": 1408,
		"stimulus": "../audio/70-4-fem.mp3",
		"response": " ",
		"word": "tem",
		"trial_type": "audio-keyboard-response",
		"trial_index": 59,
		"time_elapsed": 246142,
		"internal_node_id": "0.0-3.0-1.34"
	},
	{
		"rt": 1349,
		"stimulus": "../audio/70-5-fem.mp3",
		"response": " ",
		"word": "medo",
		"trial_type": "audio-keyboard-response",
		"trial_index": 60,
		"time_elapsed": 247758,
		"internal_node_id": "0.0-3.0-1.35"
	},
	{
		"rt": 1320,
		"stimulus": "../audio/70-6-fem.mp3",
		"response": " ",
		"word": "de",
		"trial_type": "audio-keyboard-response",
		"trial_index": 61,
		"time_elapsed": 249342,
		"internal_node_id": "0.0-3.0-1.36"
	},
	{
		"rt": 2349,
		"stimulus": "../audio/70-7-fem.mp3",
		"response": " ",
		"word": "enguia",
		"trial_type": "audio-keyboard-response",
		"trial_index": 62,
		"time_elapsed": 251966,
		"internal_node_id": "0.0-3.0-1.37"
	},
	{
		"rt": 1109,
		"stimulus": "../audio/70-8-fem.mp3",
		"response": " ",
		"word": "e",
		"trial_type": "audio-keyboard-response",
		"trial_index": 63,
		"time_elapsed": 253358,
		"internal_node_id": "0.0-3.0-1.38"
	},
	{
		"rt": 2819,
		"stimulus": "../audio/70-9-fem.mp3",
		"response": " ",
		"word": "beija-flor.",
		"trial_type": "audio-keyboard-response",
		"trial_index": 64,
		"time_elapsed": 256462,
		"internal_node_id": "0.0-3.0-1.39"
	},
	{
		"rt": 5192,
		"stimulus": "<span style=\"font-size:25px; font-family: monospace\">O filho tem medo de tigre?</span>",
		"response": "s",
		"question": "O filho tem medo de tigre?",
		"answer": "null",
		"trial": "exp-sent",
		"trial_type": "html-keyboard-response",
		"trial_index": 65,
		"time_elapsed": 261918,
		"internal_node_id": "0.0-3.0-2.39-0.39",
		"accuracy": false
	},
	{
		"rt": null,
		"stimulus": "<span style= \"font-size:30px; font-family: monospace\">+</span>",
		"response": null,
		"trial_part": "fixation",
		"trial_type": "html-keyboard-response",
		"trial_index": 66,
		"time_elapsed": 263446,
		"internal_node_id": "0.0-3.0-0.40-0.40"
	},
	{
		"rt": 1840,
		"stimulus": "../audio/08-1-fem.mp3",
		"response": " ",
		"word": "A",
		"trial_type": "audio-keyboard-response",
		"trial_index": 67,
		"time_elapsed": 265550,
		"internal_node_id": "0.0-3.0-1.40"
	},
	{
		"rt": 1680,
		"stimulus": "../audio/08-2-fem.mp3",
		"response": " ",
		"word": "receita",
		"trial_type": "audio-keyboard-response",
		"trial_index": 68,
		"time_elapsed": 267518,
		"internal_node_id": "0.0-3.0-1.41"
	},
	{
		"rt": 1331,
		"stimulus": "../audio/08-3-fem.mp3",
		"response": " ",
		"word": "pede",
		"trial_type": "audio-keyboard-response",
		"trial_index": 69,
		"time_elapsed": 269118,
		"internal_node_id": "0.0-3.0-1.42"
	},
	{
		"rt": 1040,
		"stimulus": "../audio/08-4-fem.mp3",
		"response": " ",
		"word": "um",
		"trial_type": "audio-keyboard-response",
		"trial_index": 70,
		"time_elapsed": 270430,
		"internal_node_id": "0.0-3.0-1.43"
	},
	{
		"rt": 1200,
		"stimulus": "../audio/08-5-fem.mp3",
		"response": " ",
		"word": "litro",
		"trial_type": "audio-keyboard-response",
		"trial_index": 71,
		"time_elapsed": 271902,
		"internal_node_id": "0.0-3.0-1.44"
	},
	{
		"rt": 1040,
		"stimulus": "../audio/08-6-fem.mp3",
		"response": " ",
		"word": "de",
		"trial_type": "audio-keyboard-response",
		"trial_index": 72,
		"time_elapsed": 273214,
		"internal_node_id": "0.0-3.0-1.45"
	},
	{
		"rt": 1349,
		"stimulus": "../audio/08-7-fem.mp3",
		"response": " ",
		"word": "leite",
		"trial_type": "audio-keyboard-response",
		"trial_index": 73,
		"time_elapsed": 274830,
		"internal_node_id": "0.0-3.0-1.46"
	},
	{
		"rt": 1291,
		"stimulus": "../audio/08-8-fem.mp3",
		"response": " ",
		"word": "integral.",
		"trial_type": "audio-keyboard-response",
		"trial_index": 74,
		"time_elapsed": 276398,
		"internal_node_id": "0.0-3.0-1.47"
	},
	{
		"rt": null,
		"stimulus": "<span style= \"font-size:30px; font-family: monospace\">+</span>",
		"response": null,
		"trial_part": "fixation",
		"trial_type": "html-keyboard-response",
		"trial_index": 75,
		"time_elapsed": 277658,
		"internal_node_id": "0.0-3.0-0.48-0.48"
	},
	{
		"rt": 1459,
		"stimulus": "../audio/07-1-fem.mp3",
		"response": " ",
		"word": "Meu",
		"trial_type": "audio-keyboard-response",
		"trial_index": 76,
		"time_elapsed": 279390,
		"internal_node_id": "0.0-3.0-1.48"
	},
	{
		"rt": 1371,
		"stimulus": "../audio/07-2-fem.mp3",
		"response": " ",
		"word": "filho",
		"trial_type": "audio-keyboard-response",
		"trial_index": 77,
		"time_elapsed": 281038,
		"internal_node_id": "0.0-3.0-1.49"
	},
	{
		"rt": 1149,
		"stimulus": "../audio/07-3-fem.mp3",
		"response": " ",
		"word": "é",
		"trial_type": "audio-keyboard-response",
		"trial_index": 78,
		"time_elapsed": 282462,
		"internal_node_id": "0.0-3.0-1.50"
	},
	{
		"rt": 1179,
		"stimulus": "../audio/07-4-fem.mp3",
		"response": " ",
		"word": "muito",
		"trial_type": "audio-keyboard-response",
		"trial_index": 79,
		"time_elapsed": 283918,
		"internal_node_id": "0.0-3.0-1.51"
	},
	{
		"rt": 1331,
		"stimulus": "../audio/07-5-fem.mp3",
		"response": " ",
		"word": "responsável",
		"trial_type": "audio-keyboard-response",
		"trial_index": 80,
		"time_elapsed": 285518,
		"internal_node_id": "0.0-3.0-1.52"
	},
	{
		"rt": 1059,
		"stimulus": "../audio/07-6-fem.mp3",
		"response": " ",
		"word": "nos",
		"trial_type": "audio-keyboard-response",
		"trial_index": 81,
		"time_elapsed": 286862,
		"internal_node_id": "0.0-3.0-1.53"
	},
	{
		"rt": 1352,
		"stimulus": "../audio/07-7-fem.mp3",
		"response": " ",
		"word": "estudos.",
		"trial_type": "audio-keyboard-response",
		"trial_index": 82,
		"time_elapsed": 288494,
		"internal_node_id": "0.0-3.0-1.54"
	},
	{
		"rt": null,
		"stimulus": "<span style= \"font-size:30px; font-family: monospace\">+</span>",
		"response": null,
		"trial_part": "fixation",
		"trial_type": "html-keyboard-response",
		"trial_index": 83,
		"time_elapsed": 289772,
		"internal_node_id": "0.0-3.0-0.55-0.55"
	},
	{
		"rt": 811,
		"stimulus": "../audio/09-1-fem.mp3",
		"response": " ",
		"word": "O",
		"trial_type": "audio-keyboard-response",
		"trial_index": 84,
		"time_elapsed": 290878,
		"internal_node_id": "0.0-3.0-1.55"
	},
	{
		"rt": 1691,
		"stimulus": "../audio/09-2-fem.mp3",
		"response": " ",
		"word": "rapaz",
		"trial_type": "audio-keyboard-response",
		"trial_index": 85,
		"time_elapsed": 292830,
		"internal_node_id": "0.0-3.0-1.56"
	},
	{
		"rt": 1611,
		"stimulus": "../audio/09-3-fem.mp3",
		"response": " ",
		"word": "limpou",
		"trial_type": "audio-keyboard-response",
		"trial_index": 86,
		"time_elapsed": 294718,
		"internal_node_id": "0.0-3.0-1.57"
	},
	{
		"rt": 1021,
		"stimulus": "../audio/09-4-fem.mp3",
		"response": " ",
		"word": "o",
		"trial_type": "audio-keyboard-response",
		"trial_index": 87,
		"time_elapsed": 296014,
		"internal_node_id": "0.0-3.0-1.58"
	},
	{
		"rt": 1429,
		"stimulus": "../audio/09-5-fem.mp3",
		"response": " ",
		"word": "terreno",
		"trial_type": "audio-keyboard-response",
		"trial_index": 88,
		"time_elapsed": 297726,
		"internal_node_id": "0.0-3.0-1.59"
	},
	{
		"rt": 1251,
		"stimulus": "../audio/09-6-fem.mp3",
		"response": " ",
		"word": "com",
		"trial_type": "audio-keyboard-response",
		"trial_index": 89,
		"time_elapsed": 299246,
		"internal_node_id": "0.0-3.0-1.60"
	},
	{
		"rt": 1200,
		"stimulus": "../audio/09-7-fem.mp3",
		"response": " ",
		"word": "uma",
		"trial_type": "audio-keyboard-response",
		"trial_index": 90,
		"time_elapsed": 300718,
		"internal_node_id": "0.0-3.0-1.61"
	},
	{
		"rt": 981,
		"stimulus": "../audio/09-8-fem.mp3",
		"response": " ",
		"word": "pá.",
		"trial_type": "audio-keyboard-response",
		"trial_index": 91,
		"time_elapsed": 301966,
		"internal_node_id": "0.0-3.0-1.62"
	},
	{
		"rt": null,
		"stimulus": "<span style= \"font-size:30px; font-family: monospace\">+</span>",
		"response": null,
		"trial_part": "fixation",
		"trial_type": "html-keyboard-response",
		"trial_index": 92,
		"time_elapsed": 303228,
		"internal_node_id": "0.0-3.0-0.63-0.63"
	},
	{
		"rt": 2280,
		"stimulus": "../audio/06-1-masc.mp3",
		"response": " ",
		"word": "Ouvimos",
		"trial_type": "audio-keyboard-response",
		"trial_index": 93,
		"time_elapsed": 305790,
		"internal_node_id": "0.0-3.0-1.63"
	},
	{
		"rt": 1181,
		"stimulus": "../audio/06-2-masc.mp3",
		"response": " ",
		"word": "a",
		"trial_type": "audio-keyboard-response",
		"trial_index": 94,
		"time_elapsed": 307246,
		"internal_node_id": "0.0-3.0-1.64"
	},
	{
		"rt": 1349,
		"stimulus": "../audio/06-3-masc.mp3",
		"response": " ",
		"word": "fala",
		"trial_type": "audio-keyboard-response",
		"trial_index": 95,
		"time_elapsed": 308862,
		"internal_node_id": "0.0-3.0-1.65"
	},
	{
		"rt": 1149,
		"stimulus": "../audio/06-4-masc.mp3",
		"response": " ",
		"word": "do",
		"trial_type": "audio-keyboard-response",
		"trial_index": 96,
		"time_elapsed": 310286,
		"internal_node_id": "0.0-3.0-1.66"
	},
	{
		"rt": 1520,
		"stimulus": "../audio/06-5-masc.mp3",
		"response": " ",
		"word": "profeta",
		"trial_type": "audio-keyboard-response",
		"trial_index": 97,
		"time_elapsed": 312078,
		"internal_node_id": "0.0-3.0-1.67"
	},
	{
		"rt": 1091,
		"stimulus": "../audio/06-6-masc.mp3",
		"response": " ",
		"word": "no",
		"trial_type": "audio-keyboard-response",
		"trial_index": 98,
		"time_elapsed": 313454,
		"internal_node_id": "0.0-3.0-1.68"
	},
	{
		"rt": 1448,
		"stimulus": "../audio/06-7-masc.mp3",
		"response": " ",
		"word": "púlpito",
		"trial_type": "audio-keyboard-response",
		"trial_index": 99,
		"time_elapsed": 315182,
		"internal_node_id": "0.0-3.0-1.69"
	},
	{
		"rt": 1168,
		"stimulus": "../audio/06-8-masc.mp3",
		"response": " ",
		"word": "da",
		"trial_type": "audio-keyboard-response",
		"trial_index": 100,
		"time_elapsed": 316622,
		"internal_node_id": "0.0-3.0-1.70"
	},
	{
		"rt": 1261,
		"stimulus": "../audio/06-9-masc.mp3",
		"response": " ",
		"word": "igreja.",
		"trial_type": "audio-keyboard-response",
		"trial_index": 101,
		"time_elapsed": 318158,
		"internal_node_id": "0.0-3.0-1.71"
	},
	{
		"rt": null,
		"stimulus": "<span style= \"font-size:30px; font-family: monospace\">+</span>",
		"response": null,
		"trial_part": "fixation",
		"trial_type": "html-keyboard-response",
		"trial_index": 102,
		"time_elapsed": 319433,
		"internal_node_id": "0.0-3.0-0.72-0.72"
	},
	{
		"rt": 1101,
		"stimulus": "../audio/10-1-masc.mp3",
		"response": " ",
		"word": "O",
		"trial_type": "audio-keyboard-response",
		"trial_index": 103,
		"time_elapsed": 320814,
		"internal_node_id": "0.0-3.0-1.72"
	},
	{
		"rt": 1669,
		"stimulus": "../audio/10-2-masc.mp3",
		"response": " ",
		"word": "pássaro",
		"trial_type": "audio-keyboard-response",
		"trial_index": 104,
		"time_elapsed": 322750,
		"internal_node_id": "0.0-3.0-1.73"
	},
	{
		"rt": 1451,
		"stimulus": "../audio/10-3-masc.mp3",
		"response": " ",
		"word": "azul",
		"trial_type": "audio-keyboard-response",
		"trial_index": 105,
		"time_elapsed": 324478,
		"internal_node_id": "0.0-3.0-1.74"
	},
	{
		"rt": 1840,
		"stimulus": "../audio/10-4-masc.mp3",
		"response": " ",
		"word": "estava",
		"trial_type": "audio-keyboard-response",
		"trial_index": 106,
		"time_elapsed": 326590,
		"internal_node_id": "0.0-3.0-1.75"
	},
	{
		"rt": 1640,
		"stimulus": "../audio/10-5-masc.mp3",
		"response": " ",
		"word": "vivo",
		"trial_type": "audio-keyboard-response",
		"trial_index": 107,
		"time_elapsed": 328510,
		"internal_node_id": "0.0-3.0-1.76"
	},
	{
		"rt": 1531,
		"stimulus": "../audio/10-6-masc.mp3",
		"response": " ",
		"word": "e",
		"trial_type": "audio-keyboard-response",
		"trial_index": 108,
		"time_elapsed": 330318,
		"internal_node_id": "0.0-3.0-1.77"
	},
	{
		"rt": 1389,
		"stimulus": "../audio/10-7-masc.mp3",
		"response": " ",
		"word": "em",
		"trial_type": "audio-keyboard-response",
		"trial_index": 109,
		"time_elapsed": 331982,
		"internal_node_id": "0.0-3.0-1.78"
	},
	{
		"rt": 1808,
		"stimulus": "../audio/10-8-masc.mp3",
		"response": " ",
		"word": "segurança.",
		"trial_type": "audio-keyboard-response",
		"trial_index": 110,
		"time_elapsed": 334062,
		"internal_node_id": "0.0-3.0-1.79"
	},
	{
		"rt": 3768,
		"stimulus": "<span style=\"font-size:25px; font-family: monospace\">O pássaro vermelho estava em segurança?</span>",
		"response": "s",
		"question": "O pássaro vermelho estava em segurança?",
		"answer": "null",
		"trial": "exp-sent",
		"trial_type": "html-keyboard-response",
		"trial_index": 111,
		"time_elapsed": 338094,
		"internal_node_id": "0.0-3.0-2.79-0.79",
		"accuracy": false
	},
	{
		"rt": null,
		"stimulus": "<span style= \"font-size:30px; font-family: monospace\">+</span>",
		"response": null,
		"trial_part": "fixation",
		"trial_type": "html-keyboard-response",
		"trial_index": 112,
		"time_elapsed": 339622,
		"internal_node_id": "0.0-3.0-0.80-0.80"
	},
	{
		"rt": 120,
		"stimulus": "../audio/41-1-fem.mp3",
		"response": " ",
		"word": "A",
		"trial_type": "audio-keyboard-response",
		"trial_index": 113,
		"time_elapsed": 340030,
		"internal_node_id": "0.0-3.0-1.80"
	},
	{
		"rt": 1840,
		"stimulus": "../audio/41-2-fem.mp3",
		"response": " ",
		"word": "novela",
		"trial_type": "audio-keyboard-response",
		"trial_index": 114,
		"time_elapsed": 342142,
		"internal_node_id": "0.0-3.0-1.81"
	},
	{
		"rt": 1480,
		"stimulus": "../audio/41-3-fem.mp3",
		"response": " ",
		"word": "falava",
		"trial_type": "audio-keyboard-response",
		"trial_index": 115,
		"time_elapsed": 343902,
		"internal_node_id": "0.0-3.0-1.82"
	},
	{
		"rt": 1032,
		"stimulus": "../audio/41-4-fem.mp3",
		"response": " ",
		"word": "de",
		"trial_type": "audio-keyboard-response",
		"trial_index": 116,
		"time_elapsed": 345214,
		"internal_node_id": "0.0-3.0-1.83"
	},
	{
		"rt": 1419,
		"stimulus": "../audio/41-5-fem.mp3",
		"response": " ",
		"word": "paixão",
		"trial_type": "audio-keyboard-response",
		"trial_index": 117,
		"time_elapsed": 346910,
		"internal_node_id": "0.0-3.0-1.84"
	},
	{
		"rt": 971,
		"stimulus": "../audio/41-6-fem.mp3",
		"response": " ",
		"word": "e",
		"trial_type": "audio-keyboard-response",
		"trial_index": 118,
		"time_elapsed": 348158,
		"internal_node_id": "0.0-3.0-1.85"
	},
	{
		"rt": 1181,
		"stimulus": "../audio/41-7-fem.mp3",
		"response": " ",
		"word": "comédia.",
		"trial_type": "audio-keyboard-response",
		"trial_index": 119,
		"time_elapsed": 349614,
		"internal_node_id": "0.0-3.0-1.86"
	},
	{
		"rt": null,
		"stimulus": "<span style= \"font-size:30px; font-family: monospace\">+</span>",
		"response": null,
		"trial_part": "fixation",
		"trial_type": "html-keyboard-response",
		"trial_index": 120,
		"time_elapsed": 350872,
		"internal_node_id": "0.0-3.0-0.87-0.87"
	},
	{
		"rt": 2141,
		"stimulus": "../audio/44-1-masc.mp3",
		"response": " ",
		"word": "Meus",
		"trial_type": "audio-keyboard-response",
		"trial_index": 121,
		"time_elapsed": 353294,
		"internal_node_id": "0.0-3.0-1.87"
	},
	{
		"rt": 1448,
		"stimulus": "../audio/44-2-masc.mp3",
		"response": " ",
		"word": "irmãos",
		"trial_type": "audio-keyboard-response",
		"trial_index": 122,
		"time_elapsed": 355022,
		"internal_node_id": "0.0-3.0-1.88"
	},
	{
		"rt": 1301,
		"stimulus": "../audio/44-3-masc.mp3",
		"response": " ",
		"word": "brigam",
		"trial_type": "audio-keyboard-response",
		"trial_index": 123,
		"time_elapsed": 356606,
		"internal_node_id": "0.0-3.0-1.89"
	},
	{
		"rt": 800,
		"stimulus": "../audio/44-4-masc.mp3",
		"response": " ",
		"word": "por",
		"trial_type": "audio-keyboard-response",
		"trial_index": 124,
		"time_elapsed": 357678,
		"internal_node_id": "0.0-3.0-1.90"
	},
	{
		"rt": 1341,
		"stimulus": "../audio/44-5-masc.mp3",
		"response": " ",
		"word": "bobagem",
		"trial_type": "audio-keyboard-response",
		"trial_index": 125,
		"time_elapsed": 359294,
		"internal_node_id": "0.0-3.0-1.91"
	},
	{
		"rt": 968,
		"stimulus": "../audio/44-6-masc.mp3",
		"response": " ",
		"word": "todos",
		"trial_type": "audio-keyboard-response",
		"trial_index": 126,
		"time_elapsed": 360542,
		"internal_node_id": "0.0-3.0-1.92"
	},
	{
		"rt": 899,
		"stimulus": "../audio/44-7-masc.mp3",
		"response": " ",
		"word": "os",
		"trial_type": "audio-keyboard-response",
		"trial_index": 127,
		"time_elapsed": 361710,
		"internal_node_id": "0.0-3.0-1.93"
	},
	{
		"rt": 1040,
		"stimulus": "../audio/44-8-masc.mp3",
		"response": " ",
		"word": "dias.",
		"trial_type": "audio-keyboard-response",
		"trial_index": 128,
		"time_elapsed": 363022,
		"internal_node_id": "0.0-3.0-1.94"
	},
	{
		"rt": null,
		"stimulus": "<span style= \"font-size:30px; font-family: monospace\">+</span>",
		"response": null,
		"trial_part": "fixation",
		"trial_type": "html-keyboard-response",
		"trial_index": 129,
		"time_elapsed": 364290,
		"internal_node_id": "0.0-3.0-0.95-0.95"
	},
	{
		"rt": 1149,
		"stimulus": "../audio/43-1-masc.mp3",
		"response": " ",
		"word": "Eu",
		"trial_type": "audio-keyboard-response",
		"trial_index": 130,
		"time_elapsed": 365726,
		"internal_node_id": "0.0-3.0-1.95"
	},
	{
		"rt": 1061,
		"stimulus": "../audio/43-2-masc.mp3",
		"response": " ",
		"word": "achei",
		"trial_type": "audio-keyboard-response",
		"trial_index": 131,
		"time_elapsed": 367054,
		"internal_node_id": "0.0-3.0-1.96"
	},
	{
		"rt": 1029,
		"stimulus": "../audio/43-3-masc.mp3",
		"response": " ",
		"word": "um",
		"trial_type": "audio-keyboard-response",
		"trial_index": 132,
		"time_elapsed": 368350,
		"internal_node_id": "0.0-3.0-1.97"
	},
	{
		"rt": 1440,
		"stimulus": "../audio/43-4-masc.mp3",
		"response": " ",
		"word": "colchão",
		"trial_type": "audio-keyboard-response",
		"trial_index": 133,
		"time_elapsed": 370062,
		"internal_node_id": "0.0-3.0-1.98"
	},
	{
		"rt": 1181,
		"stimulus": "../audio/43-5-masc.mp3",
		"response": " ",
		"word": "velho",
		"trial_type": "audio-keyboard-response",
		"trial_index": 134,
		"time_elapsed": 371518,
		"internal_node_id": "0.0-3.0-1.99"
	},
	{
		"rt": 1000,
		"stimulus": "../audio/43-6-masc.mp3",
		"response": " ",
		"word": "e",
		"trial_type": "audio-keyboard-response",
		"trial_index": 135,
		"time_elapsed": 372782,
		"internal_node_id": "0.0-3.0-1.100"
	},
	{
		"rt": 1099,
		"stimulus": "../audio/43-7-masc.mp3",
		"response": " ",
		"word": "imundo",
		"trial_type": "audio-keyboard-response",
		"trial_index": 136,
		"time_elapsed": 374158,
		"internal_node_id": "0.0-3.0-1.101"
	},
	{
		"rt": 1112,
		"stimulus": "../audio/43-8-masc.mp3",
		"response": " ",
		"word": "na",
		"trial_type": "audio-keyboard-response",
		"trial_index": 137,
		"time_elapsed": 375534,
		"internal_node_id": "0.0-3.0-1.102"
	},
	{
		"rt": 1139,
		"stimulus": "../audio/43-9-masc.mp3",
		"response": " ",
		"word": "casa.",
		"trial_type": "audio-keyboard-response",
		"trial_index": 138,
		"time_elapsed": 376942,
		"internal_node_id": "0.0-3.0-1.103"
	},
	{
		"rt": null,
		"stimulus": "<span style= \"font-size:30px; font-family: monospace\">+</span>",
		"response": null,
		"trial_part": "fixation",
		"trial_type": "html-keyboard-response",
		"trial_index": 139,
		"time_elapsed": 378208,
		"internal_node_id": "0.0-3.0-0.104-0.104"
	},
	{
		"rt": 779,
		"stimulus": "../audio/42-1-masc.mp3",
		"response": " ",
		"word": "Eu",
		"trial_type": "audio-keyboard-response",
		"trial_index": 140,
		"time_elapsed": 379278,
		"internal_node_id": "0.0-3.0-1.104"
	},
	{
		"rt": 960,
		"stimulus": "../audio/42-2-masc.mp3",
		"response": " ",
		"word": "fui",
		"trial_type": "audio-keyboard-response",
		"trial_index": 141,
		"time_elapsed": 380510,
		"internal_node_id": "0.0-3.0-1.105"
	},
	{
		"rt": 861,
		"stimulus": "../audio/42-3-masc.mp3",
		"response": " ",
		"word": "a",
		"trial_type": "audio-keyboard-response",
		"trial_index": 142,
		"time_elapsed": 381646,
		"internal_node_id": "0.0-3.0-1.106"
	},
	{
		"rt": 1531,
		"stimulus": "../audio/42-4-masc.mp3",
		"response": " ",
		"word": "uma",
		"trial_type": "audio-keyboard-response",
		"trial_index": 143,
		"time_elapsed": 383454,
		"internal_node_id": "0.0-3.0-1.107"
	},
	{
		"rt": 1309,
		"stimulus": "../audio/42-5-masc.mp3",
		"response": " ",
		"word": "loja",
		"trial_type": "audio-keyboard-response",
		"trial_index": 144,
		"time_elapsed": 385038,
		"internal_node_id": "0.0-3.0-1.108"
	},
	{
		"rt": 749,
		"stimulus": "../audio/42-6-masc.mp3",
		"response": " ",
		"word": "de",
		"trial_type": "audio-keyboard-response",
		"trial_index": 145,
		"time_elapsed": 386062,
		"internal_node_id": "0.0-3.0-1.109"
	},
	{
		"rt": 1131,
		"stimulus": "../audio/42-7-masc.mp3",
		"response": " ",
		"word": "móveis",
		"trial_type": "audio-keyboard-response",
		"trial_index": 146,
		"time_elapsed": 387470,
		"internal_node_id": "0.0-3.0-1.110"
	},
	{
		"rt": 981,
		"stimulus": "../audio/42-8-masc.mp3",
		"response": " ",
		"word": "no",
		"trial_type": "audio-keyboard-response",
		"trial_index": 147,
		"time_elapsed": 388733,
		"internal_node_id": "0.0-3.0-1.111"
	},
	{
		"rt": 1040,
		"stimulus": "../audio/42-9-masc.mp3",
		"response": " ",
		"word": "bairro.",
		"trial_type": "audio-keyboard-response",
		"trial_index": 148,
		"time_elapsed": 390045,
		"internal_node_id": "0.0-3.0-1.112"
	},
	{
		"rt": null,
		"stimulus": "<span style= \"font-size:30px; font-family: monospace\">+</span>",
		"response": null,
		"trial_part": "fixation",
		"trial_type": "html-keyboard-response",
		"trial_index": 149,
		"time_elapsed": 391311,
		"internal_node_id": "0.0-3.0-0.113-0.113"
	},
	{
		"rt": 832,
		"stimulus": "../audio/45-1-masc.mp3",
		"response": " ",
		"word": "O",
		"trial_type": "audio-keyboard-response",
		"trial_index": 150,
		"time_elapsed": 392413,
		"internal_node_id": "0.0-3.0-1.113"
	},
	{
		"rt": 949,
		"stimulus": "../audio/45-2-masc.mp3",
		"response": " ",
		"word": "homem",
		"trial_type": "audio-keyboard-response",
		"trial_index": 151,
		"time_elapsed": 393630,
		"internal_node_id": "0.0-3.0-1.114"
	},
	{
		"rt": 1091,
		"stimulus": "../audio/45-3-masc.mp3",
		"response": " ",
		"word": "pagou",
		"trial_type": "audio-keyboard-response",
		"trial_index": 152,
		"time_elapsed": 394989,
		"internal_node_id": "0.0-3.0-1.115"
	},
	{
		"rt": 851,
		"stimulus": "../audio/45-4-masc.mp3",
		"response": " ",
		"word": "o",
		"trial_type": "audio-keyboard-response",
		"trial_index": 153,
		"time_elapsed": 396109,
		"internal_node_id": "0.0-3.0-1.116"
	},
	{
		"rt": 981,
		"stimulus": "../audio/45-5-masc.mp3",
		"response": " ",
		"word": "aluguel",
		"trial_type": "audio-keyboard-response",
		"trial_index": 154,
		"time_elapsed": 397374,
		"internal_node_id": "0.0-3.0-1.117"
	},
	{
		"rt": 808,
		"stimulus": "../audio/45-6-masc.mp3",
		"response": " ",
		"word": "com",
		"trial_type": "audio-keyboard-response",
		"trial_index": 155,
		"time_elapsed": 398461,
		"internal_node_id": "0.0-3.0-1.118"
	},
	{
		"rt": 1059,
		"stimulus": "../audio/45-7-masc.mp3",
		"response": " ",
		"word": "atraso.",
		"trial_type": "audio-keyboard-response",
		"trial_index": 156,
		"time_elapsed": 399790,
		"internal_node_id": "0.0-3.0-1.119"
	},
	{
		"rt": 12485,
		"stimulus": "<span style=\"font-size:25px; font-family: monospace\">O homem pagou o aluguel em dia?</span>",
		"response": "n",
		"question": "O homem pagou o aluguel em dia?",
		"answer": "null",
		"trial": "exp-sent",
		"trial_type": "html-keyboard-response",
		"trial_index": 157,
		"time_elapsed": 412526,
		"internal_node_id": "0.0-3.0-2.119-0.119",
		"accuracy": false
	},
	{
		"rt": null,
		"stimulus": "<span style= \"font-size:30px; font-family: monospace\">+</span>",
		"response": null,
		"trial_part": "fixation",
		"trial_type": "html-keyboard-response",
		"trial_index": 158,
		"time_elapsed": 414041,
		"internal_node_id": "0.0-3.0-0.120-0.120"
	},
	{
		"rt": 1131,
		"stimulus": "../audio/61-1-fem.mp3",
		"response": " ",
		"word": "Aquele",
		"trial_type": "audio-keyboard-response",
		"trial_index": 159,
		"time_elapsed": 415454,
		"internal_node_id": "0.0-3.0-1.120"
	},
	{
		"rt": 1109,
		"stimulus": "../audio/61-2-fem.mp3",
		"response": " ",
		"word": "senhor",
		"trial_type": "audio-keyboard-response",
		"trial_index": 160,
		"time_elapsed": 416829,
		"internal_node_id": "0.0-3.0-1.121"
	},
	{
		"rt": 851,
		"stimulus": "../audio/61-3-fem.mp3",
		"response": " ",
		"word": "é",
		"trial_type": "audio-keyboard-response",
		"trial_index": 161,
		"time_elapsed": 417949,
		"internal_node_id": "0.0-3.0-1.122"
	},
	{
		"rt": 960,
		"stimulus": "../audio/61-4-fem.mp3",
		"response": " ",
		"word": "muito",
		"trial_type": "audio-keyboard-response",
		"trial_index": 162,
		"time_elapsed": 419181,
		"internal_node_id": "0.0-3.0-1.123"
	},
	{
		"rt": 1080,
		"stimulus": "../audio/61-5-fem.mp3",
		"response": " ",
		"word": "sovina",
		"trial_type": "audio-keyboard-response",
		"trial_index": 163,
		"time_elapsed": 420542,
		"internal_node_id": "0.0-3.0-1.124"
	},
	{
		"rt": 789,
		"stimulus": "../audio/61-6-fem.mp3",
		"response": " ",
		"word": "e",
		"trial_type": "audio-keyboard-response",
		"trial_index": 164,
		"time_elapsed": 421598,
		"internal_node_id": "0.0-3.0-1.125"
	},
	{
		"rt": 2051,
		"stimulus": "../audio/61-7-fem.mp3",
		"response": " ",
		"word": "inflexível.",
		"trial_type": "audio-keyboard-response",
		"trial_index": 165,
		"time_elapsed": 423934,
		"internal_node_id": "0.0-3.0-1.126"
	},
	{
		"rt": null,
		"stimulus": "<span style= \"font-size:30px; font-family: monospace\">+</span>",
		"response": null,
		"trial_part": "fixation",
		"trial_type": "html-keyboard-response",
		"trial_index": 166,
		"time_elapsed": 425203,
		"internal_node_id": "0.0-3.0-0.127-0.127"
	},
	{
		"rt": 1640,
		"stimulus": "../audio/62-1-fem.mp3",
		"response": " ",
		"word": "As",
		"trial_type": "audio-keyboard-response",
		"trial_index": 167,
		"time_elapsed": 427117,
		"internal_node_id": "0.0-3.0-1.127"
	},
	{
		"rt": 1731,
		"stimulus": "../audio/62-2-fem.mp3",
		"response": " ",
		"word": "artesãs",
		"trial_type": "audio-keyboard-response",
		"trial_index": 168,
		"time_elapsed": 429133,
		"internal_node_id": "0.0-3.0-1.128"
	},
	{
		"rt": 1520,
		"stimulus": "../audio/62-3-fem.mp3",
		"response": " ",
		"word": "gostam",
		"trial_type": "audio-keyboard-response",
		"trial_index": 169,
		"time_elapsed": 430925,
		"internal_node_id": "0.0-3.0-1.129"
	},
	{
		"rt": 949,
		"stimulus": "../audio/62-4-fem.mp3",
		"response": " ",
		"word": "de",
		"trial_type": "audio-keyboard-response",
		"trial_index": 170,
		"time_elapsed": 432157,
		"internal_node_id": "0.0-3.0-1.130"
	},
	{
		"rt": 1291,
		"stimulus": "../audio/62-5-fem.mp3",
		"response": " ",
		"word": "maquiagem",
		"trial_type": "audio-keyboard-response",
		"trial_index": 171,
		"time_elapsed": 433709,
		"internal_node_id": "0.0-3.0-1.131"
	},
	{
		"rt": 808,
		"stimulus": "../audio/62-6-fem.mp3",
		"response": " ",
		"word": "e",
		"trial_type": "audio-keyboard-response",
		"trial_index": 172,
		"time_elapsed": 434781,
		"internal_node_id": "0.0-3.0-1.132"
	},
	{
		"rt": 869,
		"stimulus": "../audio/62-7-fem.mp3",
		"response": " ",
		"word": "de",
		"trial_type": "audio-keyboard-response",
		"trial_index": 173,
		"time_elapsed": 435917,
		"internal_node_id": "0.0-3.0-1.133"
	},
	{
		"rt": 1149,
		"stimulus": "../audio/62-8-fem.mp3",
		"response": " ",
		"word": "crochê.",
		"trial_type": "audio-keyboard-response",
		"trial_index": 174,
		"time_elapsed": 437341,
		"internal_node_id": "0.0-3.0-1.134"
	},
	{
		"rt": null,
		"stimulus": "<span style= \"font-size:30px; font-family: monospace\">+</span>",
		"response": null,
		"trial_part": "fixation",
		"trial_type": "html-keyboard-response",
		"trial_index": 175,
		"time_elapsed": 438617,
		"internal_node_id": "0.0-3.0-0.135-0.135"
	},
	{
		"rt": 829,
		"stimulus": "../audio/64-1-fem.mp3",
		"response": " ",
		"word": "O",
		"trial_type": "audio-keyboard-response",
		"trial_index": 176,
		"time_elapsed": 439709,
		"internal_node_id": "0.0-3.0-1.135"
	},
	{
		"rt": 832,
		"stimulus": "../audio/64-2-fem.mp3",
		"response": " ",
		"word": "dia",
		"trial_type": "audio-keyboard-response",
		"trial_index": 177,
		"time_elapsed": 440813,
		"internal_node_id": "0.0-3.0-1.136"
	},
	{
		"rt": 1029,
		"stimulus": "../audio/64-3-fem.mp3",
		"response": " ",
		"word": "começou",
		"trial_type": "audio-keyboard-response",
		"trial_index": 178,
		"time_elapsed": 442125,
		"internal_node_id": "0.0-3.0-1.137"
	},
	{
		"rt": 939,
		"stimulus": "../audio/64-4-fem.mp3",
		"response": " ",
		"word": "com",
		"trial_type": "audio-keyboard-response",
		"trial_index": 179,
		"time_elapsed": 443341,
		"internal_node_id": "0.0-3.0-1.138"
	},
	{
		"rt": 1149,
		"stimulus": "../audio/64-5-fem.mp3",
		"response": " ",
		"word": "garoa",
		"trial_type": "audio-keyboard-response",
		"trial_index": 180,
		"time_elapsed": 444765,
		"internal_node_id": "0.0-3.0-1.139"
	},
	{
		"rt": 1309,
		"stimulus": "../audio/64-6-fem.mp3",
		"response": " ",
		"word": "gelada",
		"trial_type": "audio-keyboard-response",
		"trial_index": 181,
		"time_elapsed": 446349,
		"internal_node_id": "0.0-3.0-1.140"
	},
	{
		"rt": 701,
		"stimulus": "../audio/64-7-fem.mp3",
		"response": " ",
		"word": "e",
		"trial_type": "audio-keyboard-response",
		"trial_index": 182,
		"time_elapsed": 447325,
		"internal_node_id": "0.0-3.0-1.141"
	},
	{
		"rt": 989,
		"stimulus": "../audio/64-8-fem.mp3",
		"response": " ",
		"word": "leve.",
		"trial_type": "audio-keyboard-response",
		"trial_index": 183,
		"time_elapsed": 448589,
		"internal_node_id": "0.0-3.0-1.142"
	},
	{
		"rt": null,
		"stimulus": "<span style= \"font-size:30px; font-family: monospace\">+</span>",
		"response": null,
		"trial_part": "fixation",
		"trial_type": "html-keyboard-response",
		"trial_index": 184,
		"time_elapsed": 449848,
		"internal_node_id": "0.0-3.0-0.143-0.143"
	},
	{
		"rt": 691,
		"stimulus": "../audio/63-1-fem.mp3",
		"response": " ",
		"word": "A",
		"trial_type": "audio-keyboard-response",
		"trial_index": 185,
		"time_elapsed": 450813,
		"internal_node_id": "0.0-3.0-1.143"
	},
	{
		"rt": 1000,
		"stimulus": "../audio/63-2-fem.mp3",
		"response": " ",
		"word": "chuva",
		"trial_type": "audio-keyboard-response",
		"trial_index": 186,
		"time_elapsed": 452093,
		"internal_node_id": "0.0-3.0-1.144"
	},
	{
		"rt": 1109,
		"stimulus": "../audio/63-3-fem.mp3",
		"response": " ",
		"word": "entrou",
		"trial_type": "audio-keyboard-response",
		"trial_index": 187,
		"time_elapsed": 453469,
		"internal_node_id": "0.0-3.0-1.145"
	},
	{
		"rt": 840,
		"stimulus": "../audio/63-4-fem.mp3",
		"response": " ",
		"word": "pela",
		"trial_type": "audio-keyboard-response",
		"trial_index": 188,
		"time_elapsed": 454573,
		"internal_node_id": "0.0-3.0-1.146"
	},
	{
		"rt": 1379,
		"stimulus": "../audio/63-5-fem.mp3",
		"response": " ",
		"word": "abertura",
		"trial_type": "audio-keyboard-response",
		"trial_index": 189,
		"time_elapsed": 456221,
		"internal_node_id": "0.0-3.0-1.147"
	},
	{
		"rt": 779,
		"stimulus": "../audio/63-6-fem.mp3",
		"response": " ",
		"word": "na",
		"trial_type": "audio-keyboard-response",
		"trial_index": 190,
		"time_elapsed": 457261,
		"internal_node_id": "0.0-3.0-1.148"
	},
	{
		"rt": 1168,
		"stimulus": "../audio/63-7-fem.mp3",
		"response": " ",
		"word": "janela.",
		"trial_type": "audio-keyboard-response",
		"trial_index": 191,
		"time_elapsed": 458701,
		"internal_node_id": "0.0-3.0-1.149"
	},
	{
		"rt": null,
		"stimulus": "<span style= \"font-size:30px; font-family: monospace\">+</span>",
		"response": null,
		"trial_part": "fixation",
		"trial_type": "html-keyboard-response",
		"trial_index": 192,
		"time_elapsed": 459967,
		"internal_node_id": "0.0-3.0-0.150-0.150"
	},
	{
		"rt": 821,
		"stimulus": "../audio/65-1-masc.mp3",
		"response": " ",
		"word": "O",
		"trial_type": "audio-keyboard-response",
		"trial_index": 193,
		"time_elapsed": 461053,
		"internal_node_id": "0.0-3.0-1.150"
	},
	{
		"rt": 1139,
		"stimulus": "../audio/65-2-masc.mp3",
		"response": " ",
		"word": "fantasma",
		"trial_type": "audio-keyboard-response",
		"trial_index": 194,
		"time_elapsed": 462461,
		"internal_node_id": "0.0-3.0-1.151"
	},
	{
		"rt": 899,
		"stimulus": "../audio/65-3-masc.mp3",
		"response": " ",
		"word": "veio",
		"trial_type": "audio-keyboard-response",
		"trial_index": 195,
		"time_elapsed": 463629,
		"internal_node_id": "0.0-3.0-1.152"
	},
	{
		"rt": 851,
		"stimulus": "../audio/65-4-masc.mp3",
		"response": " ",
		"word": "da",
		"trial_type": "audio-keyboard-response",
		"trial_index": 196,
		"time_elapsed": 464749,
		"internal_node_id": "0.0-3.0-1.153"
	},
	{
		"rt": 1349,
		"stimulus": "../audio/65-5-masc.mp3",
		"response": " ",
		"word": "escuridão",
		"trial_type": "audio-keyboard-response",
		"trial_index": 197,
		"time_elapsed": 466381,
		"internal_node_id": "0.0-3.0-1.154"
	},
	{
		"rt": 829,
		"stimulus": "../audio/65-6-masc.mp3",
		"response": " ",
		"word": "do",
		"trial_type": "audio-keyboard-response",
		"trial_index": 198,
		"time_elapsed": 467485,
		"internal_node_id": "0.0-3.0-1.155"
	},
	{
		"rt": 1309,
		"stimulus": "../audio/65-7-masc.mp3",
		"response": " ",
		"word": "armário.",
		"trial_type": "audio-keyboard-response",
		"trial_index": 199,
		"time_elapsed": 469069,
		"internal_node_id": "0.0-3.0-1.156"
	},
	{
		"rt": 2984,
		"stimulus": "<span style=\"font-size:25px; font-family: monospace\">O fantasma veio da escuridão do armário?</span>",
		"response": "s",
		"question": "O fantasma veio da escuridão do armário?",
		"answer": "null",
		"trial": "exp-sent",
		"trial_type": "html-keyboard-response",
		"trial_index": 200,
		"time_elapsed": 472317,
		"internal_node_id": "0.0-3.0-2.156-0.156",
		"accuracy": false
	},
	{
		"rt": null,
		"stimulus": "<span style= \"font-size:30px; font-family: monospace\">+</span>",
		"response": null,
		"trial_part": "fixation",
		"trial_type": "html-keyboard-response",
		"trial_index": 201,
		"time_elapsed": 473832,
		"internal_node_id": "0.0-3.0-0.157-0.157"
	},
	{
		"rt": 26160,
		"stimulus": "../audio/56-1-masc.mp3",
		"response": " ",
		"word": "A",
		"trial_type": "audio-keyboard-response",
		"trial_index": 202,
		"time_elapsed": 500269,
		"internal_node_id": "0.0-3.0-1.157"
	},
	{
		"rt": 2440,
		"stimulus": "../audio/56-2-masc.mp3",
		"response": " ",
		"word": "moça",
		"trial_type": "audio-keyboard-response",
		"trial_index": 203,
		"time_elapsed": 503004,
		"internal_node_id": "0.0-3.0-1.158"
	},
	{
		"rt": 1179,
		"stimulus": "../audio/56-3-masc.mp3",
		"response": " ",
		"word": "foi",
		"trial_type": "audio-keyboard-response",
		"trial_index": 204,
		"time_elapsed": 504460,
		"internal_node_id": "0.0-3.0-1.159"
	},
	{
		"rt": 1059,
		"stimulus": "../audio/56-4-masc.mp3",
		"response": " ",
		"word": "à",
		"trial_type": "audio-keyboard-response",
		"trial_index": 205,
		"time_elapsed": 505788,
		"internal_node_id": "0.0-3.0-1.160"
	},
	{
		"rt": 1261,
		"stimulus": "../audio/56-5-masc.mp3",
		"response": " ",
		"word": "agência",
		"trial_type": "audio-keyboard-response",
		"trial_index": 206,
		"time_elapsed": 507324,
		"internal_node_id": "0.0-3.0-1.161"
	},
	{
		"rt": 1251,
		"stimulus": "../audio/56-6-masc.mp3",
		"response": " ",
		"word": "bancária",
		"trial_type": "audio-keyboard-response",
		"trial_index": 207,
		"time_elapsed": 508844,
		"internal_node_id": "0.0-3.0-1.162"
	},
	{
		"rt": 1040,
		"stimulus": "../audio/56-7-masc.mp3",
		"response": " ",
		"word": "ontem",
		"trial_type": "audio-keyboard-response",
		"trial_index": 208,
		"time_elapsed": 510156,
		"internal_node_id": "0.0-3.0-1.163"
	},
	{
		"rt": 909,
		"stimulus": "../audio/56-8-masc.mp3",
		"response": " ",
		"word": "de",
		"trial_type": "audio-keyboard-response",
		"trial_index": 209,
		"time_elapsed": 511340,
		"internal_node_id": "0.0-3.0-1.164"
	},
	{
		"rt": 1352,
		"stimulus": "../audio/56-9-masc.mp3",
		"response": " ",
		"word": "tarde.",
		"trial_type": "audio-keyboard-response",
		"trial_index": 210,
		"time_elapsed": 512972,
		"internal_node_id": "0.0-3.0-1.165"
	},
	{
		"rt": null,
		"stimulus": "<span style= \"font-size:30px; font-family: monospace\">+</span>",
		"response": null,
		"trial_part": "fixation",
		"trial_type": "html-keyboard-response",
		"trial_index": 211,
		"time_elapsed": 514229,
		"internal_node_id": "0.0-3.0-0.166-0.166"
	},
	{
		"rt": 640,
		"stimulus": "../audio/57-1-masc.mp3",
		"response": " ",
		"word": "O",
		"trial_type": "audio-keyboard-response",
		"trial_index": 212,
		"time_elapsed": 515148,
		"internal_node_id": "0.0-3.0-1.166"
	},
	{
		"rt": 1160,
		"stimulus": "../audio/57-2-masc.mp3",
		"response": " ",
		"word": "capitão",
		"trial_type": "audio-keyboard-response",
		"trial_index": 213,
		"time_elapsed": 516588,
		"internal_node_id": "0.0-3.0-1.167"
	},
	{
		"rt": 1091,
		"stimulus": "../audio/57-3-masc.mp3",
		"response": " ",
		"word": "deu",
		"trial_type": "audio-keyboard-response",
		"trial_index": 214,
		"time_elapsed": 517948,
		"internal_node_id": "0.0-3.0-1.168"
	},
	{
		"rt": 992,
		"stimulus": "../audio/57-4-masc.mp3",
		"response": " ",
		"word": "uma",
		"trial_type": "audio-keyboard-response",
		"trial_index": 215,
		"time_elapsed": 519212,
		"internal_node_id": "0.0-3.0-1.169"
	},
	{
		"rt": 1320,
		"stimulus": "../audio/57-5-masc.mp3",
		"response": " ",
		"word": "instrução",
		"trial_type": "audio-keyboard-response",
		"trial_index": 216,
		"time_elapsed": 520812,
		"internal_node_id": "0.0-3.0-1.170"
	},
	{
		"rt": 869,
		"stimulus": "../audio/57-6-masc.mp3",
		"response": " ",
		"word": "para",
		"trial_type": "audio-keyboard-response",
		"trial_index": 217,
		"time_elapsed": 521948,
		"internal_node_id": "0.0-3.0-1.171"
	},
	{
		"rt": 869,
		"stimulus": "../audio/57-7-masc.mp3",
		"response": " ",
		"word": "as",
		"trial_type": "audio-keyboard-response",
		"trial_index": 218,
		"time_elapsed": 523084,
		"internal_node_id": "0.0-3.0-1.172"
	},
	{
		"rt": 1051,
		"stimulus": "../audio/57-8-masc.mp3",
		"response": " ",
		"word": "pessoas.",
		"trial_type": "audio-keyboard-response",
		"trial_index": 219,
		"time_elapsed": 524412,
		"internal_node_id": "0.0-3.0-1.173"
	},
	{
		"rt": null,
		"stimulus": "<span style= \"font-size:30px; font-family: monospace\">+</span>",
		"response": null,
		"trial_part": "fixation",
		"trial_type": "html-keyboard-response",
		"trial_index": 220,
		"time_elapsed": 525692,
		"internal_node_id": "0.0-3.0-0.174-0.174"
	},
	{
		"rt": 859,
		"stimulus": "../audio/58-1-masc.mp3",
		"response": " ",
		"word": "Havia",
		"trial_type": "audio-keyboard-response",
		"trial_index": 221,
		"time_elapsed": 526828,
		"internal_node_id": "0.0-3.0-1.174"
	},
	{
		"rt": 1011,
		"stimulus": "../audio/58-2-masc.mp3",
		"response": " ",
		"word": "apenas",
		"trial_type": "audio-keyboard-response",
		"trial_index": 222,
		"time_elapsed": 528124,
		"internal_node_id": "0.0-3.0-1.175"
	},
	{
		"rt": 760,
		"stimulus": "../audio/58-3-masc.mp3",
		"response": " ",
		"word": "um",
		"trial_type": "audio-keyboard-response",
		"trial_index": 223,
		"time_elapsed": 529164,
		"internal_node_id": "0.0-3.0-1.176"
	},
	{
		"rt": 1131,
		"stimulus": "../audio/58-4-masc.mp3",
		"response": " ",
		"word": "último",
		"trial_type": "audio-keyboard-response",
		"trial_index": 224,
		"time_elapsed": 530572,
		"internal_node_id": "0.0-3.0-1.177"
	},
	{
		"rt": 1099,
		"stimulus": "../audio/58-5-masc.mp3",
		"response": " ",
		"word": "herdeiro",
		"trial_type": "audio-keyboard-response",
		"trial_index": 225,
		"time_elapsed": 531948,
		"internal_node_id": "0.0-3.0-1.178"
	},
	{
		"rt": 741,
		"stimulus": "../audio/58-6-masc.mp3",
		"response": " ",
		"word": "do",
		"trial_type": "audio-keyboard-response",
		"trial_index": 226,
		"time_elapsed": 532956,
		"internal_node_id": "0.0-3.0-1.179"
	},
	{
		"rt": 992,
		"stimulus": "../audio/58-7-masc.mp3",
		"response": " ",
		"word": "dinheiro.",
		"trial_type": "audio-keyboard-response",
		"trial_index": 227,
		"time_elapsed": 534252,
		"internal_node_id": "0.0-3.0-1.180"
	},
	{
		"rt": null,
		"stimulus": "<span style= \"font-size:30px; font-family: monospace\">+</span>",
		"response": null,
		"trial_part": "fixation",
		"trial_type": "html-keyboard-response",
		"trial_index": 228,
		"time_elapsed": 535517,
		"internal_node_id": "0.0-3.0-0.181-0.181"
	},
	{
		"rt": 821,
		"stimulus": "../audio/59-1-fem.mp3",
		"response": " ",
		"word": "O",
		"trial_type": "audio-keyboard-response",
		"trial_index": 229,
		"time_elapsed": 536604,
		"internal_node_id": "0.0-3.0-1.181"
	},
	{
		"rt": 1029,
		"stimulus": "../audio/59-2-fem.mp3",
		"response": " ",
		"word": "carteiro",
		"trial_type": "audio-keyboard-response",
		"trial_index": 230,
		"time_elapsed": 537916,
		"internal_node_id": "0.0-3.0-1.182"
	},
	{
		"rt": 861,
		"stimulus": "../audio/59-3-fem.mp3",
		"response": " ",
		"word": "fez",
		"trial_type": "audio-keyboard-response",
		"trial_index": 231,
		"time_elapsed": 539052,
		"internal_node_id": "0.0-3.0-1.183"
	},
	{
		"rt": 800,
		"stimulus": "../audio/59-4-fem.mp3",
		"response": " ",
		"word": "uma",
		"trial_type": "audio-keyboard-response",
		"trial_index": 232,
		"time_elapsed": 540124,
		"internal_node_id": "0.0-3.0-1.184"
	},
	{
		"rt": 891,
		"stimulus": "../audio/59-5-fem.mp3",
		"response": " ",
		"word": "tentativa",
		"trial_type": "audio-keyboard-response",
		"trial_index": 233,
		"time_elapsed": 541292,
		"internal_node_id": "0.0-3.0-1.185"
	},
	{
		"rt": 1219,
		"stimulus": "../audio/59-6-fem.mp3",
		"response": " ",
		"word": "de",
		"trial_type": "audio-keyboard-response",
		"trial_index": 234,
		"time_elapsed": 542780,
		"internal_node_id": "0.0-3.0-1.186"
	},
	{
		"rt": 1189,
		"stimulus": "../audio/59-7-fem.mp3",
		"response": " ",
		"word": "entrega.",
		"trial_type": "audio-keyboard-response",
		"trial_index": 235,
		"time_elapsed": 544236,
		"internal_node_id": "0.0-3.0-1.187"
	},
	{
		"rt": null,
		"stimulus": "<span style= \"font-size:30px; font-family: monospace\">+</span>",
		"response": null,
		"trial_part": "fixation",
		"trial_type": "html-keyboard-response",
		"trial_index": 236,
		"time_elapsed": 545494,
		"internal_node_id": "0.0-3.0-0.188-0.188"
	},
	{
		"rt": 1149,
		"stimulus": "../audio/60-1-masc.mp3",
		"response": " ",
		"word": "Ondas",
		"trial_type": "audio-keyboard-response",
		"trial_index": 237,
		"time_elapsed": 546908,
		"internal_node_id": "0.0-3.0-1.188"
	},
	{
		"rt": 941,
		"stimulus": "../audio/60-2-masc.mp3",
		"response": " ",
		"word": "têm",
		"trial_type": "audio-keyboard-response",
		"trial_index": 238,
		"time_elapsed": 548124,
		"internal_node_id": "0.0-3.0-1.189"
	},
	{
		"rt": 1131,
		"stimulus": "../audio/60-3-masc.mp3",
		"response": " ",
		"word": "um",
		"trial_type": "audio-keyboard-response",
		"trial_index": 239,
		"time_elapsed": 549516,
		"internal_node_id": "0.0-3.0-1.190"
	},
	{
		"rt": 1059,
		"stimulus": "../audio/60-4-masc.mp3",
		"response": " ",
		"word": "impacto",
		"trial_type": "audio-keyboard-response",
		"trial_index": 240,
		"time_elapsed": 550860,
		"internal_node_id": "0.0-3.0-1.191"
	},
	{
		"rt": 1600,
		"stimulus": "../audio/60-5-masc.mp3",
		"response": " ",
		"word": "destrutivo",
		"trial_type": "audio-keyboard-response",
		"trial_index": 241,
		"time_elapsed": 552732,
		"internal_node_id": "0.0-3.0-1.192"
	},
	{
		"rt": 960,
		"stimulus": "../audio/60-6-masc.mp3",
		"response": " ",
		"word": "no",
		"trial_type": "audio-keyboard-response",
		"trial_index": 242,
		"time_elapsed": 553964,
		"internal_node_id": "0.0-3.0-1.193"
	},
	{
		"rt": 1160,
		"stimulus": "../audio/60-7-masc.mp3",
		"response": " ",
		"word": "litoral.",
		"trial_type": "audio-keyboard-response",
		"trial_index": 243,
		"time_elapsed": 555420,
		"internal_node_id": "0.0-3.0-1.194"
	},
	{
		"rt": 6673,
		"stimulus": "<span style=\"font-size:25px; font-family: monospace\">Ondas têm um impacto destrutivo?</span>",
		"response": "s",
		"question": "Ondas têm um impacto destrutivo?",
		"answer": "null",
		"trial": "exp-sent",
		"trial_type": "html-keyboard-response",
		"trial_index": 244,
		"time_elapsed": 562348,
		"internal_node_id": "0.0-3.0-2.194-0.194",
		"accuracy": false
	},
	{
		"rt": null,
		"stimulus": "<span style= \"font-size:30px; font-family: monospace\">+</span>",
		"response": null,
		"trial_part": "fixation",
		"trial_type": "html-keyboard-response",
		"trial_index": 245,
		"time_elapsed": 563876,
		"internal_node_id": "0.0-3.0-0.195-0.195"
	},
	{
		"rt": 1400,
		"stimulus": "../audio/17-1-masc.mp3",
		"response": " ",
		"word": "Falaram",
		"trial_type": "audio-keyboard-response",
		"trial_index": 246,
		"time_elapsed": 565564,
		"internal_node_id": "0.0-3.0-1.195"
	},
	{
		"rt": 891,
		"stimulus": "../audio/17-2-masc.mp3",
		"response": " ",
		"word": "da",
		"trial_type": "audio-keyboard-response",
		"trial_index": 247,
		"time_elapsed": 566716,
		"internal_node_id": "0.0-3.0-1.196"
	},
	{
		"rt": 840,
		"stimulus": "../audio/17-3-masc.mp3",
		"response": " ",
		"word": "lei",
		"trial_type": "audio-keyboard-response",
		"trial_index": 248,
		"time_elapsed": 567820,
		"internal_node_id": "0.0-3.0-1.197"
	},
	{
		"rt": 821,
		"stimulus": "../audio/17-4-masc.mp3",
		"response": " ",
		"word": "no",
		"trial_type": "audio-keyboard-response",
		"trial_index": 249,
		"time_elapsed": 568924,
		"internal_node_id": "0.0-3.0-1.198"
	},
	{
		"rt": 1179,
		"stimulus": "../audio/17-5-masc.mp3",
		"response": " ",
		"word": "ministério",
		"trial_type": "audio-keyboard-response",
		"trial_index": 250,
		"time_elapsed": 570380,
		"internal_node_id": "0.0-3.0-1.199"
	},
	{
		"rt": 1259,
		"stimulus": "../audio/17-6-masc.mp3",
		"response": " ",
		"word": "diversas",
		"trial_type": "audio-keyboard-response",
		"trial_index": 251,
		"time_elapsed": 571916,
		"internal_node_id": "0.0-3.0-1.200"
	},
	{
		"rt": 1101,
		"stimulus": "../audio/17-7-masc.mp3",
		"response": " ",
		"word": "vezes.",
		"trial_type": "audio-keyboard-response",
		"trial_index": 252,
		"time_elapsed": 573292,
		"internal_node_id": "0.0-3.0-1.201"
	},
	{
		"rt": null,
		"stimulus": "<span style= \"font-size:30px; font-family: monospace\">+</span>",
		"response": null,
		"trial_part": "fixation",
		"trial_type": "html-keyboard-response",
		"trial_index": 253,
		"time_elapsed": 574571,
		"internal_node_id": "0.0-3.0-0.202-0.202"
	},
	{
		"rt": 1091,
		"stimulus": "../audio/16-1-masc.mp3",
		"response": " ",
		"word": "Eu",
		"trial_type": "audio-keyboard-response",
		"trial_index": 254,
		"time_elapsed": 575932,
		"internal_node_id": "0.0-3.0-1.202"
	},
	{
		"rt": 1021,
		"stimulus": "../audio/16-2-masc.mp3",
		"response": " ",
		"word": "nunca",
		"trial_type": "audio-keyboard-response",
		"trial_index": 255,
		"time_elapsed": 577244,
		"internal_node_id": "0.0-3.0-1.203"
	},
	{
		"rt": 1211,
		"stimulus": "../audio/16-3-masc.mp3",
		"response": " ",
		"word": "conheci",
		"trial_type": "audio-keyboard-response",
		"trial_index": 256,
		"time_elapsed": 578732,
		"internal_node_id": "0.0-3.0-1.204"
	},
	{
		"rt": 1149,
		"stimulus": "../audio/16-4-masc.mp3",
		"response": " ",
		"word": "um",
		"trial_type": "audio-keyboard-response",
		"trial_index": 257,
		"time_elapsed": 580156,
		"internal_node_id": "0.0-3.0-1.205"
	},
	{
		"rt": 1469,
		"stimulus": "../audio/16-5-masc.mp3",
		"response": " ",
		"word": "general",
		"trial_type": "audio-keyboard-response",
		"trial_index": 258,
		"time_elapsed": 581916,
		"internal_node_id": "0.0-3.0-1.206"
	},
	{
		"rt": 840,
		"stimulus": "../audio/16-6-masc.mp3",
		"response": " ",
		"word": "do",
		"trial_type": "audio-keyboard-response",
		"trial_index": 259,
		"time_elapsed": 583036,
		"internal_node_id": "0.0-3.0-1.207"
	},
	{
		"rt": 1349,
		"stimulus": "../audio/16-7-masc.mp3",
		"response": " ",
		"word": "exército.",
		"trial_type": "audio-keyboard-response",
		"trial_index": 260,
		"time_elapsed": 584668,
		"internal_node_id": "0.0-3.0-1.208"
	},
	{
		"rt": null,
		"stimulus": "<span style= \"font-size:30px; font-family: monospace\">+</span>",
		"response": null,
		"trial_part": "fixation",
		"trial_type": "html-keyboard-response",
		"trial_index": 261,
		"time_elapsed": 585946,
		"internal_node_id": "0.0-3.0-0.209-0.209"
	},
	{
		"rt": 771,
		"stimulus": "../audio/19-1-masc.mp3",
		"response": " ",
		"word": "O",
		"trial_type": "audio-keyboard-response",
		"trial_index": 262,
		"time_elapsed": 587004,
		"internal_node_id": "0.0-3.0-1.209"
	},
	{
		"rt": 1000,
		"stimulus": "../audio/19-2-masc.mp3",
		"response": " ",
		"word": "menino",
		"trial_type": "audio-keyboard-response",
		"trial_index": 263,
		"time_elapsed": 588268,
		"internal_node_id": "0.0-3.0-1.210"
	},
	{
		"rt": 1139,
		"stimulus": "../audio/19-3-masc.mp3",
		"response": " ",
		"word": "ganhou",
		"trial_type": "audio-keyboard-response",
		"trial_index": 264,
		"time_elapsed": 589676,
		"internal_node_id": "0.0-3.0-1.211"
	},
	{
		"rt": 869,
		"stimulus": "../audio/19-4-masc.mp3",
		"response": " ",
		"word": "uma",
		"trial_type": "audio-keyboard-response",
		"trial_index": 265,
		"time_elapsed": 590828,
		"internal_node_id": "0.0-3.0-1.212"
	},
	{
		"rt": 1101,
		"stimulus": "../audio/19-5-masc.mp3",
		"response": " ",
		"word": "bala",
		"trial_type": "audio-keyboard-response",
		"trial_index": 266,
		"time_elapsed": 592204,
		"internal_node_id": "0.0-3.0-1.213"
	},
	{
		"rt": 1011,
		"stimulus": "../audio/19-6-masc.mp3",
		"response": " ",
		"word": "depois",
		"trial_type": "audio-keyboard-response",
		"trial_index": 267,
		"time_elapsed": 593484,
		"internal_node_id": "0.0-3.0-1.214"
	},
	{
		"rt": 821,
		"stimulus": "../audio/19-7-masc.mp3",
		"response": " ",
		"word": "do",
		"trial_type": "audio-keyboard-response",
		"trial_index": 268,
		"time_elapsed": 594572,
		"internal_node_id": "0.0-3.0-1.215"
	},
	{
		"rt": 1389,
		"stimulus": "../audio/19-8-masc.mp3",
		"response": " ",
		"word": "almoço.",
		"trial_type": "audio-keyboard-response",
		"trial_index": 269,
		"time_elapsed": 596236,
		"internal_node_id": "0.0-3.0-1.216"
	},
	{
		"rt": null,
		"stimulus": "<span style= \"font-size:30px; font-family: monospace\">+</span>",
		"response": null,
		"trial_part": "fixation",
		"trial_type": "html-keyboard-response",
		"trial_index": 270,
		"time_elapsed": 597512,
		"internal_node_id": "0.0-3.0-0.217-0.217"
	},
	{
		"rt": 5101,
		"stimulus": "../audio/18-1-masc.mp3",
		"response": " ",
		"word": "O",
		"trial_type": "audio-keyboard-response",
		"trial_index": 271,
		"time_elapsed": 602892,
		"internal_node_id": "0.0-3.0-1.217"
	},
	{
		"rt": 1480,
		"stimulus": "../audio/18-2-masc.mp3",
		"response": " ",
		"word": "enredo",
		"trial_type": "audio-keyboard-response",
		"trial_index": 272,
		"time_elapsed": 604652,
		"internal_node_id": "0.0-3.0-1.218"
	},
	{
		"rt": 1040,
		"stimulus": "../audio/18-3-masc.mp3",
		"response": " ",
		"word": "traz",
		"trial_type": "audio-keyboard-response",
		"trial_index": 273,
		"time_elapsed": 605964,
		"internal_node_id": "0.0-3.0-1.219"
	},
	{
		"rt": 869,
		"stimulus": "../audio/18-4-masc.mp3",
		"response": " ",
		"word": "um",
		"trial_type": "audio-keyboard-response",
		"trial_index": 274,
		"time_elapsed": 607116,
		"internal_node_id": "0.0-3.0-1.220"
	},
	{
		"rt": 1040,
		"stimulus": "../audio/18-5-masc.mp3",
		"response": " ",
		"word": "dragão",
		"trial_type": "audio-keyboard-response",
		"trial_index": 275,
		"time_elapsed": 608428,
		"internal_node_id": "0.0-3.0-1.221"
	},
	{
		"rt": 1091,
		"stimulus": "../audio/18-6-masc.mp3",
		"response": " ",
		"word": "forte",
		"trial_type": "audio-keyboard-response",
		"trial_index": 276,
		"time_elapsed": 609788,
		"internal_node_id": "0.0-3.0-1.222"
	},
	{
		"rt": 851,
		"stimulus": "../audio/18-7-masc.mp3",
		"response": " ",
		"word": "e",
		"trial_type": "audio-keyboard-response",
		"trial_index": 277,
		"time_elapsed": 610908,
		"internal_node_id": "0.0-3.0-1.223"
	},
	{
		"rt": 1131,
		"stimulus": "../audio/18-8-masc.mp3",
		"response": " ",
		"word": "solitário.",
		"trial_type": "audio-keyboard-response",
		"trial_index": 278,
		"time_elapsed": 612316,
		"internal_node_id": "0.0-3.0-1.224"
	},
	{
		"rt": null,
		"stimulus": "<span style= \"font-size:30px; font-family: monospace\">+</span>",
		"response": null,
		"trial_part": "fixation",
		"trial_type": "html-keyboard-response",
		"trial_index": 279,
		"time_elapsed": 613572,
		"internal_node_id": "0.0-3.0-0.225-0.225"
	},
	{
		"rt": 651,
		"stimulus": "../audio/20-1-masc.mp3",
		"response": " ",
		"word": "O",
		"trial_type": "audio-keyboard-response",
		"trial_index": 280,
		"time_elapsed": 614492,
		"internal_node_id": "0.0-3.0-1.225"
	},
	{
		"rt": 880,
		"stimulus": "../audio/20-2-masc.mp3",
		"response": " ",
		"word": "colega",
		"trial_type": "audio-keyboard-response",
		"trial_index": 281,
		"time_elapsed": 615644,
		"internal_node_id": "0.0-3.0-1.226"
	},
	{
		"rt": 1080,
		"stimulus": "../audio/20-3-masc.mp3",
		"response": " ",
		"word": "parecia",
		"trial_type": "audio-keyboard-response",
		"trial_index": 282,
		"time_elapsed": 617004,
		"internal_node_id": "0.0-3.0-1.227"
	},
	{
		"rt": 840,
		"stimulus": "../audio/20-4-masc.mp3",
		"response": " ",
		"word": "muito",
		"trial_type": "audio-keyboard-response",
		"trial_index": 283,
		"time_elapsed": 618124,
		"internal_node_id": "0.0-3.0-1.228"
	},
	{
		"rt": 1099,
		"stimulus": "../audio/20-5-masc.mp3",
		"response": " ",
		"word": "gripado",
		"trial_type": "audio-keyboard-response",
		"trial_index": 284,
		"time_elapsed": 619516,
		"internal_node_id": "0.0-3.0-1.229"
	},
	{
		"rt": 960,
		"stimulus": "../audio/20-6-masc.mp3",
		"response": " ",
		"word": "no",
		"trial_type": "audio-keyboard-response",
		"trial_index": 285,
		"time_elapsed": 620748,
		"internal_node_id": "0.0-3.0-1.230"
	},
	{
		"rt": 992,
		"stimulus": "../audio/20-7-masc.mp3",
		"response": " ",
		"word": "dia",
		"trial_type": "audio-keyboard-response",
		"trial_index": 286,
		"time_elapsed": 622012,
		"internal_node_id": "0.0-3.0-1.231"
	},
	{
		"rt": 1269,
		"stimulus": "../audio/20-8-masc.mp3",
		"response": " ",
		"word": "anterior.",
		"trial_type": "audio-keyboard-response",
		"trial_index": 287,
		"time_elapsed": 623564,
		"internal_node_id": "0.0-3.0-1.232"
	},
	{
		"rt": 12291,
		"stimulus": "<span style=\"font-size:25px; font-family: monospace\">O colega parecia muito gripado?</span>",
		"response": "n",
		"question": "O colega parecia muito gripado?",
		"answer": "null",
		"trial": "exp-sent",
		"trial_type": "html-keyboard-response",
		"trial_index": 288,
		"time_elapsed": 636108,
		"internal_node_id": "0.0-3.0-2.232-0.232",
		"accuracy": false
	},
	{
		"rt": null,
		"stimulus": "<span style= \"font-size:30px; font-family: monospace\">+</span>",
		"response": null,
		"trial_part": "fixation",
		"trial_type": "html-keyboard-response",
		"trial_index": 289,
		"time_elapsed": 637616,
		"internal_node_id": "0.0-3.0-0.233-0.233"
	},
	{
		"rt": 941,
		"stimulus": "../audio/73-1-masc.mp3",
		"response": " ",
		"word": "O",
		"trial_type": "audio-keyboard-response",
		"trial_index": 290,
		"time_elapsed": 638844,
		"internal_node_id": "0.0-3.0-1.233"
	},
	{
		"rt": 1269,
		"stimulus": "../audio/73-2-masc.mp3",
		"response": " ",
		"word": "cliente",
		"trial_type": "audio-keyboard-response",
		"trial_index": 291,
		"time_elapsed": 640396,
		"internal_node_id": "0.0-3.0-1.234"
	},
	{
		"rt": 989,
		"stimulus": "../audio/73-3-masc.mp3",
		"response": " ",
		"word": "era",
		"trial_type": "audio-keyboard-response",
		"trial_index": 292,
		"time_elapsed": 641660,
		"internal_node_id": "0.0-3.0-1.235"
	},
	{
		"rt": 920,
		"stimulus": "../audio/73-4-masc.mp3",
		"response": " ",
		"word": "um",
		"trial_type": "audio-keyboard-response",
		"trial_index": 293,
		"time_elapsed": 642844,
		"internal_node_id": "0.0-3.0-1.236"
	},
	{
		"rt": 989,
		"stimulus": "../audio/73-5-masc.mp3",
		"response": " ",
		"word": "homem",
		"trial_type": "audio-keyboard-response",
		"trial_index": 294,
		"time_elapsed": 644108,
		"internal_node_id": "0.0-3.0-1.237"
	},
	{
		"rt": 1349,
		"stimulus": "../audio/73-6-masc.mp3",
		"response": " ",
		"word": "muito",
		"trial_type": "audio-keyboard-response",
		"trial_index": 295,
		"time_elapsed": 645740,
		"internal_node_id": "0.0-3.0-1.238"
	},
	{
		"rt": 1560,
		"stimulus": "../audio/73-7-masc.mp3",
		"response": " ",
		"word": "educado.",
		"trial_type": "audio-keyboard-response",
		"trial_index": 296,
		"time_elapsed": 647580,
		"internal_node_id": "0.0-3.0-1.239"
	},
	{
		"rt": null,
		"stimulus": "<span style= \"font-size:30px; font-family: monospace\">+</span>",
		"response": null,
		"trial_part": "fixation",
		"trial_type": "html-keyboard-response",
		"trial_index": 297,
		"time_elapsed": 648848,
		"internal_node_id": "0.0-3.0-0.240-0.240"
	},
	{
		"rt": 1328,
		"stimulus": "../audio/74-1-fem.mp3",
		"response": " ",
		"word": "Este",
		"trial_type": "audio-keyboard-response",
		"trial_index": 298,
		"time_elapsed": 650460,
		"internal_node_id": "0.0-3.0-1.240"
	},
	{
		"rt": 1248,
		"stimulus": "../audio/74-2-fem.mp3",
		"response": " ",
		"word": "emprego",
		"trial_type": "audio-keyboard-response",
		"trial_index": 299,
		"time_elapsed": 651980,
		"internal_node_id": "0.0-3.0-1.241"
	},
	{
		"rt": 933,
		"stimulus": "../audio/74-3-fem.mp3",
		"response": " ",
		"word": "é",
		"trial_type": "audio-keyboard-response",
		"trial_index": 300,
		"time_elapsed": 653196,
		"internal_node_id": "0.0-3.0-1.242"
	},
	{
		"rt": 1021,
		"stimulus": "../audio/74-4-fem.mp3",
		"response": " ",
		"word": "muito",
		"trial_type": "audio-keyboard-response",
		"trial_index": 301,
		"time_elapsed": 654476,
		"internal_node_id": "0.0-3.0-1.243"
	},
	{
		"rt": 1501,
		"stimulus": "../audio/74-5-fem.mp3",
		"response": " ",
		"word": "cansativo",
		"trial_type": "audio-keyboard-response",
		"trial_index": 302,
		"time_elapsed": 656252,
		"internal_node_id": "0.0-3.0-1.244"
	},
	{
		"rt": 709,
		"stimulus": "../audio/74-6-fem.mp3",
		"response": " ",
		"word": "a",
		"trial_type": "audio-keyboard-response",
		"trial_index": 303,
		"time_elapsed": 657228,
		"internal_node_id": "0.0-3.0-1.245"
	},
	{
		"rt": 1099,
		"stimulus": "../audio/74-7-fem.mp3",
		"response": " ",
		"word": "longo",
		"trial_type": "audio-keyboard-response",
		"trial_index": 304,
		"time_elapsed": 658620,
		"internal_node_id": "0.0-3.0-1.246"
	},
	{
		"rt": 1008,
		"stimulus": "../audio/74-8-fem.mp3",
		"response": " ",
		"word": "prazo.",
		"trial_type": "audio-keyboard-response",
		"trial_index": 305,
		"time_elapsed": 659900,
		"internal_node_id": "0.0-3.0-1.247"
	},
	{
		"rt": null,
		"stimulus": "<span style= \"font-size:30px; font-family: monospace\">+</span>",
		"response": null,
		"trial_part": "fixation",
		"trial_type": "html-keyboard-response",
		"trial_index": 306,
		"time_elapsed": 661164,
		"internal_node_id": "0.0-3.0-0.248-0.248"
	},
	{
		"rt": 1069,
		"stimulus": "../audio/71-1-fem.mp3",
		"response": " ",
		"word": "Minhas",
		"trial_type": "audio-keyboard-response",
		"trial_index": 307,
		"time_elapsed": 662524,
		"internal_node_id": "0.0-3.0-1.248"
	},
	{
		"rt": 1019,
		"stimulus": "../audio/71-2-fem.mp3",
		"response": " ",
		"word": "comidas",
		"trial_type": "audio-keyboard-response",
		"trial_index": 308,
		"time_elapsed": 663820,
		"internal_node_id": "0.0-3.0-1.249"
	},
	{
		"rt": 1221,
		"stimulus": "../audio/71-3-fem.mp3",
		"response": " ",
		"word": "favoritas",
		"trial_type": "audio-keyboard-response",
		"trial_index": 309,
		"time_elapsed": 665324,
		"internal_node_id": "0.0-3.0-1.250"
	},
	{
		"rt": 971,
		"stimulus": "../audio/71-4-fem.mp3",
		"response": " ",
		"word": "são",
		"trial_type": "audio-keyboard-response",
		"trial_index": 310,
		"time_elapsed": 666572,
		"internal_node_id": "0.0-3.0-1.251"
	},
	{
		"rt": 1179,
		"stimulus": "../audio/71-5-fem.mp3",
		"response": " ",
		"word": "morango",
		"trial_type": "audio-keyboard-response",
		"trial_index": 311,
		"time_elapsed": 668028,
		"internal_node_id": "0.0-3.0-1.252"
	},
	{
		"rt": 760,
		"stimulus": "../audio/71-6-fem.mp3",
		"response": " ",
		"word": "e",
		"trial_type": "audio-keyboard-response",
		"trial_index": 312,
		"time_elapsed": 669068,
		"internal_node_id": "0.0-3.0-1.253"
	},
	{
		"rt": 891,
		"stimulus": "../audio/71-7-fem.mp3",
		"response": " ",
		"word": "uva.",
		"trial_type": "audio-keyboard-response",
		"trial_index": 313,
		"time_elapsed": 670236,
		"internal_node_id": "0.0-3.0-1.254"
	},
	{
		"rt": null,
		"stimulus": "<span style= \"font-size:30px; font-family: monospace\">+</span>",
		"response": null,
		"trial_part": "fixation",
		"trial_type": "html-keyboard-response",
		"trial_index": 314,
		"time_elapsed": 671503,
		"internal_node_id": "0.0-3.0-0.255-0.255"
	},
	{
		"rt": 741,
		"stimulus": "../audio/72-1-fem.mp3",
		"response": " ",
		"word": "A",
		"trial_type": "audio-keyboard-response",
		"trial_index": 315,
		"time_elapsed": 672524,
		"internal_node_id": "0.0-3.0-1.255"
	},
	{
		"rt": 1560,
		"stimulus": "../audio/72-2-fem.mp3",
		"response": " ",
		"word": "vencedora",
		"trial_type": "audio-keyboard-response",
		"trial_index": 316,
		"time_elapsed": 674364,
		"internal_node_id": "0.0-3.0-1.256"
	},
	{
		"rt": 1099,
		"stimulus": "../audio/72-3-fem.mp3",
		"response": " ",
		"word": "recebeu",
		"trial_type": "audio-keyboard-response",
		"trial_index": 317,
		"time_elapsed": 675740,
		"internal_node_id": "0.0-3.0-1.257"
	},
	{
		"rt": 821,
		"stimulus": "../audio/72-4-fem.mp3",
		"response": " ",
		"word": "um",
		"trial_type": "audio-keyboard-response",
		"trial_index": 318,
		"time_elapsed": 676844,
		"internal_node_id": "0.0-3.0-1.258"
	},
	{
		"rt": 1029,
		"stimulus": "../audio/72-5-fem.mp3",
		"response": " ",
		"word": "prêmio",
		"trial_type": "audio-keyboard-response",
		"trial_index": 319,
		"time_elapsed": 678140,
		"internal_node_id": "0.0-3.0-1.259"
	},
	{
		"rt": 749,
		"stimulus": "../audio/72-6-fem.mp3",
		"response": " ",
		"word": "em",
		"trial_type": "audio-keyboard-response",
		"trial_index": 320,
		"time_elapsed": 679164,
		"internal_node_id": "0.0-3.0-1.260"
	},
	{
		"rt": 1061,
		"stimulus": "../audio/72-7-fem.mp3",
		"response": " ",
		"word": "dinheiro.",
		"trial_type": "audio-keyboard-response",
		"trial_index": 321,
		"time_elapsed": 680492,
		"internal_node_id": "0.0-3.0-1.261"
	},
	{
		"rt": null,
		"stimulus": "<span style= \"font-size:30px; font-family: monospace\">+</span>",
		"response": null,
		"trial_part": "fixation",
		"trial_type": "html-keyboard-response",
		"trial_index": 322,
		"time_elapsed": 681765,
		"internal_node_id": "0.0-3.0-0.262-0.262"
	},
	{
		"rt": 939,
		"stimulus": "../audio/75-1-masc.mp3",
		"response": " ",
		"word": "Só",
		"trial_type": "audio-keyboard-response",
		"trial_index": 323,
		"time_elapsed": 682988,
		"internal_node_id": "0.0-3.0-1.262"
	},
	{
		"rt": 1072,
		"stimulus": "../audio/75-2-masc.mp3",
		"response": " ",
		"word": "existe",
		"trial_type": "audio-keyboard-response",
		"trial_index": 324,
		"time_elapsed": 684332,
		"internal_node_id": "0.0-3.0-1.263"
	},
	{
		"rt": 840,
		"stimulus": "../audio/75-3-masc.mp3",
		"response": " ",
		"word": "uma",
		"trial_type": "audio-keyboard-response",
		"trial_index": 325,
		"time_elapsed": 685451,
		"internal_node_id": "0.0-3.0-1.264"
	},
	{
		"rt": 859,
		"stimulus": "../audio/75-4-masc.mp3",
		"response": " ",
		"word": "pessoa",
		"trial_type": "audio-keyboard-response",
		"trial_index": 326,
		"time_elapsed": 686587,
		"internal_node_id": "0.0-3.0-1.265"
	},
	{
		"rt": 811,
		"stimulus": "../audio/75-5-masc.mp3",
		"response": " ",
		"word": "canhota",
		"trial_type": "audio-keyboard-response",
		"trial_index": 327,
		"time_elapsed": 687676,
		"internal_node_id": "0.0-3.0-1.266"
	},
	{
		"rt": 952,
		"stimulus": "../audio/75-6-masc.mp3",
		"response": " ",
		"word": "nesta",
		"trial_type": "audio-keyboard-response",
		"trial_index": 328,
		"time_elapsed": 688892,
		"internal_node_id": "0.0-3.0-1.267"
	},
	{
		"rt": 939,
		"stimulus": "../audio/75-7-masc.mp3",
		"response": " ",
		"word": "cidade.",
		"trial_type": "audio-keyboard-response",
		"trial_index": 329,
		"time_elapsed": 690108,
		"internal_node_id": "0.0-3.0-1.268"
	},
	{
		"rt": 7948,
		"stimulus": "<span style=\"font-size:25px; font-family: monospace\">Só existe uma pessoa canhota na cidade?</span>",
		"response": "s",
		"question": "Só existe uma pessoa canhota na cidade?",
		"answer": "null",
		"trial": "exp-sent",
		"trial_type": "html-keyboard-response",
		"trial_index": 330,
		"time_elapsed": 698316,
		"internal_node_id": "0.0-3.0-2.268-0.268",
		"accuracy": false
	},
	{
		"rt": null,
		"stimulus": "<span style= \"font-size:30px; font-family: monospace\">+</span>",
		"response": null,
		"trial_part": "fixation",
		"trial_type": "html-keyboard-response",
		"trial_index": 331,
		"time_elapsed": 699831,
		"internal_node_id": "0.0-3.0-0.269-0.269"
	},
	{
		"rt": 1509,
		"stimulus": "../audio/29-1-fem.mp3",
		"response": " ",
		"word": "Hoje",
		"trial_type": "audio-keyboard-response",
		"trial_index": 332,
		"time_elapsed": 701628,
		"internal_node_id": "0.0-3.0-1.269"
	},
	{
		"rt": 1291,
		"stimulus": "../audio/29-2-fem.mp3",
		"response": " ",
		"word": "vamos",
		"trial_type": "audio-keyboard-response",
		"trial_index": 333,
		"time_elapsed": 703195,
		"internal_node_id": "0.0-3.0-1.270"
	},
	{
		"rt": 1032,
		"stimulus": "../audio/29-3-fem.mp3",
		"response": " ",
		"word": "fazer",
		"trial_type": "audio-keyboard-response",
		"trial_index": 334,
		"time_elapsed": 704492,
		"internal_node_id": "0.0-3.0-1.271"
	},
	{
		"rt": 819,
		"stimulus": "../audio/29-4-fem.mp3",
		"response": " ",
		"word": "uma",
		"trial_type": "audio-keyboard-response",
		"trial_index": 335,
		"time_elapsed": 705580,
		"internal_node_id": "0.0-3.0-1.272"
	},
	{
		"rt": 1219,
		"stimulus": "../audio/29-5-fem.mp3",
		"response": " ",
		"word": "atividade",
		"trial_type": "audio-keyboard-response",
		"trial_index": 336,
		"time_elapsed": 707068,
		"internal_node_id": "0.0-3.0-1.273"
	},
	{
		"rt": 1179,
		"stimulus": "../audio/29-6-fem.mp3",
		"response": " ",
		"word": "sobre",
		"trial_type": "audio-keyboard-response",
		"trial_index": 337,
		"time_elapsed": 708507,
		"internal_node_id": "0.0-3.0-1.274"
	},
	{
		"rt": 1171,
		"stimulus": "../audio/29-7-fem.mp3",
		"response": " ",
		"word": "fauna",
		"trial_type": "audio-keyboard-response",
		"trial_index": 338,
		"time_elapsed": 709963,
		"internal_node_id": "0.0-3.0-1.275"
	},
	{
		"rt": 1259,
		"stimulus": "../audio/29-8-fem.mp3",
		"response": " ",
		"word": "marinha.",
		"trial_type": "audio-keyboard-response",
		"trial_index": 339,
		"time_elapsed": 711500,
		"internal_node_id": "0.0-3.0-1.276"
	},
	{
		"rt": null,
		"stimulus": "<span style= \"font-size:30px; font-family: monospace\">+</span>",
		"response": null,
		"trial_part": "fixation",
		"trial_type": "html-keyboard-response",
		"trial_index": 340,
		"time_elapsed": 712768,
		"internal_node_id": "0.0-3.0-0.277-0.277"
	},
	{
		"rt": 989,
		"stimulus": "../audio/27-1-masc.mp3",
		"response": " ",
		"word": "O",
		"trial_type": "audio-keyboard-response",
		"trial_index": 341,
		"time_elapsed": 714044,
		"internal_node_id": "0.0-3.0-1.277"
	},
	{
		"rt": 1091,
		"stimulus": "../audio/27-2-masc.mp3",
		"response": " ",
		"word": "dinheiro",
		"trial_type": "audio-keyboard-response",
		"trial_index": 342,
		"time_elapsed": 715403,
		"internal_node_id": "0.0-3.0-1.278"
	},
	{
		"rt": 920,
		"stimulus": "../audio/27-3-masc.mp3",
		"response": " ",
		"word": "chegou",
		"trial_type": "audio-keyboard-response",
		"trial_index": 343,
		"time_elapsed": 716587,
		"internal_node_id": "0.0-3.0-1.279"
	},
	{
		"rt": 771,
		"stimulus": "../audio/27-4-masc.mp3",
		"response": " ",
		"word": "à",
		"trial_type": "audio-keyboard-response",
		"trial_index": 344,
		"time_elapsed": 717627,
		"internal_node_id": "0.0-3.0-1.280"
	},
	{
		"rt": 1000,
		"stimulus": "../audio/27-5-masc.mp3",
		"response": " ",
		"word": "elite",
		"trial_type": "audio-keyboard-response",
		"trial_index": 345,
		"time_elapsed": 718907,
		"internal_node_id": "0.0-3.0-1.281"
	},
	{
		"rt": 1021,
		"stimulus": "../audio/27-6-masc.mp3",
		"response": " ",
		"word": "deste",
		"trial_type": "audio-keyboard-response",
		"trial_index": 346,
		"time_elapsed": 720203,
		"internal_node_id": "0.0-3.0-1.282"
	},
	{
		"rt": 909,
		"stimulus": "../audio/27-7-masc.mp3",
		"response": " ",
		"word": "país.",
		"trial_type": "audio-keyboard-response",
		"trial_index": 347,
		"time_elapsed": 721387,
		"internal_node_id": "0.0-3.0-1.283"
	},
	{
		"rt": null,
		"stimulus": "<span style= \"font-size:30px; font-family: monospace\">+</span>",
		"response": null,
		"trial_part": "fixation",
		"trial_type": "html-keyboard-response",
		"trial_index": 348,
		"time_elapsed": 722649,
		"internal_node_id": "0.0-3.0-0.284-0.284"
	},
	{
		"rt": 1069,
		"stimulus": "../audio/26-1-fem.mp3",
		"response": " ",
		"word": "Amanhã",
		"trial_type": "audio-keyboard-response",
		"trial_index": 349,
		"time_elapsed": 723996,
		"internal_node_id": "0.0-3.0-1.284"
	},
	{
		"rt": 851,
		"stimulus": "../audio/26-2-fem.mp3",
		"response": " ",
		"word": "temos",
		"trial_type": "audio-keyboard-response",
		"trial_index": 350,
		"time_elapsed": 725116,
		"internal_node_id": "0.0-3.0-1.285"
	},
	{
		"rt": 960,
		"stimulus": "../audio/26-3-fem.mp3",
		"response": " ",
		"word": "festa",
		"trial_type": "audio-keyboard-response",
		"trial_index": 351,
		"time_elapsed": 726348,
		"internal_node_id": "0.0-3.0-1.286"
	},
	{
		"rt": 931,
		"stimulus": "../audio/26-4-fem.mp3",
		"response": " ",
		"word": "na",
		"trial_type": "audio-keyboard-response",
		"trial_index": 352,
		"time_elapsed": 727547,
		"internal_node_id": "0.0-3.0-1.287"
	},
	{
		"rt": 1091,
		"stimulus": "../audio/26-5-fem.mp3",
		"response": " ",
		"word": "piscina",
		"trial_type": "audio-keyboard-response",
		"trial_index": 353,
		"time_elapsed": 728907,
		"internal_node_id": "0.0-3.0-1.288"
	},
	{
		"rt": 971,
		"stimulus": "../audio/26-6-fem.mp3",
		"response": " ",
		"word": "o",
		"trial_type": "audio-keyboard-response",
		"trial_index": 354,
		"time_elapsed": 730155,
		"internal_node_id": "0.0-3.0-1.289"
	},
	{
		"rt": 941,
		"stimulus": "../audio/26-7-fem.mp3",
		"response": " ",
		"word": "dia",
		"trial_type": "audio-keyboard-response",
		"trial_index": 355,
		"time_elapsed": 731356,
		"internal_node_id": "0.0-3.0-1.290"
	},
	{
		"rt": 1040,
		"stimulus": "../audio/26-8-fem.mp3",
		"response": " ",
		"word": "todo.",
		"trial_type": "audio-keyboard-response",
		"trial_index": 356,
		"time_elapsed": 732667,
		"internal_node_id": "0.0-3.0-1.291"
	},
	{
		"rt": null,
		"stimulus": "<span style= \"font-size:30px; font-family: monospace\">+</span>",
		"response": null,
		"trial_part": "fixation",
		"trial_type": "html-keyboard-response",
		"trial_index": 357,
		"time_elapsed": 733935,
		"internal_node_id": "0.0-3.0-0.292-0.292"
	},
	{
		"rt": 992,
		"stimulus": "../audio/28-1-masc.mp3",
		"response": " ",
		"word": "O",
		"trial_type": "audio-keyboard-response",
		"trial_index": 358,
		"time_elapsed": 735212,
		"internal_node_id": "0.0-3.0-1.292"
	},
	{
		"rt": 1571,
		"stimulus": "../audio/28-2-masc.mp3",
		"response": " ",
		"word": "time",
		"trial_type": "audio-keyboard-response",
		"trial_index": 359,
		"time_elapsed": 737051,
		"internal_node_id": "0.0-3.0-1.293"
	},
	{
		"rt": 851,
		"stimulus": "../audio/28-3-masc.mp3",
		"response": " ",
		"word": "quer",
		"trial_type": "audio-keyboard-response",
		"trial_index": 360,
		"time_elapsed": 738171,
		"internal_node_id": "0.0-3.0-1.294"
	},
	{
		"rt": 899,
		"stimulus": "../audio/28-4-masc.mp3",
		"response": " ",
		"word": "a",
		"trial_type": "audio-keyboard-response",
		"trial_index": 361,
		"time_elapsed": 739340,
		"internal_node_id": "0.0-3.0-1.295"
	},
	{
		"rt": 1139,
		"stimulus": "../audio/28-5-masc.mp3",
		"response": " ",
		"word": "vitória",
		"trial_type": "audio-keyboard-response",
		"trial_index": 362,
		"time_elapsed": 740747,
		"internal_node_id": "0.0-3.0-1.296"
	},
	{
		"rt": 869,
		"stimulus": "../audio/28-6-masc.mp3",
		"response": " ",
		"word": "no",
		"trial_type": "audio-keyboard-response",
		"trial_index": 363,
		"time_elapsed": 741883,
		"internal_node_id": "0.0-3.0-1.297"
	},
	{
		"rt": 960,
		"stimulus": "../audio/28-7-masc.mp3",
		"response": " ",
		"word": "jogo",
		"trial_type": "audio-keyboard-response",
		"trial_index": 364,
		"time_elapsed": 743131,
		"internal_node_id": "0.0-3.0-1.298"
	},
	{
		"rt": 760,
		"stimulus": "../audio/28-8-masc.mp3",
		"response": " ",
		"word": "de",
		"trial_type": "audio-keyboard-response",
		"trial_index": 365,
		"time_elapsed": 744171,
		"internal_node_id": "0.0-3.0-1.299"
	},
	{
		"rt": 1200,
		"stimulus": "../audio/28-9-masc.mp3",
		"response": " ",
		"word": "vôlei.",
		"trial_type": "audio-keyboard-response",
		"trial_index": 366,
		"time_elapsed": 745644,
		"internal_node_id": "0.0-3.0-1.300"
	},
	{
		"rt": null,
		"stimulus": "<span style= \"font-size:30px; font-family: monospace\">+</span>",
		"response": null,
		"trial_part": "fixation",
		"trial_type": "html-keyboard-response",
		"trial_index": 367,
		"time_elapsed": 746899,
		"internal_node_id": "0.0-3.0-0.301-0.301"
	},
	{
		"rt": 589,
		"stimulus": "../audio/30-1-fem.mp3",
		"response": " ",
		"word": "O",
		"trial_type": "audio-keyboard-response",
		"trial_index": 368,
		"time_elapsed": 747756,
		"internal_node_id": "0.0-3.0-1.301"
	},
	{
		"rt": 981,
		"stimulus": "../audio/30-2-fem.mp3",
		"response": " ",
		"word": "funcionário",
		"trial_type": "audio-keyboard-response",
		"trial_index": 369,
		"time_elapsed": 749004,
		"internal_node_id": "0.0-3.0-1.302"
	},
	{
		"rt": 971,
		"stimulus": "../audio/30-3-fem.mp3",
		"response": " ",
		"word": "entregou",
		"trial_type": "audio-keyboard-response",
		"trial_index": 370,
		"time_elapsed": 750252,
		"internal_node_id": "0.0-3.0-1.303"
	},
	{
		"rt": 739,
		"stimulus": "../audio/30-4-fem.mp3",
		"response": " ",
		"word": "o",
		"trial_type": "audio-keyboard-response",
		"trial_index": 371,
		"time_elapsed": 751260,
		"internal_node_id": "0.0-3.0-1.304"
	},
	{
		"rt": 1141,
		"stimulus": "../audio/30-5-fem.mp3",
		"response": " ",
		"word": "restante",
		"trial_type": "audio-keyboard-response",
		"trial_index": 372,
		"time_elapsed": 752684,
		"internal_node_id": "0.0-3.0-1.305"
	},
	{
		"rt": 760,
		"stimulus": "../audio/30-6-fem.mp3",
		"response": " ",
		"word": "do",
		"trial_type": "audio-keyboard-response",
		"trial_index": 373,
		"time_elapsed": 753708,
		"internal_node_id": "0.0-3.0-1.306"
	},
	{
		"rt": 939,
		"stimulus": "../audio/30-7-fem.mp3",
		"response": " ",
		"word": "dinheiro.",
		"trial_type": "audio-keyboard-response",
		"trial_index": 374,
		"time_elapsed": 754908,
		"internal_node_id": "0.0-3.0-1.307"
	},
	{
		"rt": 6158,
		"stimulus": "<span style=\"font-size:25px; font-family: monospace\">O funcionário entregou o contrato?</span>",
		"response": "n",
		"question": "O funcionário entregou o contrato?",
		"answer": "null",
		"trial": "exp-sent",
		"trial_type": "html-keyboard-response",
		"trial_index": 375,
		"time_elapsed": 761324,
		"internal_node_id": "0.0-3.0-2.307-0.307",
		"accuracy": false
	},
	{
		"rt": null,
		"stimulus": "<span style= \"font-size:30px; font-family: monospace\">+</span>",
		"response": null,
		"trial_part": "fixation",
		"trial_type": "html-keyboard-response",
		"trial_index": 376,
		"time_elapsed": 762841,
		"internal_node_id": "0.0-3.0-0.308-0.308"
	},
	{
		"rt": 680,
		"stimulus": "../audio/49-1-masc.mp3",
		"response": " ",
		"word": "Eu",
		"trial_type": "audio-keyboard-response",
		"trial_index": 377,
		"time_elapsed": 763804,
		"internal_node_id": "0.0-3.0-1.308"
	},
	{
		"rt": 821,
		"stimulus": "../audio/49-2-masc.mp3",
		"response": " ",
		"word": "quero",
		"trial_type": "audio-keyboard-response",
		"trial_index": 378,
		"time_elapsed": 764892,
		"internal_node_id": "0.0-3.0-1.309"
	},
	{
		"rt": 739,
		"stimulus": "../audio/49-3-masc.mp3",
		"response": " ",
		"word": "um",
		"trial_type": "audio-keyboard-response",
		"trial_index": 379,
		"time_elapsed": 765900,
		"internal_node_id": "0.0-3.0-1.310"
	},
	{
		"rt": 952,
		"stimulus": "../audio/49-4-masc.mp3",
		"response": " ",
		"word": "lanche",
		"trial_type": "audio-keyboard-response",
		"trial_index": 380,
		"time_elapsed": 767132,
		"internal_node_id": "0.0-3.0-1.311"
	},
	{
		"rt": 1011,
		"stimulus": "../audio/49-5-masc.mp3",
		"response": " ",
		"word": "duplo",
		"trial_type": "audio-keyboard-response",
		"trial_index": 381,
		"time_elapsed": 768412,
		"internal_node_id": "0.0-3.0-1.312"
	},
	{
		"rt": 739,
		"stimulus": "../audio/49-6-masc.mp3",
		"response": " ",
		"word": "e",
		"trial_type": "audio-keyboard-response",
		"trial_index": 382,
		"time_elapsed": 769436,
		"internal_node_id": "0.0-3.0-1.313"
	},
	{
		"rt": 720,
		"stimulus": "../audio/49-7-masc.mp3",
		"response": " ",
		"word": "um",
		"trial_type": "audio-keyboard-response",
		"trial_index": 383,
		"time_elapsed": 770428,
		"internal_node_id": "0.0-3.0-1.314"
	},
	{
		"rt": 1011,
		"stimulus": "../audio/49-8-masc.mp3",
		"response": " ",
		"word": "suco.",
		"trial_type": "audio-keyboard-response",
		"trial_index": 384,
		"time_elapsed": 771708,
		"internal_node_id": "0.0-3.0-1.315"
	},
	{
		"rt": null,
		"stimulus": "<span style= \"font-size:30px; font-family: monospace\">+</span>",
		"response": null,
		"trial_part": "fixation",
		"trial_type": "html-keyboard-response",
		"trial_index": 385,
		"time_elapsed": 772984,
		"internal_node_id": "0.0-3.0-0.316-0.316"
	},
	{
		"rt": 781,
		"stimulus": "../audio/48-1-masc.mp3",
		"response": " ",
		"word": "Ela",
		"trial_type": "audio-keyboard-response",
		"trial_index": 386,
		"time_elapsed": 774044,
		"internal_node_id": "0.0-3.0-1.316"
	},
	{
		"rt": 821,
		"stimulus": "../audio/48-2-masc.mp3",
		"response": " ",
		"word": "come",
		"trial_type": "audio-keyboard-response",
		"trial_index": 387,
		"time_elapsed": 775132,
		"internal_node_id": "0.0-3.0-1.317"
	},
	{
		"rt": 760,
		"stimulus": "../audio/48-3-masc.mp3",
		"response": " ",
		"word": "feijão",
		"trial_type": "audio-keyboard-response",
		"trial_index": 388,
		"time_elapsed": 776172,
		"internal_node_id": "0.0-3.0-1.318"
	},
	{
		"rt": 800,
		"stimulus": "../audio/48-4-masc.mp3",
		"response": " ",
		"word": "com",
		"trial_type": "audio-keyboard-response",
		"trial_index": 389,
		"time_elapsed": 777244,
		"internal_node_id": "0.0-3.0-1.319"
	},
	{
		"rt": 840,
		"stimulus": "../audio/48-5-masc.mp3",
		"response": " ",
		"word": "arroz",
		"trial_type": "audio-keyboard-response",
		"trial_index": 390,
		"time_elapsed": 778364,
		"internal_node_id": "0.0-3.0-1.320"
	},
	{
		"rt": 840,
		"stimulus": "../audio/48-6-masc.mp3",
		"response": " ",
		"word": "todos",
		"trial_type": "audio-keyboard-response",
		"trial_index": 391,
		"time_elapsed": 779467,
		"internal_node_id": "0.0-3.0-1.321"
	},
	{
		"rt": 752,
		"stimulus": "../audio/48-7-masc.mp3",
		"response": " ",
		"word": "os",
		"trial_type": "audio-keyboard-response",
		"trial_index": 392,
		"time_elapsed": 780492,
		"internal_node_id": "0.0-3.0-1.322"
	},
	{
		"rt": 931,
		"stimulus": "../audio/48-8-masc.mp3",
		"response": " ",
		"word": "dias.",
		"trial_type": "audio-keyboard-response",
		"trial_index": 393,
		"time_elapsed": 781692,
		"internal_node_id": "0.0-3.0-1.323"
	},
	{
		"rt": null,
		"stimulus": "<span style= \"font-size:30px; font-family: monospace\">+</span>",
		"response": null,
		"trial_part": "fixation",
		"trial_type": "html-keyboard-response",
		"trial_index": 394,
		"time_elapsed": 782964,
		"internal_node_id": "0.0-3.0-0.324-0.324"
	},
	{
		"rt": 691,
		"stimulus": "../audio/47-1-masc.mp3",
		"response": " ",
		"word": "O",
		"trial_type": "audio-keyboard-response",
		"trial_index": 395,
		"time_elapsed": 783932,
		"internal_node_id": "0.0-3.0-1.324"
	},
	{
		"rt": 819,
		"stimulus": "../audio/47-2-masc.mp3",
		"response": " ",
		"word": "tio",
		"trial_type": "audio-keyboard-response",
		"trial_index": 396,
		"time_elapsed": 785020,
		"internal_node_id": "0.0-3.0-1.325"
	},
	{
		"rt": 1149,
		"stimulus": "../audio/47-3-masc.mp3",
		"response": " ",
		"word": "recusou",
		"trial_type": "audio-keyboard-response",
		"trial_index": 397,
		"time_elapsed": 786444,
		"internal_node_id": "0.0-3.0-1.326"
	},
	{
		"rt": 749,
		"stimulus": "../audio/47-4-masc.mp3",
		"response": " ",
		"word": "a",
		"trial_type": "audio-keyboard-response",
		"trial_index": 398,
		"time_elapsed": 787468,
		"internal_node_id": "0.0-3.0-1.327"
	},
	{
		"rt": 1269,
		"stimulus": "../audio/47-5-masc.mp3",
		"response": " ",
		"word": "sobremesa",
		"trial_type": "audio-keyboard-response",
		"trial_index": 399,
		"time_elapsed": 789020,
		"internal_node_id": "0.0-3.0-1.328"
	},
	{
		"rt": 880,
		"stimulus": "../audio/47-6-masc.mp3",
		"response": " ",
		"word": "no",
		"trial_type": "audio-keyboard-response",
		"trial_index": 400,
		"time_elapsed": 790172,
		"internal_node_id": "0.0-3.0-1.329"
	},
	{
		"rt": 1069,
		"stimulus": "../audio/47-7-masc.mp3",
		"response": " ",
		"word": "almoço.",
		"trial_type": "audio-keyboard-response",
		"trial_index": 401,
		"time_elapsed": 791516,
		"internal_node_id": "0.0-3.0-1.330"
	},
	{
		"rt": null,
		"stimulus": "<span style= \"font-size:30px; font-family: monospace\">+</span>",
		"response": null,
		"trial_part": "fixation",
		"trial_type": "html-keyboard-response",
		"trial_index": 402,
		"time_elapsed": 792794,
		"internal_node_id": "0.0-3.0-0.331-0.331"
	},
	{
		"rt": 720,
		"stimulus": "../audio/46-1-masc.mp3",
		"response": " ",
		"word": "Meu",
		"trial_type": "audio-keyboard-response",
		"trial_index": 403,
		"time_elapsed": 793804,
		"internal_node_id": "0.0-3.0-1.331"
	},
	{
		"rt": 891,
		"stimulus": "../audio/46-2-masc.mp3",
		"response": " ",
		"word": "primo",
		"trial_type": "audio-keyboard-response",
		"trial_index": 404,
		"time_elapsed": 794972,
		"internal_node_id": "0.0-3.0-1.332"
	},
	{
		"rt": 1011,
		"stimulus": "../audio/46-3-masc.mp3",
		"response": " ",
		"word": "estava",
		"trial_type": "audio-keyboard-response",
		"trial_index": 405,
		"time_elapsed": 796252,
		"internal_node_id": "0.0-3.0-1.333"
	},
	{
		"rt": 1029,
		"stimulus": "../audio/46-4-masc.mp3",
		"response": " ",
		"word": "muito",
		"trial_type": "audio-keyboard-response",
		"trial_index": 406,
		"time_elapsed": 797547,
		"internal_node_id": "0.0-3.0-1.334"
	},
	{
		"rt": 1011,
		"stimulus": "../audio/46-5-masc.mp3",
		"response": " ",
		"word": "deprimido",
		"trial_type": "audio-keyboard-response",
		"trial_index": 407,
		"time_elapsed": 798827,
		"internal_node_id": "0.0-3.0-1.335"
	},
	{
		"rt": 811,
		"stimulus": "../audio/46-6-masc.mp3",
		"response": " ",
		"word": "no",
		"trial_type": "audio-keyboard-response",
		"trial_index": 408,
		"time_elapsed": 799915,
		"internal_node_id": "0.0-3.0-1.336"
	},
	{
		"rt": 971,
		"stimulus": "../audio/46-7-masc.mp3",
		"response": " ",
		"word": "inverno.",
		"trial_type": "audio-keyboard-response",
		"trial_index": 409,
		"time_elapsed": 801164,
		"internal_node_id": "0.0-3.0-1.337"
	},
	{
		"rt": null,
		"stimulus": "<span style= \"font-size:30px; font-family: monospace\">+</span>",
		"response": null,
		"trial_part": "fixation",
		"trial_type": "html-keyboard-response",
		"trial_index": 410,
		"time_elapsed": 802423,
		"internal_node_id": "0.0-3.0-0.338-0.338"
	},
	{
		"rt": 672,
		"stimulus": "../audio/50-1-fem.mp3",
		"response": " ",
		"word": "O",
		"trial_type": "audio-keyboard-response",
		"trial_index": 411,
		"time_elapsed": 803372,
		"internal_node_id": "0.0-3.0-1.338"
	},
	{
		"rt": 1128,
		"stimulus": "../audio/50-2-fem.mp3",
		"response": " ",
		"word": "pássaro",
		"trial_type": "audio-keyboard-response",
		"trial_index": 412,
		"time_elapsed": 804779,
		"internal_node_id": "0.0-3.0-1.339"
	},
	{
		"rt": 800,
		"stimulus": "../audio/50-3-fem.mp3",
		"response": " ",
		"word": "fugiu",
		"trial_type": "audio-keyboard-response",
		"trial_index": 413,
		"time_elapsed": 805868,
		"internal_node_id": "0.0-3.0-1.340"
	},
	{
		"rt": 752,
		"stimulus": "../audio/50-4-fem.mp3",
		"response": " ",
		"word": "da",
		"trial_type": "audio-keyboard-response",
		"trial_index": 414,
		"time_elapsed": 806892,
		"internal_node_id": "0.0-3.0-1.341"
	},
	{
		"rt": 1059,
		"stimulus": "../audio/50-5-fem.mp3",
		"response": " ",
		"word": "gaiola",
		"trial_type": "audio-keyboard-response",
		"trial_index": 415,
		"time_elapsed": 808220,
		"internal_node_id": "0.0-3.0-1.342"
	},
	{
		"rt": 859,
		"stimulus": "../audio/50-6-fem.mp3",
		"response": " ",
		"word": "pela",
		"trial_type": "audio-keyboard-response",
		"trial_index": 416,
		"time_elapsed": 809340,
		"internal_node_id": "0.0-3.0-1.343"
	},
	{
		"rt": 1499,
		"stimulus": "../audio/50-7-fem.mp3",
		"response": " ",
		"word": "portinhola.",
		"trial_type": "audio-keyboard-response",
		"trial_index": 417,
		"time_elapsed": 811116,
		"internal_node_id": "0.0-3.0-1.344"
	},
	{
		"rt": 9678,
		"stimulus": "<span style=\"font-size:25px; font-family: monospace\">O pássaro fugiu da gaiola?</span>",
		"response": "s",
		"question": "O pássaro fugiu da gaiola?",
		"answer": "null",
		"trial": "exp-sent",
		"trial_type": "html-keyboard-response",
		"trial_index": 418,
		"time_elapsed": 821052,
		"internal_node_id": "0.0-3.0-2.344-0.344",
		"accuracy": false
	},
	{
		"rt": null,
		"stimulus": "<span style= \"font-size:30px; font-family: monospace\">+</span>",
		"response": null,
		"trial_part": "fixation",
		"trial_type": "html-keyboard-response",
		"trial_index": 419,
		"time_elapsed": 822566,
		"internal_node_id": "0.0-3.0-0.345-0.345"
	},
	{
		"rt": 659,
		"stimulus": "../audio/03-1-masc.mp3",
		"response": " ",
		"word": "O",
		"trial_type": "audio-keyboard-response",
		"trial_index": 420,
		"time_elapsed": 823515,
		"internal_node_id": "0.0-3.0-1.345"
	},
	{
		"rt": 840,
		"stimulus": "../audio/03-2-masc.mp3",
		"response": " ",
		"word": "coelho",
		"trial_type": "audio-keyboard-response",
