"view_history","rt","trial_type","trial_index","time_elapsed","internal_node_id","stimulus","response","trial_part","trial","word","question","answer","accuracy"
"[{""page_index"":0,""viewing_time"":4848},{""page_index"":1,""viewing_time"":1800}]","6649","instructions","0","6650","0.0-0.0","","","","","","","",""
"","null","html-keyboard-response","1","7772","0.0-1.0-0.0-0.0","<span style= ""font-size:30px; font-family: monospace"">+</span>","null","fixation","","","","",""
"","6683","html-keyboard-response","2","14720","0.0-1.0-1.0","<span style=""font-size:30px; font-family: monospace"">O</span>"," ","","prac-sent","O","","",""
"","2073","html-keyboard-response","3","17056","0.0-1.0-1.1","<span style=""font-size:30px; font-family: monospace"">dia</span>"," ","","prac-sent","dia","","",""
"","2992","html-keyboard-response","4","20304","0.0-1.0-1.2","<span style=""font-size:30px; font-family: monospace"">estará</span>"," ","","prac-sent","estará","","",""
"","2018","html-keyboard-response","5","22577","0.0-1.0-1.3","<span style=""font-size:30px; font-family: monospace"">cheio</span>"," ","","prac-sent","cheio","","",""
"","1610","html-keyboard-response","6","24449","0.0-1.0-1.4","<span style=""font-size:30px; font-family: monospace"">de</span>"," ","","prac-sent","de","","",""
"","2273","html-keyboard-response","7","26976","0.0-1.0-1.5","<span style=""font-size:30px; font-family: monospace"">nuvens</span>"," ","","prac-sent","nuvens","","",""
"","920","html-keyboard-response","8","28160","0.0-1.0-1.6","<span style=""font-size:30px; font-family: monospace"">hoje.</span>"," ","","prac-sent","hoje.","","",""
"","null","html-keyboard-response","9","29414","0.0-1.0-0.7-0.7","<span style= ""font-size:30px; font-family: monospace"">+</span>","null","fixation","","","","",""
"","10208","html-keyboard-response","10","39873","0.0-1.0-1.7","<span style=""font-size:30px; font-family: monospace"">A</span>"," ","","prac-sent","A","","",""
"","4693","html-keyboard-response","11","44816","0.0-1.0-1.8","<span style=""font-size:30px; font-family: monospace"">caneca</span>"," ","","prac-sent","caneca","","",""
"","2666","html-keyboard-response","12","47744","0.0-1.0-1.9","<span style=""font-size:30px; font-family: monospace"">colorida</span>"," ","","prac-sent","colorida","","",""
"","2485","html-keyboard-response","13","50480","0.0-1.0-1.10","<span style=""font-size:30px; font-family: monospace"">caiu</span>"," ","","prac-sent","caiu","","",""
"","1413","html-keyboard-response","14","52144","0.0-1.0-1.11","<span style=""font-size:30px; font-family: monospace"">da</span>"," ","","prac-sent","da","","",""
"","1989","html-keyboard-response","15","54384","0.0-1.0-1.12","<span style=""font-size:30px; font-family: monospace"">mesa</span>"," ","","prac-sent","mesa","","",""
"","716","html-keyboard-response","16","55360","0.0-1.0-1.13","<span style=""font-size:30px; font-family: monospace"">de</span>"," ","","prac-sent","de","","",""
"","1478","html-keyboard-response","17","57089","0.0-1.0-1.14","<span style=""font-size:30px; font-family: monospace"">jantar.</span>"," ","","prac-comp","jantar.","","",""
"","15909","html-keyboard-response","18","73249","0.0-1.0-2.14-0.14","<span style=""font-size:30px; font-family: monospace"">A caneca permaneceu na mesa?</span>","n","","prac-comp","","A caneca permaneceu na mesa?","não","false"
"[{""page_index"":0,""viewing_time"":5627}]","5627","instructions","19","79377","0.0-2.0","","","","","","","",""
"","null","html-keyboard-response","20","80480","0.0-3.0-0.0-0.0","<span style= ""font-size:30px; font-family: monospace"">+</span>","null","fixation","","","","",""
"","3343","html-keyboard-response","21","84081","0.0-3.0-1.0","<span style=""font-size:30px; font-family: monospace"">Preciso</span>"," ","","exp-sent","Preciso","","",""
"","805","html-keyboard-response","22","85137","0.0-3.0-1.1","<span style=""font-size:30px; font-family: monospace"">de</span>"," ","","exp-sent","de","","",""
"","917","html-keyboard-response","23","86305","0.0-3.0-1.2","<span style=""font-size:30px; font-family: monospace"">um</span>"," ","","exp-sent","um","","",""
"","2469","html-keyboard-response","24","89025","0.0-3.0-1.3","<span style=""font-size:30px; font-family: monospace"">relatório</span>"," ","","exp-sent","relatório","","",""
"","1765","html-keyboard-response","25","91041","0.0-3.0-1.4","<span style=""font-size:30px; font-family: monospace"">oficial</span>"," ","","exp-sent","oficial","","",""
"","836","html-keyboard-response","26","92129","0.0-3.0-1.5","<span style=""font-size:30px; font-family: monospace"">para</span>"," ","","exp-sent","para","","",""
"","2470","html-keyboard-response","27","94849","0.0-3.0-1.6","<span style=""font-size:30px; font-family: monospace"">amanhã.</span>"," ","","exp-sent","amanhã.","","",""
"","null","html-keyboard-response","28","96102","0.0-3.0-0.7-0.7","<span style= ""font-size:30px; font-family: monospace"">+</span>","null","fixation","","","","",""
"","2383","html-keyboard-response","29","98737","0.0-3.0-1.7","<span style=""font-size:30px; font-family: monospace"">Ele</span>"," ","","exp-sent","Ele","","",""
"","1300","html-keyboard-response","30","100289","0.0-3.0-1.8","<span style=""font-size:30px; font-family: monospace"">viu</span>"," ","","exp-sent","viu","","",""
"","853","html-keyboard-response","31","101393","0.0-3.0-1.9","<span style=""font-size:30px; font-family: monospace"">um</span>"," ","","exp-sent","um","","",""
"","1989","html-keyboard-response","32","103633","0.0-3.0-1.10","<span style=""font-size:30px; font-family: monospace"">inseto</span>"," ","","exp-sent","inseto","","",""
"","1861","html-keyboard-response","33","105745","0.0-3.0-1.11","<span style=""font-size:30px; font-family: monospace"">marrom</span>"," ","","exp-sent","marrom","","",""
"","741","html-keyboard-response","34","106737","0.0-3.0-1.12","<span style=""font-size:30px; font-family: monospace"">na</span>"," ","","exp-sent","na","","",""
"","1636","html-keyboard-response","35","108625","0.0-3.0-1.13","<span style=""font-size:30px; font-family: monospace"">parede.</span>"," ","","exp-sent","parede.","","",""
"","null","html-keyboard-response","36","109877","0.0-3.0-0.14-0.14","<span style= ""font-size:30px; font-family: monospace"">+</span>","null","fixation","","","","",""
"","1217","html-keyboard-response","37","111345","0.0-3.0-1.14","<span style=""font-size:30px; font-family: monospace"">O</span>"," ","","exp-sent","O","","",""
"","1413","html-keyboard-response","38","113009","0.0-3.0-1.15","<span style=""font-size:30px; font-family: monospace"">avô</span>"," ","","exp-sent","avô","","",""
"","1637","html-keyboard-response","39","114897","0.0-3.0-1.16","<span style=""font-size:30px; font-family: monospace"">fez</span>"," ","","exp-sent","fez","","",""
"","1076","html-keyboard-response","40","116225","0.0-3.0-1.17","<span style=""font-size:30px; font-family: monospace"">uma</span>"," ","","exp-sent","uma","","",""
"","1524","html-keyboard-response","41","118001","0.0-3.0-1.18","<span style=""font-size:30px; font-family: monospace"">lista</span>"," ","","exp-sent","lista","","",""
"","885","html-keyboard-response","42","119137","0.0-3.0-1.19","<span style=""font-size:30px; font-family: monospace"">de</span>"," ","","exp-sent","de","","",""
"","2532","html-keyboard-response","43","121921","0.0-3.0-1.20","<span style=""font-size:30px; font-family: monospace"">compras</span>"," ","","exp-sent","compras","","",""
"","1109","html-keyboard-response","44","123281","0.0-3.0-1.21","<span style=""font-size:30px; font-family: monospace"">do</span>"," ","","exp-sent","do","","",""
"","2293","html-keyboard-response","45","125825","0.0-3.0-1.22","<span style=""font-size:30px; font-family: monospace"">mercado.</span>"," ","","exp-sent","mercado.","","",""
"","null","html-keyboard-response","46","127077","0.0-3.0-0.23-0.23","<span style= ""font-size:30px; font-family: monospace"">+</span>","null","fixation","","","","",""
"","1233","html-keyboard-response","47","128561","0.0-3.0-1.23","<span style=""font-size:30px; font-family: monospace"">As</span>"," ","","exp-sent","As","","",""
"","1733","html-keyboard-response","48","130545","0.0-3.0-1.24","<span style=""font-size:30px; font-family: monospace"">pessoas</span>"," ","","exp-sent","pessoas","","",""
"","645","html-keyboard-response","49","131441","0.0-3.0-1.25","<span style=""font-size:30px; font-family: monospace"">não</span>"," ","","exp-sent","não","","",""
"","4997","html-keyboard-response","50","136689","0.0-3.0-1.26","<span style=""font-size:30px; font-family: monospace"">enviam</span>"," ","","exp-sent","enviam","","",""
"","2031","html-keyboard-response","51","138977","0.0-3.0-1.27","<span style=""font-size:30px; font-family: monospace"">telegrama</span>"," ","","exp-sent","telegrama","","",""
"","708","html-keyboard-response","52","139937","0.0-3.0-1.28","<span style=""font-size:30px; font-family: monospace"">nos</span>"," ","","exp-sent","nos","","",""
"","916","html-keyboard-response","53","141105","0.0-3.0-1.29","<span style=""font-size:30px; font-family: monospace"">dias</span>"," ","","exp-sent","dias","","",""
"","740","html-keyboard-response","54","142097","0.0-3.0-1.30","<span style=""font-size:30px; font-family: monospace"">de</span>"," ","","exp-sent","de","","",""
"","820","html-keyboard-response","55","143168","0.0-3.0-1.31","<span style=""font-size:30px; font-family: monospace"">hoje.</span>"," ","","exp-sent","hoje.","","",""
"","null","html-keyboard-response","56","144422","0.0-3.0-0.32-0.32","<span style= ""font-size:30px; font-family: monospace"">+</span>","null","fixation","","","","",""
"","1296","html-keyboard-response","57","145969","0.0-3.0-1.32","<span style=""font-size:30px; font-family: monospace"">Ele</span>"," ","","exp-sent","Ele","","",""
"","917","html-keyboard-response","58","147137","0.0-3.0-1.33","<span style=""font-size:30px; font-family: monospace"">não</span>"," ","","exp-sent","não","","",""
"","1397","html-keyboard-response","59","148785","0.0-3.0-1.34","<span style=""font-size:30px; font-family: monospace"">gosta</span>"," ","","exp-sent","gosta","","",""
"","645","html-keyboard-response","60","149681","0.0-3.0-1.35","<span style=""font-size:30px; font-family: monospace"">de</span>"," ","","exp-sent","de","","",""
"","1461","html-keyboard-response","61","151393","0.0-3.0-1.36","<span style=""font-size:30px; font-family: monospace"">tomate</span>"," ","","exp-sent","tomate","","",""
"","3064","html-keyboard-response","62","154720","0.0-3.0-1.37","<span style=""font-size:30px; font-family: monospace"">misturado</span>"," ","","exp-sent","misturado","","",""
"","709","html-keyboard-response","63","155680","0.0-3.0-1.38","<span style=""font-size:30px; font-family: monospace"">na</span>"," ","","exp-sent","na","","",""
"","921","html-keyboard-response","64","156865","0.0-3.0-1.39","<span style=""font-size:30px; font-family: monospace"">comida.</span>"," ","","comp","comida.","","",""
"","24182","html-keyboard-response","65","181297","0.0-3.0-2.39-0.39","<span style=""font-size:30px; font-family: monospace"">Ele gosta de tomate na comida?</span>","s","","comp","","Ele gosta de tomate na comida?","não","false"
"","null","html-keyboard-response","66","182799","0.0-3.0-0.40-0.40","<span style= ""font-size:30px; font-family: monospace"">+</span>","null","fixation","","","","",""
"","1831","html-keyboard-response","67","184881","0.0-3.0-1.40","<span style=""font-size:30px; font-family: monospace"">Minha</span>"," ","","exp-sent","Minha","","",""
"","1076","html-keyboard-response","68","186208","0.0-3.0-1.41","<span style=""font-size:30px; font-family: monospace"">prima</span>"," ","","exp-sent","prima","","",""
"","2053","html-keyboard-response","69","188513","0.0-3.0-1.42","<span style=""font-size:30px; font-family: monospace"">trocou</span>"," ","","exp-sent","trocou","","",""
"","933","html-keyboard-response","70","189697","0.0-3.0-1.43","<span style=""font-size:30px; font-family: monospace"">a</span>"," ","","exp-sent","a","","",""
"","1349","html-keyboard-response","71","191296","0.0-3.0-1.44","<span style=""font-size:30px; font-family: monospace"">tela</span>"," ","","exp-sent","tela","","",""
"","668","html-keyboard-response","72","192225","0.0-3.0-1.45","<span style=""font-size:30px; font-family: monospace"">do</span>"," ","","exp-sent","do","","",""
"","1812","html-keyboard-response","73","194288","0.0-3.0-1.46","<span style=""font-size:30px; font-family: monospace"">celular</span>"," ","","exp-sent","celular","","",""
"","1653","html-keyboard-response","74","196192","0.0-3.0-1.47","<span style=""font-size:30px; font-family: monospace"">duas</span>"," ","","exp-sent","duas","","",""
"","1557","html-keyboard-response","75","198001","0.0-3.0-1.48","<span style=""font-size:30px; font-family: monospace"">vezes.</span>"," ","","exp-sent","vezes.","","",""
"","null","html-keyboard-response","76","199252","0.0-3.0-0.49-0.49","<span style= ""font-size:30px; font-family: monospace"">+</span>","null","fixation","","","","",""
"","1282","html-keyboard-response","77","200785","0.0-3.0-1.49","<span style=""font-size:30px; font-family: monospace"">Agora</span>"," ","","exp-sent","Agora","","",""
"","1269","html-keyboard-response","78","202305","0.0-3.0-1.50","<span style=""font-size:30px; font-family: monospace"">a</span>"," ","","exp-sent","a","","",""
"","917","html-keyboard-response","79","203472","0.0-3.0-1.51","<span style=""font-size:30px; font-family: monospace"">minha</span>"," ","","exp-sent","minha","","",""
"","1765","html-keyboard-response","80","205488","0.0-3.0-1.52","<span style=""font-size:30px; font-family: monospace"">única</span>"," ","","exp-sent","única","","",""
"","3909","html-keyboard-response","81","209649","0.0-3.0-1.53","<span style=""font-size:30px; font-family: monospace"">preocupação</span>"," ","","exp-sent","preocupação","","",""
"","1252","html-keyboard-response","82","211152","0.0-3.0-1.54","<span style=""font-size:30px; font-family: monospace"">é</span>"," ","","exp-sent","é","","",""
"","853","html-keyboard-response","83","212256","0.0-3.0-1.55","<span style=""font-size:30px; font-family: monospace"">um</span>"," ","","exp-sent","um","","",""
"","2261","html-keyboard-response","84","214769","0.0-3.0-1.56","<span style=""font-size:30px; font-family: monospace"">descanso</span>"," ","","exp-sent","descanso","","",""
"","1461","html-keyboard-response","85","216481","0.0-3.0-1.57","<span style=""font-size:30px; font-family: monospace"">tranquilo.</span>"," ","","exp-sent","tranquilo.","","",""
"","null","html-keyboard-response","86","217732","0.0-3.0-0.58-0.58","<span style= ""font-size:30px; font-family: monospace"">+</span>","null","fixation","","","","",""
"","1041","html-keyboard-response","87","219024","0.0-3.0-1.58","<span style=""font-size:30px; font-family: monospace"">A</span>"," ","","exp-sent","A","","",""
"","2597","html-keyboard-response","88","221872","0.0-3.0-1.59","<span style=""font-size:30px; font-family: monospace"">criança</span>"," ","","exp-sent","criança","","",""
"","1109","html-keyboard-response","89","223232","0.0-3.0-1.60","<span style=""font-size:30px; font-family: monospace"">ganhou</span>"," ","","exp-sent","ganhou","","",""
"","516","html-keyboard-response","90","224000","0.0-3.0-1.61","<span style=""font-size:30px; font-family: monospace"">um</span>"," ","","exp-sent","um","","",""
"","1109","html-keyboard-response","91","225361","0.0-3.0-1.62","<span style=""font-size:30px; font-family: monospace"">presente</span>"," ","","exp-sent","presente","","",""
"","3492","html-keyboard-response","92","229105","0.0-3.0-1.63","<span style=""font-size:30px; font-family: monospace"">maravilhoso.</span>"," ","","exp-sent","maravilhoso.","","",""
"","null","html-keyboard-response","93","230357","0.0-3.0-0.64-0.64","<span style= ""font-size:30px; font-family: monospace"">+</span>","null","fixation","","","","",""
"","1552","html-keyboard-response","94","232161","0.0-3.0-1.64","<span style=""font-size:30px; font-family: monospace"">Os</span>"," ","","exp-sent","Os","","",""
"","2165","html-keyboard-response","95","234576","0.0-3.0-1.65","<span style=""font-size:30px; font-family: monospace"">bichos</span>"," ","","exp-sent","bichos","","",""
"","1093","html-keyboard-response","96","235921","0.0-3.0-1.66","<span style=""font-size:30px; font-family: monospace"">têm</span>"," ","","exp-sent","têm","","",""
"","741","html-keyboard-response","97","236912","0.0-3.0-1.67","<span style=""font-size:30px; font-family: monospace"">um</span>"," ","","exp-sent","um","","",""
"","2230","html-keyboard-response","98","239393","0.0-3.0-1.68","<span style=""font-size:30px; font-family: monospace"">instinto</span>"," ","","exp-sent","instinto","","",""
"","708","html-keyboard-response","99","240352","0.0-3.0-1.69","<span style=""font-size:30px; font-family: monospace"">de</span>"," ","","exp-sent","de","","",""
"","5189","html-keyboard-response","100","245792","0.0-3.0-1.70","<span style=""font-size:30px; font-family: monospace"">sobrevivência</span>"," ","","exp-sent","sobrevivência","","",""
"","1125","html-keyboard-response","101","247168","0.0-3.0-1.71","<span style=""font-size:30px; font-family: monospace"">forte.</span>"," ","","exp-sent","forte.","","",""
"","null","html-keyboard-response","102","248420","0.0-3.0-0.72-0.72","<span style= ""font-size:30px; font-family: monospace"">+</span>","null","fixation","","","","",""
"","3041","html-keyboard-response","103","251712","0.0-3.0-1.72","<span style=""font-size:30px; font-family: monospace"">Aquele</span>"," ","","exp-sent","Aquele","","",""
"","3637","html-keyboard-response","104","255600","0.0-3.0-1.73","<span style=""font-size:30px; font-family: monospace"">menino</span>"," ","","exp-sent","menino","","",""
"","1798","html-keyboard-response","105","257648","0.0-3.0-1.74","<span style=""font-size:30px; font-family: monospace"">alto</span>"," ","","exp-sent","alto","","",""
"","2165","html-keyboard-response","106","260064","0.0-3.0-1.75","<span style=""font-size:30px; font-family: monospace"">é</span>"," ","","exp-sent","é","","",""
"","2565","html-keyboard-response","107","262880","0.0-3.0-1.76","<span style=""font-size:30px; font-family: monospace"">exibido</span>"," ","","exp-sent","exibido","","",""
"","773","html-keyboard-response","108","263904","0.0-3.0-1.77","<span style=""font-size:30px; font-family: monospace"">e</span>"," ","","exp-sent","e","","",""
"","1637","html-keyboard-response","109","265792","0.0-3.0-1.78","<span style=""font-size:30px; font-family: monospace"">sovina.</span>"," ","","comp","sovina.","","",""
"","11413","html-keyboard-response","110","277456","0.0-3.0-2.78-0.78","<span style=""font-size:30px; font-family: monospace"">Aquele menino é humilde?</span>","n","","comp","","Aquele menino é humilde?","não","false"
"","null","html-keyboard-response","111","278972","0.0-3.0-0.79-0.79","<span style= ""font-size:30px; font-family: monospace"">+</span>","null","fixation","","","","",""
"","1657","html-keyboard-response","112","280880","0.0-3.0-1.79","<span style=""font-size:30px; font-family: monospace"">O</span>"," ","","exp-sent","O","","",""
"","2117","html-keyboard-response","113","283248","0.0-3.0-1.80","<span style=""font-size:30px; font-family: monospace"">travesseiro</span>"," ","","exp-sent","travesseiro","","",""
"","1300","html-keyboard-response","114","284800","0.0-3.0-1.81","<span style=""font-size:30px; font-family: monospace"">era</span>"," ","","exp-sent","era","","",""
"","1608","html-keyboard-response","115","286672","0.0-3.0-1.82","<span style=""font-size:30px; font-family: monospace"">muito</span>"," ","","exp-sent","muito","","",""
"","3141","html-keyboard-response","116","290064","0.0-3.0-1.83","<span style=""font-size:30px; font-family: monospace"">macio</span>"," ","","exp-sent","macio","","",""
"","532","html-keyboard-response","117","290848","0.0-3.0-1.84","<span style=""font-size:30px; font-family: monospace"">e</span>"," ","","exp-sent","e","","",""
"","2741","html-keyboard-response","118","293840","0.0-3.0-1.85","<span style=""font-size:30px; font-family: monospace"">confortável.</span>"," ","","exp-sent","confortável.","","",""
"","null","html-keyboard-response","119","295092","0.0-3.0-0.86-0.86","<span style= ""font-size:30px; font-family: monospace"">+</span>","null","fixation","","","","",""
"","929","html-keyboard-response","120","296272","0.0-3.0-1.86","<span style=""font-size:30px; font-family: monospace"">Hoje</span>"," ","","exp-sent","Hoje","","",""
"","1685","html-keyboard-response","121","298208","0.0-3.0-1.87","<span style=""font-size:30px; font-family: monospace"">a</span>"," ","","exp-sent","a","","",""
"","933","html-keyboard-response","122","299392","0.0-3.0-1.88","<span style=""font-size:30px; font-family: monospace"">atendente</span>"," ","","exp-sent","atendente","","",""
"","725","html-keyboard-response","123","300368","0.0-3.0-1.89","<span style=""font-size:30px; font-family: monospace"">estava</span>"," ","","exp-sent","estava","","",""
"","1205","html-keyboard-response","124","301824","0.0-3.0-1.90","<span style=""font-size:30px; font-family: monospace"">furiosa</span>"," ","","exp-sent","furiosa","","",""
"","564","html-keyboard-response","125","302640","0.0-3.0-1.91","<span style=""font-size:30px; font-family: monospace"">com</span>"," ","","exp-sent","com","","",""
"","448","html-keyboard-response","126","303344","0.0-3.0-1.92","<span style=""font-size:30px; font-family: monospace"">o</span>"," ","","exp-sent","o","","",""
"","1061","html-keyboard-response","127","304656","0.0-3.0-1.93","<span style=""font-size:30px; font-family: monospace"">cliente.</span>"," ","","exp-sent","cliente.","","",""
"","null","html-keyboard-response","128","305914","0.0-3.0-0.94-0.94","<span style= ""font-size:30px; font-family: monospace"">+</span>","null","fixation","","","","",""
"","491","html-keyboard-response","129","306656","0.0-3.0-1.94","<span style=""font-size:30px; font-family: monospace"">O</span>"," ","","exp-sent","O","","",""
"","885","html-keyboard-response","130","307792","0.0-3.0-1.95","<span style=""font-size:30px; font-family: monospace"">vizinho</span>"," ","","exp-sent","vizinho","","",""
"","485","html-keyboard-response","131","308528","0.0-3.0-1.96","<span style=""font-size:30px; font-family: monospace"">é</span>"," ","","exp-sent","é","","",""
"","577","html-keyboard-response","132","309360","0.0-3.0-1.97","<span style=""font-size:30px; font-family: monospace"">um</span>"," ","","exp-sent","um","","",""
"","1701","html-keyboard-response","133","311312","0.0-3.0-1.98","<span style=""font-size:30px; font-family: monospace"">arquiteto</span>"," ","","exp-sent","arquiteto","","",""
"","725","html-keyboard-response","134","312288","0.0-3.0-1.99","<span style=""font-size:30px; font-family: monospace"">muito</span>"," ","","exp-sent","muito","","",""
"","2325","html-keyboard-response","135","314864","0.0-3.0-1.100","<span style=""font-size:30px; font-family: monospace"">excêntrico.</span>"," ","","exp-sent","excêntrico.","","",""
"","null","html-keyboard-response","136","316116","0.0-3.0-0.101-0.101","<span style= ""font-size:30px; font-family: monospace"">+</span>","null","fixation","","","","",""
"","401","html-keyboard-response","137","316768","0.0-3.0-1.101","<span style=""font-size:30px; font-family: monospace"">A</span>"," ","","exp-sent","A","","",""
"","820","html-keyboard-response","138","317840","0.0-3.0-1.102","<span style=""font-size:30px; font-family: monospace"">nossa</span>"," ","","exp-sent","nossa","","",""
"","1029","html-keyboard-response","139","319120","0.0-3.0-1.103","<span style=""font-size:30px; font-family: monospace"">colega</span>"," ","","exp-sent","colega","","",""
"","645","html-keyboard-response","140","320016","0.0-3.0-1.104","<span style=""font-size:30px; font-family: monospace"">foi</span>"," ","","exp-sent","foi","","",""
"","629","html-keyboard-response","141","320896","0.0-3.0-1.105","<span style=""font-size:30px; font-family: monospace"">má</span>"," ","","exp-sent","má","","",""
"","533","html-keyboard-response","142","321680","0.0-3.0-1.106","<span style=""font-size:30px; font-family: monospace"">com</span>"," ","","exp-sent","com","","",""
"","597","html-keyboard-response","143","322528","0.0-3.0-1.107","<span style=""font-size:30px; font-family: monospace"">as</span>"," ","","exp-sent","as","","",""
"","1445","html-keyboard-response","144","324224","0.0-3.0-1.108","<span style=""font-size:30px; font-family: monospace"">crianças.</span>"," ","","exp-sent","crianças.","","",""
"","null","html-keyboard-response","145","325477","0.0-3.0-0.109-0.109","<span style= ""font-size:30px; font-family: monospace"">+</span>","null","fixation","","","","",""
"","1392","html-keyboard-response","146","327120","0.0-3.0-1.109","<span style=""font-size:30px; font-family: monospace"">Virtudes</span>"," ","","exp-sent","Virtudes","","",""
"","582","html-keyboard-response","147","327952","0.0-3.0-1.110","<span style=""font-size:30px; font-family: monospace"">não</span>"," ","","exp-sent","não","","",""
"","757","html-keyboard-response","148","328960","0.0-3.0-1.111","<span style=""font-size:30px; font-family: monospace"">são</span>"," ","","exp-sent","são","","",""
"","2165","html-keyboard-response","149","331376","0.0-3.0-1.112","<span style=""font-size:30px; font-family: monospace"">preguiça,</span>"," ","","exp-sent","preguiça,","","",""
"","901","html-keyboard-response","150","332528","0.0-3.0-1.113","<span style=""font-size:30px; font-family: monospace"">gula</span>"," ","","exp-sent","gula","","",""
"","885","html-keyboard-response","151","333664","0.0-3.0-1.114","<span style=""font-size:30px; font-family: monospace"">nem</span>"," ","","exp-sent","nem","","",""
"","2549","html-keyboard-response","152","336464","0.0-3.0-1.115","<span style=""font-size:30px; font-family: monospace"">ganância.</span>"," ","","comp","ganância.","","",""
"","4084","html-keyboard-response","153","340800","0.0-3.0-2.115-0.115","<span style=""font-size:30px; font-family: monospace"">Preguiça é uma virtude?</span>","s","","comp","","Preguiça é uma virtude?","não","false"
"","null","html-keyboard-response","154","342309","0.0-3.0-0.116-0.116","<span style= ""font-size:30px; font-family: monospace"">+</span>","null","fixation","","","","",""
"","1","html-keyboard-response","155","342561","0.0-3.0-1.116","<span style=""font-size:30px; font-family: monospace"">As</span>"," ","","exp-sent","As","","",""
"","1092","html-keyboard-response","156","343904","0.0-3.0-1.117","<span style=""font-size:30px; font-family: monospace"">crianças</span>"," ","","exp-sent","crianças","","",""
"","709","html-keyboard-response","157","344864","0.0-3.0-1.118","<span style=""font-size:30px; font-family: monospace"">viram</span>"," ","","exp-sent","viram","","",""
"","597","html-keyboard-response","158","345712","0.0-3.0-1.119","<span style=""font-size:30px; font-family: monospace"">um</span>"," ","","exp-sent","um","","",""
"","1748","html-keyboard-response","159","347712","0.0-3.0-1.120","<span style=""font-size:30px; font-family: monospace"">vaga-lume</span>"," ","","exp-sent","vaga-lume","","",""
"","628","html-keyboard-response","160","348592","0.0-3.0-1.121","<span style=""font-size:30px; font-family: monospace"">nos</span>"," ","","exp-sent","nos","","",""
"","1717","html-keyboard-response","161","350560","0.0-3.0-1.122","<span style=""font-size:30px; font-family: monospace"">arbustos.</span>"," ","","exp-sent","arbustos.","","",""
"","null","html-keyboard-response","162","351813","0.0-3.0-0.123-0.123","<span style= ""font-size:30px; font-family: monospace"">+</span>","null","fixation","","","","",""
"","704","html-keyboard-response","163","352768","0.0-3.0-1.123","<span style=""font-size:30px; font-family: monospace"">Ontem</span>"," ","","exp-sent","Ontem","","",""
"","788","html-keyboard-response","164","353808","0.0-3.0-1.124","<span style=""font-size:30px; font-family: monospace"">o</span>"," ","","exp-sent","o","","",""
"","1077","html-keyboard-response","165","355136","0.0-3.0-1.125","<span style=""font-size:30px; font-family: monospace"">funcionário</span>"," ","","exp-sent","funcionário","","",""
"","1061","html-keyboard-response","166","356448","0.0-3.0-1.126","<span style=""font-size:30px; font-family: monospace"">pediu</span>"," ","","exp-sent","pediu","","",""
"","1125","html-keyboard-response","167","357824","0.0-3.0-1.127","<span style=""font-size:30px; font-family: monospace"">autorização</span>"," ","","exp-sent","autorização","","",""
"","740","html-keyboard-response","168","358816","0.0-3.0-1.128","<span style=""font-size:30px; font-family: monospace"">para</span>"," ","","exp-sent","para","","",""
"","613","html-keyboard-response","169","359680","0.0-3.0-1.129","<span style=""font-size:30px; font-family: monospace"">a</span>"," ","","exp-sent","a","","",""
"","1525","html-keyboard-response","170","361456","0.0-3.0-1.130","<span style=""font-size:30px; font-family: monospace"">colega.</span>"," ","","exp-sent","colega.","","",""
"","null","html-keyboard-response","171","362707","0.0-3.0-0.131-0.131","<span style= ""font-size:30px; font-family: monospace"">+</span>","null","fixation","","","","",""
"","482","html-keyboard-response","172","363440","0.0-3.0-1.131","<span style=""font-size:30px; font-family: monospace"">Eu</span>"," ","","exp-sent","Eu","","",""
"","756","html-keyboard-response","173","364448","0.0-3.0-1.132","<span style=""font-size:30px; font-family: monospace"">sempre</span>"," ","","exp-sent","sempre","","",""
"","421","html-keyboard-response","174","365120","0.0-3.0-1.133","<span style=""font-size:30px; font-family: monospace"">fujo</span>"," ","","exp-sent","fujo","","",""
"","725","html-keyboard-response","175","366096","0.0-3.0-1.134","<span style=""font-size:30px; font-family: monospace"">de</span>"," ","","exp-sent","de","","",""
"","1909","html-keyboard-response","176","368256","0.0-3.0-1.135","<span style=""font-size:30px; font-family: monospace"">conflito</span>"," ","","exp-sent","conflito","","",""
"","437","html-keyboard-response","177","368944","0.0-3.0-1.136","<span style=""font-size:30px; font-family: monospace"">com</span>"," ","","exp-sent","com","","",""
"","484","html-keyboard-response","178","369680","0.0-3.0-1.137","<span style=""font-size:30px; font-family: monospace"">as</span>"," ","","exp-sent","as","","",""
"","741","html-keyboard-response","179","370688","0.0-3.0-1.138","<span style=""font-size:30px; font-family: monospace"">pessoas.</span>"," ","","exp-sent","pessoas.","","",""
"","null","html-keyboard-response","180","371940","0.0-3.0-0.139-0.139","<span style= ""font-size:30px; font-family: monospace"">+</span>","null","fixation","","","","",""
"","530","html-keyboard-response","181","372736","0.0-3.0-1.139","<span style=""font-size:30px; font-family: monospace"">O</span>"," ","","exp-sent","O","","",""
"","837","html-keyboard-response","182","373824","0.0-3.0-1.140","<span style=""font-size:30px; font-family: monospace"">bolo</span>"," ","","exp-sent","bolo","","",""
"","468","html-keyboard-response","183","374544","0.0-3.0-1.141","<span style=""font-size:30px; font-family: monospace"">era</span>"," ","","exp-sent","era","","",""
"","661","html-keyboard-response","184","375456","0.0-3.0-1.142","<span style=""font-size:30px; font-family: monospace"">de</span>"," ","","exp-sent","de","","",""
"","2148","html-keyboard-response","185","377856","0.0-3.0-1.143","<span style=""font-size:30px; font-family: monospace"">abacaxi</span>"," ","","exp-sent","abacaxi","","",""
"","661","html-keyboard-response","186","378768","0.0-3.0-1.144","<span style=""font-size:30px; font-family: monospace"">e</span>"," ","","exp-sent","e","","",""
"","901","html-keyboard-response","187","379920","0.0-3.0-1.145","<span style=""font-size:30px; font-family: monospace"">creme</span>"," ","","exp-sent","creme","","",""
"","917","html-keyboard-response","188","381088","0.0-3.0-1.146","<span style=""font-size:30px; font-family: monospace"">de</span>"," ","","exp-sent","de","","",""
"","692","html-keyboard-response","189","382032","0.0-3.0-1.147","<span style=""font-size:30px; font-family: monospace"">coco.</span>"," ","","exp-sent","coco.","","",""
"","null","html-keyboard-response","190","383285","0.0-3.0-0.148-0.148","<span style= ""font-size:30px; font-family: monospace"">+</span>","null","fixation","","","","",""
"","416","html-keyboard-response","191","383952","0.0-3.0-1.148","<span style=""font-size:30px; font-family: monospace"">As</span>"," ","","exp-sent","As","","",""
"","773","html-keyboard-response","192","384976","0.0-3.0-1.149","<span style=""font-size:30px; font-family: monospace"">crianças</span>"," ","","exp-sent","crianças","","",""
"","1636","html-keyboard-response","193","386864","0.0-3.0-1.150","<span style=""font-size:30px; font-family: monospace"">brincaram</span>"," ","","exp-sent","brincaram","","",""
"","789","html-keyboard-response","194","387904","0.0-3.0-1.151","<span style=""font-size:30px; font-family: monospace"">com</span>"," ","","exp-sent","com","","",""
"","2468","html-keyboard-response","195","390624","0.0-3.0-1.152","<span style=""font-size:30px; font-family: monospace"">bolhas</span>"," ","","exp-sent","bolhas","","",""
"","421","html-keyboard-response","196","391296","0.0-3.0-1.153","<span style=""font-size:30px; font-family: monospace"">no</span>"," ","","exp-sent","no","","",""
"","1333","html-keyboard-response","197","392880","0.0-3.0-1.154","<span style=""font-size:30px; font-family: monospace"">banho.</span>"," ","","comp","banho.","","",""
"","7221","html-keyboard-response","198","400352","0.0-3.0-2.154-0.154","<span style=""font-size:30px; font-family: monospace"">As crianças brincaram com bolhas?</span>","s","","comp","","As crianças brincaram com bolhas?","sim","false"
"","null","html-keyboard-response","199","401854","0.0-3.0-0.155-0.155","<span style= ""font-size:30px; font-family: monospace"">+</span>","null","fixation","","","","",""
"","439","html-keyboard-response","200","402544","0.0-3.0-1.155","<span style=""font-size:30px; font-family: monospace"">Ele</span>"," ","","exp-sent","Ele","","",""
"","1077","html-keyboard-response","201","403872","0.0-3.0-1.156","<span style=""font-size:30px; font-family: monospace"">é</span>"," ","","exp-sent","é","","",""
"","469","html-keyboard-response","202","404592","0.0-3.0-1.157","<span style=""font-size:30px; font-family: monospace"">um</span>"," ","","exp-sent","um","","",""
"","565","html-keyboard-response","203","405408","0.0-3.0-1.158","<span style=""font-size:30px; font-family: monospace"">pai</span>"," ","","exp-sent","pai","","",""
"","772","html-keyboard-response","204","406432","0.0-3.0-1.159","<span style=""font-size:30px; font-family: monospace"">ausente</span>"," ","","exp-sent","ausente","","",""
"","462","html-keyboard-response","205","407152","0.0-3.0-1.160","<span style=""font-size:30px; font-family: monospace"">e</span>"," ","","exp-sent","e","","",""
"","551","html-keyboard-response","206","407968","0.0-3.0-1.161","<span style=""font-size:30px; font-family: monospace"">muito</span>"," ","","exp-sent","muito","","",""
"","1620","html-keyboard-response","207","409840","0.0-3.0-1.162","<span style=""font-size:30px; font-family: monospace"">fofoqueiro.</span>"," ","","exp-sent","fofoqueiro.","","",""
"","null","html-keyboard-response","208","411093","0.0-3.0-0.163-0.163","<span style= ""font-size:30px; font-family: monospace"">+</span>","null","fixation","","","","",""
"","897","html-keyboard-response","209","412240","0.0-3.0-1.163","<span style=""font-size:30px; font-family: monospace"">O</span>"," ","","exp-sent","O","","",""
"","901","html-keyboard-response","210","413392","0.0-3.0-1.164","<span style=""font-size:30px; font-family: monospace"">filho</span>"," ","","exp-sent","filho","","",""
"","1253","html-keyboard-response","211","414896","0.0-3.0-1.165","<span style=""font-size:30px; font-family: monospace"">lavou</span>"," ","","exp-sent","lavou","","",""
"","453","html-keyboard-response","212","415600","0.0-3.0-1.166","<span style=""font-size:30px; font-family: monospace"">a</span>"," ","","exp-sent","a","","",""
"","853","html-keyboard-response","213","416704","0.0-3.0-1.167","<span style=""font-size:30px; font-family: monospace"">roupa</span>"," ","","exp-sent","roupa","","",""
"","581","html-keyboard-response","214","417536","0.0-3.0-1.168","<span style=""font-size:30px; font-family: monospace"">sem</span>"," ","","exp-sent","sem","","",""
"","1525","html-keyboard-response","215","419312","0.0-3.0-1.169","<span style=""font-size:30px; font-family: monospace"">nenhuma</span>"," ","","exp-sent","nenhuma","","",""
"","677","html-keyboard-response","216","420240","0.0-3.0-1.170","<span style=""font-size:30px; font-family: monospace"">ajuda.</span>"," ","","exp-sent","ajuda.","","",""
"","null","html-keyboard-response","217","421492","0.0-3.0-0.171-0.171","<span style= ""font-size:30px; font-family: monospace"">+</span>","null","fixation","","","","",""
"","496","html-keyboard-response","218","422240","0.0-3.0-1.171","<span style=""font-size:30px; font-family: monospace"">O</span>"," ","","exp-sent","O","","",""
"","1044","html-keyboard-response","219","423536","0.0-3.0-1.172","<span style=""font-size:30px; font-family: monospace"">menino</span>"," ","","exp-sent","menino","","",""
"","1269","html-keyboard-response","220","425056","0.0-3.0-1.173","<span style=""font-size:30px; font-family: monospace"">quebrou</span>"," ","","exp-sent","quebrou","","",""
"","373","html-keyboard-response","221","425680","0.0-3.0-1.174","<span style=""font-size:30px; font-family: monospace"">a</span>"," ","","exp-sent","a","","",""
"","772","html-keyboard-response","222","426704","0.0-3.0-1.175","<span style=""font-size:30px; font-family: monospace"">perna</span>"," ","","exp-sent","perna","","",""
"","533","html-keyboard-response","223","427488","0.0-3.0-1.176","<span style=""font-size:30px; font-family: monospace"">nos</span>"," ","","exp-sent","nos","","",""
"","1349","html-keyboard-response","224","429088","0.0-3.0-1.177","<span style=""font-size:30px; font-family: monospace"">esportes.</span>"," ","","exp-sent","esportes.","","",""
"","null","html-keyboard-response","225","430339","0.0-3.0-0.178-0.178","<span style= ""font-size:30px; font-family: monospace"">+</span>","null","fixation","","","","",""
"","344","html-keyboard-response","226","430944","0.0-3.0-1.178","<span style=""font-size:30px; font-family: monospace"">Ela</span>"," ","","exp-sent","Ela","","",""
"","1285","html-keyboard-response","227","432480","0.0-3.0-1.179","<span style=""font-size:30px; font-family: monospace"">brincou</span>"," ","","exp-sent","brincou","","",""
"","480","html-keyboard-response","228","433216","0.0-3.0-1.180","<span style=""font-size:30px; font-family: monospace"">com</span>"," ","","exp-sent","com","","",""
"","535","html-keyboard-response","229","434016","0.0-3.0-1.181","<span style=""font-size:30px; font-family: monospace"">uma</span>"," ","","exp-sent","uma","","",""
"","836","html-keyboard-response","230","435104","0.0-3.0-1.182","<span style=""font-size:30px; font-family: monospace"">menina</span>"," ","","exp-sent","menina","","",""
"","645","html-keyboard-response","231","436000","0.0-3.0-1.183","<span style=""font-size:30px; font-family: monospace"">da</span>"," ","","exp-sent","da","","",""
"","1012","html-keyboard-response","232","437264","0.0-3.0-1.184","<span style=""font-size:30px; font-family: monospace"">turma.</span>"," ","","exp-sent","turma.","","",""
"","null","html-keyboard-response","233","438517","0.0-3.0-0.185-0.185","<span style= ""font-size:30px; font-family: monospace"">+</span>","null","fixation","","","","",""
"","560","html-keyboard-response","234","439328","0.0-3.0-1.185","<span style=""font-size:30px; font-family: monospace"">Ele</span>"," ","","exp-sent","Ele","","",""
"","1845","html-keyboard-response","235","441424","0.0-3.0-1.186","<span style=""font-size:30px; font-family: monospace"">esteve</span>"," ","","exp-sent","esteve","","",""
"","549","html-keyboard-response","236","442224","0.0-3.0-1.187","<span style=""font-size:30px; font-family: monospace"">no</span>"," ","","exp-sent","no","","",""
"","1317","html-keyboard-response","237","443792","0.0-3.0-1.188","<span style=""font-size:30px; font-family: monospace"">escritório</span>"," ","","exp-sent","escritório","","",""
"","1797","html-keyboard-response","238","445840","0.0-3.0-1.189","<span style=""font-size:30px; font-family: monospace"">o</span>"," ","","exp-sent","o","","",""
"","661","html-keyboard-response","239","446752","0.0-3.0-1.190","<span style=""font-size:30px; font-family: monospace"">dia</span>"," ","","exp-sent","dia","","",""
"","1125","html-keyboard-response","240","448128","0.0-3.0-1.191","<span style=""font-size:30px; font-family: monospace"">inteiro.</span>"," ","","comp","inteiro.","","",""
"","10933","html-keyboard-response","241","459312","0.0-3.0-2.191-0.191","<span style=""font-size:30px; font-family: monospace"">Ele esteve no parque o dia inteiro?</span>","n","","comp","","Ele esteve no parque o dia inteiro?","não","false"
"","null","html-keyboard-response","242","460815","0.0-3.0-0.192-0.192","<span style= ""font-size:30px; font-family: monospace"">+</span>","null","fixation","","","","",""
"","805","html-keyboard-response","243","461872","0.0-3.0-1.192","<span style=""font-size:30px; font-family: monospace"">Ursos</span>"," ","","exp-sent","Ursos","","",""
"","517","html-keyboard-response","244","462640","0.0-3.0-1.193","<span style=""font-size:30px; font-family: monospace"">têm</span>"," ","","exp-sent","têm","","",""
"","421","html-keyboard-response","245","463312","0.0-3.0-1.194","<span style=""font-size:30px; font-family: monospace"">uma</span>"," ","","exp-sent","uma","","",""
"","2165","html-keyboard-response","246","465728","0.0-3.0-1.195","<span style=""font-size:30px; font-family: monospace"">patada</span>"," ","","exp-sent","patada","","",""
"","549","html-keyboard-response","247","466528","0.0-3.0-1.196","<span style=""font-size:30px; font-family: monospace"">brutal</span>"," ","","exp-sent","brutal","","",""
"","485","html-keyboard-response","248","467264","0.0-3.0-1.197","<span style=""font-size:30px; font-family: monospace"">e</span>"," ","","exp-sent","e","","",""
"","1093","html-keyboard-response","249","468608","0.0-3.0-1.198","<span style=""font-size:30px; font-family: monospace"">poderosa.</span>"," ","","exp-sent","poderosa.","","",""
"","null","html-keyboard-response","250","469859","0.0-3.0-0.199-0.199","<span style= ""font-size:30px; font-family: monospace"">+</span>","null","fixation","","","","",""
"","848","html-keyboard-response","251","470960","0.0-3.0-1.199","<span style=""font-size:30px; font-family: monospace"">Eu</span>"," ","","exp-sent","Eu","","",""
"","645","html-keyboard-response","252","471856","0.0-3.0-1.200","<span style=""font-size:30px; font-family: monospace"">fiz</span>"," ","","exp-sent","fiz","","",""
"","1461","html-keyboard-response","253","473568","0.0-3.0-1.201","<span style=""font-size:30px; font-family: monospace"">aulas</span>"," ","","exp-sent","aulas","","",""
"","581","html-keyboard-response","254","474400","0.0-3.0-1.202","<span style=""font-size:30px; font-family: monospace"">de</span>"," ","","exp-sent","de","","",""
"","1237","html-keyboard-response","255","475888","0.0-3.0-1.203","<span style=""font-size:30px; font-family: monospace"">espanhol</span>"," ","","exp-sent","espanhol","","",""
"","612","html-keyboard-response","256","476752","0.0-3.0-1.204","<span style=""font-size:30px; font-family: monospace"">nesta</span>"," ","","exp-sent","nesta","","",""
"","405","html-keyboard-response","257","477408","0.0-3.0-1.205","<span style=""font-size:30px; font-family: monospace"">cidade.</span>"," ","","exp-sent","cidade.","","",""
"","null","html-keyboard-response","258","478659","0.0-3.0-0.206-0.206","<span style= ""font-size:30px; font-family: monospace"">+</span>","null","fixation","","","","",""
"","737","html-keyboard-response","259","479648","0.0-3.0-1.206","<span style=""font-size:30px; font-family: monospace"">Ele</span>"," ","","exp-sent","Ele","","",""
"","565","html-keyboard-response","260","480464","0.0-3.0-1.207","<span style=""font-size:30px; font-family: monospace"">comprou</span>"," ","","exp-sent","comprou","","",""
"","869","html-keyboard-response","261","481584","0.0-3.0-1.208","<span style=""font-size:30px; font-family: monospace"">mais</span>"," ","","exp-sent","mais","","",""
"","452","html-keyboard-response","262","482288","0.0-3.0-1.209","<span style=""font-size:30px; font-family: monospace"">uma</span>"," ","","exp-sent","uma","","",""
"","549","html-keyboard-response","263","483088","0.0-3.0-1.210","<span style=""font-size:30px; font-family: monospace"">esponja</span>"," ","","exp-sent","esponja","","",""
"","409","html-keyboard-response","264","483759","0.0-3.0-1.211","<span style=""font-size:30px; font-family: monospace"">para</span>"," ","","exp-sent","para","","",""
"","422","html-keyboard-response","265","484432","0.0-3.0-1.212","<span style=""font-size:30px; font-family: monospace"">a</span>"," ","","exp-sent","a","","",""
"","725","html-keyboard-response","266","485408","0.0-3.0-1.213","<span style=""font-size:30px; font-family: monospace"">cozinha.</span>"," ","","exp-sent","cozinha.","","",""
"","null","html-keyboard-response","267","486659","0.0-3.0-0.214-0.214","<span style= ""font-size:30px; font-family: monospace"">+</span>","null","fixation","","","","",""
"","976","html-keyboard-response","268","487888","0.0-3.0-1.214","<span style=""font-size:30px; font-family: monospace"">Ele</span>"," ","","exp-sent","Ele","","",""
"","1013","html-keyboard-response","269","489152","0.0-3.0-1.215","<span style=""font-size:30px; font-family: monospace"">teve</span>"," ","","exp-sent","teve","","",""
"","388","html-keyboard-response","270","489792","0.0-3.0-1.216","<span style=""font-size:30px; font-family: monospace"">um</span>"," ","","exp-sent","um","","",""
"","693","html-keyboard-response","271","490736","0.0-3.0-1.217","<span style=""font-size:30px; font-family: monospace"">sono</span>"," ","","exp-sent","sono","","",""
"","677","html-keyboard-response","272","491664","0.0-3.0-1.218","<span style=""font-size:30px; font-family: monospace"">bizarro</span>"," ","","exp-sent","bizarro","","",""
"","389","html-keyboard-response","273","492304","0.0-3.0-1.219","<span style=""font-size:30px; font-family: monospace"">sem</span>"," ","","exp-sent","sem","","",""
"","645","html-keyboard-response","274","493200","0.0-3.0-1.220","<span style=""font-size:30px; font-family: monospace"">nenhum</span>"," ","","exp-sent","nenhum","","",""
"","452","html-keyboard-response","275","493904","0.0-3.0-1.221","<span style=""font-size:30px; font-family: monospace"">motivo.</span>"," ","","exp-sent","motivo.","","",""
"","null","html-keyboard-response","276","495156","0.0-3.0-0.222-0.222","<span style= ""font-size:30px; font-family: monospace"">+</span>","null","fixation","","","","",""
"","2128","html-keyboard-response","277","497536","0.0-3.0-1.222","<span style=""font-size:30px; font-family: monospace"">A</span>"," ","","exp-sent","A","","",""
"","981","html-keyboard-response","278","498768","0.0-3.0-1.223","<span style=""font-size:30px; font-family: monospace"">moça</span>"," ","","exp-sent","moça","","",""
"","788","html-keyboard-response","279","499808","0.0-3.0-1.224","<span style=""font-size:30px; font-family: monospace"">comprou</span>"," ","","exp-sent","comprou","","",""
"","484","html-keyboard-response","280","500544","0.0-3.0-1.225","<span style=""font-size:30px; font-family: monospace"">um</span>"," ","","exp-sent","um","","",""
"","1509","html-keyboard-response","281","502304","0.0-3.0-1.226","<span style=""font-size:30px; font-family: monospace"">diamante</span>"," ","","exp-sent","diamante","","",""
"","597","html-keyboard-response","282","503152","0.0-3.0-1.227","<span style=""font-size:30px; font-family: monospace"">para</span>"," ","","exp-sent","para","","",""
"","533","html-keyboard-response","283","503936","0.0-3.0-1.228","<span style=""font-size:30px; font-family: monospace"">sua</span>"," ","","exp-sent","sua","","",""
"","901","html-keyboard-response","284","505088","0.0-3.0-1.229","<span style=""font-size:30px; font-family: monospace"">prima.</span>"," ","","comp","prima.","","",""
"","3941","html-keyboard-response","285","509279","0.0-3.0-2.229-0.229","<span style=""font-size:30px; font-family: monospace"">A moça comprou um diamante?</span>","s","","comp","","A moça comprou um diamante?","sim","false"
"","null","html-keyboard-response","286","510781","0.0-3.0-0.230-0.230","<span style= ""font-size:30px; font-family: monospace"">+</span>","null","fixation","","","","",""
"","1095","html-keyboard-response","287","512128","0.0-3.0-1.230","<span style=""font-size:30px; font-family: monospace"">Ganhamos</span>"," ","","exp-sent","Ganhamos","","",""
"","1013","html-keyboard-response","288","513392","0.0-3.0-1.231","<span style=""font-size:30px; font-family: monospace"">passagem</span>"," ","","exp-sent","passagem","","",""
"","640","html-keyboard-response","289","514288","0.0-3.0-1.232","<span style=""font-size:30px; font-family: monospace"">para</span>"," ","","exp-sent","para","","",""
"","657","html-keyboard-response","290","515199","0.0-3.0-1.233","<span style=""font-size:30px; font-family: monospace"">uma</span>"," ","","exp-sent","uma","","",""
"","710","html-keyboard-response","291","516159","0.0-3.0-1.234","<span style=""font-size:30px; font-family: monospace"">viagem</span>"," ","","exp-sent","viagem","","",""
"","772","html-keyboard-response","292","517184","0.0-3.0-1.235","<span style=""font-size:30px; font-family: monospace"">de</span>"," ","","exp-sent","de","","",""
"","581","html-keyboard-response","293","518015","0.0-3.0-1.236","<span style=""font-size:30px; font-family: monospace"">férias.</span>"," ","","exp-sent","férias.","","",""
"","null","html-keyboard-response","294","519268","0.0-3.0-0.237-0.237","<span style= ""font-size:30px; font-family: monospace"">+</span>","null","fixation","","","","",""
"","416","html-keyboard-response","295","519936","0.0-3.0-1.237","<span style=""font-size:30px; font-family: monospace"">Caiu</span>"," ","","exp-sent","Caiu","","",""
"","933","html-keyboard-response","296","521120","0.0-3.0-1.238","<span style=""font-size:30px; font-family: monospace"">algo</span>"," ","","exp-sent","algo","","",""
"","500","html-keyboard-response","297","521871","0.0-3.0-1.239","<span style=""font-size:30px; font-family: monospace"">no</span>"," ","","exp-sent","no","","",""
"","678","html-keyboard-response","298","522799","0.0-3.0-1.240","<span style=""font-size:30px; font-family: monospace"">meu</span>"," ","","exp-sent","meu","","",""
"","1062","html-keyboard-response","299","524112","0.0-3.0-1.241","<span style=""font-size:30px; font-family: monospace"">olho</span>"," ","","exp-sent","olho","","",""
"","709","html-keyboard-response","300","525071","0.0-3.0-1.242","<span style=""font-size:30px; font-family: monospace"">ontem</span>"," ","","exp-sent","ontem","","",""
"","469","html-keyboard-response","301","525792","0.0-3.0-1.243","<span style=""font-size:30px; font-family: monospace"">de</span>"," ","","exp-sent","de","","",""
"","821","html-keyboard-response","302","526863","0.0-3.0-1.244","<span style=""font-size:30px; font-family: monospace"">tarde.</span>"," ","","exp-sent","tarde.","","",""
"","null","html-keyboard-response","303","528115","0.0-3.0-0.245-0.245","<span style= ""font-size:30px; font-family: monospace"">+</span>","null","fixation","","","","",""
"","657","html-keyboard-response","304","529023","0.0-3.0-1.245","<span style=""font-size:30px; font-family: monospace"">Não</span>"," ","","exp-sent","Não","","",""
"","838","html-keyboard-response","305","530111","0.0-3.0-1.246","<span style=""font-size:30px; font-family: monospace"">havia</span>"," ","","exp-sent","havia","","",""
"","596","html-keyboard-response","306","530960","0.0-3.0-1.247","<span style=""font-size:30px; font-family: monospace"">mais</span>"," ","","exp-sent","mais","","",""
"","788","html-keyboard-response","307","531999","0.0-3.0-1.248","<span style=""font-size:30px; font-family: monospace"">nenhum</span>"," ","","exp-sent","nenhum","","",""
"","1078","html-keyboard-response","308","533328","0.0-3.0-1.249","<span style=""font-size:30px; font-family: monospace"">ingresso</span>"," ","","exp-sent","ingresso","","",""
"","549","html-keyboard-response","309","534127","0.0-3.0-1.250","<span style=""font-size:30px; font-family: monospace"">para</span>"," ","","exp-sent","para","","",""
"","453","html-keyboard-response","310","534831","0.0-3.0-1.251","<span style=""font-size:30px; font-family: monospace"">o</span>"," ","","exp-sent","o","","",""
"","1109","html-keyboard-response","311","536191","0.0-3.0-1.252","<span style=""font-size:30px; font-family: monospace"">evento.</span>"," ","","exp-sent","evento.","","",""
"","null","html-keyboard-response","312","537458","0.0-3.0-0.253-0.253","<span style= ""font-size:30px; font-family: monospace"">+</span>","null","fixation","","","","",""
"","914","html-keyboard-response","313","538624","0.0-3.0-1.253","<span style=""font-size:30px; font-family: monospace"">A</span>"," ","","exp-sent","A","","",""
"","2245","html-keyboard-response","314","541119","0.0-3.0-1.254","<span style=""font-size:30px; font-family: monospace"">médica</span>"," ","","exp-sent","médica","","",""
"","1700","html-keyboard-response","315","543071","0.0-3.0-1.255","<span style=""font-size:30px; font-family: monospace"">descobriu</span>"," ","","exp-sent","descobriu","","",""
"","581","html-keyboard-response","316","543903","0.0-3.0-1.256","<span style=""font-size:30px; font-family: monospace"">uma</span>"," ","","exp-sent","uma","","",""
"","1765","html-keyboard-response","317","545920","0.0-3.0-1.257","<span style=""font-size:30px; font-family: monospace"">cura</span>"," ","","exp-sent","cura","","",""
"","757","html-keyboard-response","318","546927","0.0-3.0-1.258","<span style=""font-size:30px; font-family: monospace"">para</span>"," ","","exp-sent","para","","",""
"","612","html-keyboard-response","319","547791","0.0-3.0-1.259","<span style=""font-size:30px; font-family: monospace"">a</span>"," ","","exp-sent","a","","",""
"","1318","html-keyboard-response","320","549359","0.0-3.0-1.260","<span style=""font-size:30px; font-family: monospace"">doença.</span>"," ","","exp-sent","doença.","","",""
"","null","html-keyboard-response","321","550612","0.0-3.0-0.261-0.261","<span style= ""font-size:30px; font-family: monospace"">+</span>","null","fixation","","","","",""
"","6785","html-keyboard-response","322","557648","0.0-3.0-1.261","<span style=""font-size:30px; font-family: monospace"">O</span>"," ","","exp-sent","O","","",""
"","3700","html-keyboard-response","323","561599","0.0-3.0-1.262","<span style=""font-size:30px; font-family: monospace"">menino</span>"," ","","exp-sent","menino","","",""
"","420","html-keyboard-response","324","562271","0.0-3.0-1.263","<span style=""font-size:30px; font-family: monospace"">riscou</span>"," ","","exp-sent","riscou","","",""
"","421","html-keyboard-response","325","562943","0.0-3.0-1.264","<span style=""font-size:30px; font-family: monospace"">o</span>"," ","","exp-sent","o","","",""
"","1109","html-keyboard-response","326","564303","0.0-3.0-1.265","<span style=""font-size:30px; font-family: monospace"">caderno</span>"," ","","exp-sent","caderno","","",""
"","708","html-keyboard-response","327","565263","0.0-3.0-1.266","<span style=""font-size:30px; font-family: monospace"">com</span>"," ","","exp-sent","com","","",""
"","4309","html-keyboard-response","328","569824","0.0-3.0-1.267","<span style=""font-size:30px; font-family: monospace"">a</span>"," ","","exp-sent","a","","",""
"","1061","html-keyboard-response","329","571135","0.0-3.0-1.268","<span style=""font-size:30px; font-family: monospace"">caneta.</span>"," ","","comp","caneta.","","",""
"","5327","html-keyboard-response","330","576719","0.0-3.0-2.268-0.268","<span style=""font-size:30px; font-family: monospace"">O menino riscou a parede com a caneta?</span>","s","","comp","","O menino riscou a parede com a caneta?","não","false"
"","null","html-keyboard-response","331","578222","0.0-3.0-0.269-0.269","<span style= ""font-size:30px; font-family: monospace"">+</span>","null","fixation","","","","",""
"","5031","html-keyboard-response","332","583503","0.0-3.0-1.269","<span style=""font-size:30px; font-family: monospace"">No</span>"," ","","exp-sent","No","","",""
"","965","html-keyboard-response","333","584720","0.0-3.0-1.270","<span style=""font-size:30px; font-family: monospace"">passado</span>"," ","","exp-sent","passado","","",""
"","1076","html-keyboard-response","334","586047","0.0-3.0-1.271","<span style=""font-size:30px; font-family: monospace"">houve</span>"," ","","exp-sent","houve","","",""
"","5876","html-keyboard-response","335","592175","0.0-3.0-1.272","<span style=""font-size:30px; font-family: monospace"">uma</span>"," ","","exp-sent","uma","","",""
"","3738","html-keyboard-response","336","596176","0.0-3.0-1.273","<span style=""font-size:30px; font-family: monospace"">rebelião</span>"," ","","exp-sent","rebelião","","",""
"","1381","html-keyboard-response","337","597807","0.0-3.0-1.274","<span style=""font-size:30px; font-family: monospace"">nesta</span>"," ","","exp-sent","nesta","","",""
"","1572","html-keyboard-response","338","599631","0.0-3.0-1.275","<span style=""font-size:30px; font-family: monospace"">cidade.</span>"," ","","exp-sent","cidade.","","",""
"","null","html-keyboard-response","339","600893","0.0-3.0-0.276-0.276","<span style= ""font-size:30px; font-family: monospace"">+</span>","null","fixation","","","","",""
"","1175","html-keyboard-response","340","602319","0.0-3.0-1.276","<span style=""font-size:30px; font-family: monospace"">Ele</span>"," ","","exp-sent","Ele","","",""
"","1938","html-keyboard-response","341","604511","0.0-3.0-1.277","<span style=""font-size:30px; font-family: monospace"">fundou</span>"," ","","exp-sent","fundou","","",""
"","757","html-keyboard-response","342","605519","0.0-3.0-1.278","<span style=""font-size:30px; font-family: monospace"">uma</span>"," ","","exp-sent","uma","","",""
"","853","html-keyboard-response","343","606623","0.0-3.0-1.279","<span style=""font-size:30px; font-family: monospace"">empresa</span>"," ","","exp-sent","empresa","","",""
"","1397","html-keyboard-response","344","608271","0.0-3.0-1.280","<span style=""font-size:30px; font-family: monospace"">privada</span>"," ","","exp-sent","privada","","",""
"","581","html-keyboard-response","345","609103","0.0-3.0-1.281","<span style=""font-size:30px; font-family: monospace"">sem</span>"," ","","exp-sent","sem","","",""
"","773","html-keyboard-response","346","610127","0.0-3.0-1.282","<span style=""font-size:30px; font-family: monospace"">ajuda.</span>"," ","","exp-sent","ajuda.","","",""
"","null","html-keyboard-response","347","611379","0.0-3.0-0.283-0.283","<span style= ""font-size:30px; font-family: monospace"">+</span>","null","fixation","","","","",""
"","1233","html-keyboard-response","348","612863","0.0-3.0-1.283","<span style=""font-size:30px; font-family: monospace"">As</span>"," ","","exp-sent","As","","",""
"","1220","html-keyboard-response","349","614335","0.0-3.0-1.284","<span style=""font-size:30px; font-family: monospace"">meninas</span>"," ","","exp-sent","meninas","","",""
"","2117","html-keyboard-response","350","616703","0.0-3.0-1.285","<span style=""font-size:30px; font-family: monospace"">encontraram</span>"," ","","exp-sent","encontraram","","",""
"","1173","html-keyboard-response","351","618127","0.0-3.0-1.286","<span style=""font-size:30px; font-family: monospace"">um</span>"," ","","exp-sent","um","","",""
"","885","html-keyboard-response","352","619263","0.0-3.0-1.287","<span style=""font-size:30px; font-family: monospace"">rato</span>"," ","","exp-sent","rato","","",""
"","1445","html-keyboard-response","353","620959","0.0-3.0-1.288","<span style=""font-size:30px; font-family: monospace"">dentro</span>"," ","","exp-sent","dentro","","",""
"","613","html-keyboard-response","354","621823","0.0-3.0-1.289","<span style=""font-size:30px; font-family: monospace"">de</span>"," ","","exp-sent","de","","",""
"","579","html-keyboard-response","355","622655","0.0-3.0-1.290","<span style=""font-size:30px; font-family: monospace"">casa.</span>"," ","","exp-sent","casa.","","",""
"","null","html-keyboard-response","356","623908","0.0-3.0-0.291-0.291","<span style= ""font-size:30px; font-family: monospace"">+</span>","null","fixation","","","","",""
"","1136","html-keyboard-response","357","625295","0.0-3.0-1.291","<span style=""font-size:30px; font-family: monospace"">O</span>"," ","","exp-sent","O","","",""
"","805","html-keyboard-response","358","626351","0.0-3.0-1.292","<span style=""font-size:30px; font-family: monospace"">texto</span>"," ","","exp-sent","texto","","",""
"","757","html-keyboard-response","359","627359","0.0-3.0-1.293","<span style=""font-size:30px; font-family: monospace"">tinha</span>"," ","","exp-sent","tinha","","",""
"","1157","html-keyboard-response","360","628767","0.0-3.0-1.294","<span style=""font-size:30px; font-family: monospace"">ideias</span>"," ","","exp-sent","ideias","","",""
"","740","html-keyboard-response","361","629759","0.0-3.0-1.295","<span style=""font-size:30px; font-family: monospace"">vagas</span>"," ","","exp-sent","vagas","","",""
"","564","html-keyboard-response","362","630575","0.0-3.0-1.296","<span style=""font-size:30px; font-family: monospace"">e</span>"," ","","exp-sent","e","","",""
"","2255","html-keyboard-response","363","633087","0.0-3.0-1.297","<span style=""font-size:30px; font-family: monospace"">confusas.</span>"," ","","exp-sent","confusas.","","",""
"","null","html-keyboard-response","364","634340","0.0-3.0-0.298-0.298","<span style= ""font-size:30px; font-family: monospace"">+</span>","null","fixation","","","","",""
"","496","html-keyboard-response","365","635087","0.0-3.0-1.298","<span style=""font-size:30px; font-family: monospace"">As</span>"," ","","exp-sent","As","","",""
"","789","html-keyboard-response","366","636127","0.0-3.0-1.299","<span style=""font-size:30px; font-family: monospace"">crianças</span>"," ","","exp-sent","crianças","","",""
"","613","html-keyboard-response","367","636991","0.0-3.0-1.300","<span style=""font-size:30px; font-family: monospace"">viram</span>"," ","","exp-sent","viram","","",""
"","454","html-keyboard-response","368","637695","0.0-3.0-1.301","<span style=""font-size:30px; font-family: monospace"">a</span>"," ","","exp-sent","a","","",""
"","2421","html-keyboard-response","369","640367","0.0-3.0-1.302","<span style=""font-size:30px; font-family: monospace"">acrobata</span>"," ","","exp-sent","acrobata","","",""
"","3077","html-keyboard-response","370","643695","0.0-3.0-1.303","<span style=""font-size:30px; font-family: monospace"">talentosa</span>"," ","","exp-sent","talentosa","","",""
"","548","html-keyboard-response","371","644495","0.0-3.0-1.304","<span style=""font-size:30px; font-family: monospace"">no</span>"," ","","exp-sent","no","","",""
"","2357","html-keyboard-response","372","647103","0.0-3.0-1.305","<span style=""font-size:30px; font-family: monospace"">circo.</span>"," ","","comp","circo.","","",""
"","9749","html-keyboard-response","373","657103","0.0-3.0-2.305-0.305","<span style=""font-size:30px; font-family: monospace"">As crianças viram o palhaço no circo?</span>","n","","comp","","As crianças viram o palhaço no circo?","não","false"
"","null","html-keyboard-response","374","658604","0.0-3.0-0.306-0.306","<span style= ""font-size:30px; font-family: monospace"">+</span>","null","fixation","","","","",""
"","1048","html-keyboard-response","375","659903","0.0-3.0-1.306","<span style=""font-size:30px; font-family: monospace"">O</span>"," ","","exp-sent","O","","",""
"","3062","html-keyboard-response","376","663215","0.0-3.0-1.307","<span style=""font-size:30px; font-family: monospace"">moço</span>"," ","","exp-sent","moço","","",""
"","1621","html-keyboard-response","377","665087","0.0-3.0-1.308","<span style=""font-size:30px; font-family: monospace"">usou</span>"," ","","exp-sent","usou","","",""
"","1013","html-keyboard-response","378","666351","0.0-3.0-1.309","<span style=""font-size:30px; font-family: monospace"">várias</span>"," ","","exp-sent","várias","","",""
"","1396","html-keyboard-response","379","667999","0.0-3.0-1.310","<span style=""font-size:30px; font-family: monospace"">velas</span>"," ","","exp-sent","velas","","",""
"","613","html-keyboard-response","380","668863","0.0-3.0-1.311","<span style=""font-size:30px; font-family: monospace"">no</span>"," ","","exp-sent","no","","",""
"","1908","html-keyboard-response","381","671023","0.0-3.0-1.312","<span style=""font-size:30px; font-family: monospace"">enfeite</span>"," ","","exp-sent","enfeite","","",""
"","3876","html-keyboard-response","382","675151","0.0-3.0-1.313","<span style=""font-size:30px; font-family: monospace"">de</span>"," ","","exp-sent","de","","",""
"","614","html-keyboard-response","383","676015","0.0-3.0-1.314","<span style=""font-size:30px; font-family: monospace"">mesa.</span>"," ","","exp-sent","mesa.","","",""
"","null","html-keyboard-response","384","677267","0.0-3.0-0.315-0.315","<span style= ""font-size:30px; font-family: monospace"">+</span>","null","fixation","","","","",""
"","385","html-keyboard-response","385","677903","0.0-3.0-1.315","<span style=""font-size:30px; font-family: monospace"">Gostamos</span>"," ","","exp-sent","Gostamos","","",""
"","709","html-keyboard-response","386","678863","0.0-3.0-1.316","<span style=""font-size:30px; font-family: monospace"">de</span>"," ","","exp-sent","de","","",""
"","660","html-keyboard-response","387","679775","0.0-3.0-1.317","<span style=""font-size:30px; font-family: monospace"">suco</span>"," ","","exp-sent","suco","","",""
"","501","html-keyboard-response","388","680527","0.0-3.0-1.318","<span style=""font-size:30px; font-family: monospace"">em</span>"," ","","exp-sent","em","","",""
"","1381","html-keyboard-response","389","682159","0.0-3.0-1.319","<span style=""font-size:30px; font-family: monospace"">garrafa</span>"," ","","exp-sent","garrafa","","",""
"","853","html-keyboard-response","390","683263","0.0-3.0-1.320","<span style=""font-size:30px; font-family: monospace"">de</span>"," ","","exp-sent","de","","",""
"","1829","html-keyboard-response","391","685343","0.0-3.0-1.321","<span style=""font-size:30px; font-family: monospace"">tamanho</span>"," ","","exp-sent","tamanho","","",""
"","1557","html-keyboard-response","392","687151","0.0-3.0-1.322","<span style=""font-size:30px; font-family: monospace"">pequeno.</span>"," ","","exp-sent","pequeno.","","",""
"","null","html-keyboard-response","393","688403","0.0-3.0-0.323-0.323","<span style= ""font-size:30px; font-family: monospace"">+</span>","null","fixation","","","","",""
"","722","html-keyboard-response","394","689375","0.0-3.0-1.323","<span style=""font-size:30px; font-family: monospace"">Sua</span>"," ","","exp-sent","Sua","","",""
"","853","html-keyboard-response","395","690479","0.0-3.0-1.324","<span style=""font-size:30px; font-family: monospace"">filha</span>"," ","","exp-sent","filha","","",""
"","533","html-keyboard-response","396","691263","0.0-3.0-1.325","<span style=""font-size:30px; font-family: monospace"">é</span>"," ","","exp-sent","é","","",""
"","661","html-keyboard-response","397","692175","0.0-3.0-1.326","<span style=""font-size:30px; font-family: monospace"">muito</span>"," ","","exp-sent","muito","","",""
"","1092","html-keyboard-response","398","693519","0.0-3.0-1.327","<span style=""font-size:30px; font-family: monospace"">capaz</span>"," ","","exp-sent","capaz","","",""
"","485","html-keyboard-response","399","694255","0.0-3.0-1.328","<span style=""font-size:30px; font-family: monospace"">e</span>"," ","","exp-sent","e","","",""
"","1685","html-keyboard-response","400","696191","0.0-3.0-1.329","<span style=""font-size:30px; font-family: monospace"">esforçada.</span>"," ","","exp-sent","esforçada.","","",""
"","null","html-keyboard-response","401","697443","0.0-3.0-0.330-0.330","<span style= ""font-size:30px; font-family: monospace"">+</span>","null","fixation","","","","",""
"","1105","html-keyboard-response","402","698799","0.0-3.0-1.330","<span style=""font-size:30px; font-family: monospace"">A</span>"," ","","exp-sent","A","","",""
"","3526","html-keyboard-response","403","702575","0.0-3.0-1.331","<span style=""font-size:30px; font-family: monospace"">batida</span>"," ","","exp-sent","batida","","",""
"","1285","html-keyboard-response","404","704111","0.0-3.0-1.332","<span style=""font-size:30px; font-family: monospace"">causou</span>"," ","","exp-sent","causou","","",""
"","533","html-keyboard-response","405","704895","0.0-3.0-1.333","<span style=""font-size:30px; font-family: monospace"">muita</span>"," ","","exp-sent","muita","","",""
"","1236","html-keyboard-response","406","706383","0.0-3.0-1.334","<span style=""font-size:30px; font-family: monospace"">confusão</span>"," ","","exp-sent","confusão","","",""
"","453","html-keyboard-response","407","707087","0.0-3.0-1.335","<span style=""font-size:30px; font-family: monospace"">na</span>"," ","","exp-sent","na","","",""
"","1157","html-keyboard-response","408","708495","0.0-3.0-1.336","<span style=""font-size:30px; font-family: monospace"">estrada.</span>"," ","","exp-sent","estrada.","","",""
"","null","html-keyboard-response","409","709747","0.0-3.0-0.337-0.337","<span style= ""font-size:30px; font-family: monospace"">+</span>","null","fixation","","","","",""
"","689","html-keyboard-response","410","710687","0.0-3.0-1.337","<span style=""font-size:30px; font-family: monospace"">Eu</span>"," ","","exp-sent","Eu","","",""
"","2165","html-keyboard-response","411","713103","0.0-3.0-1.338","<span style=""font-size:30px; font-family: monospace"">cozinhei</span>"," ","","exp-sent","cozinhei","","",""
"","741","html-keyboard-response","412","714095","0.0-3.0-1.339","<span style=""font-size:30px; font-family: monospace"">um</span>"," ","","exp-sent","um","","",""
"","1013","html-keyboard-response","413","715359","0.0-3.0-1.340","<span style=""font-size:30px; font-family: monospace"">almoço</span>"," ","","exp-sent","almoço","","",""
"","2613","html-keyboard-response","414","718223","0.0-3.0-1.341","<span style=""font-size:30px; font-family: monospace"">nutritivo</span>"," ","","exp-sent","nutritivo","","",""
"","837","html-keyboard-response","415","719311","0.0-3.0-1.342","<span style=""font-size:30px; font-family: monospace"">para</span>"," ","","exp-sent","para","","",""
"","645","html-keyboard-response","416","720207","0.0-3.0-1.343","<span style=""font-size:30px; font-family: monospace"">hoje.</span>"," ","","comp","hoje.","","",""
"","5365","html-keyboard-response","417","725823","0.0-3.0-2.343-0.343","<span style=""font-size:30px; font-family: monospace"">O almoço era nutritivo?</span>","s","","comp","","O almoço era nutritivo?","sim","false"
"","null","html-keyboard-response","418","727325","0.0-3.0-0.344-0.344","<span style= ""font-size:30px; font-family: monospace"">+</span>","null","fixation","","","","",""
"","3191","html-keyboard-response","419","730767","0.0-3.0-1.344","<span style=""font-size:30px; font-family: monospace"">Barulho</span>"," ","","exp-sent","Barulho","","",""
"","757","html-keyboard-response","420","731775","0.0-3.0-1.345","<span style=""font-size:30px; font-family: monospace"">de</span>"," ","","exp-sent","de","","",""
"","997","html-keyboard-response","421","733023","0.0-3.0-1.346","<span style=""font-size:30px; font-family: monospace"">carros</span>"," ","","exp-sent","carros","","",""
"","597","html-keyboard-response","422","733871","0.0-3.0-1.347","<span style=""font-size:30px; font-family: monospace"">é</span>"," ","","exp-sent","é","","",""
"","3189","html-keyboard-response","423","737311","0.0-3.0-1.348","<span style=""font-size:30px; font-family: monospace"">irritante</span>"," ","","exp-sent","irritante","","",""
"","708","html-keyboard-response","424","738271","0.0-3.0-1.349","<span style=""font-size:30px; font-family: monospace"">para</span>"," ","","exp-sent","para","","",""
"","550","html-keyboard-response","425","739071","0.0-3.0-1.350","<span style=""font-size:30px; font-family: monospace"">a</span>"," ","","exp-sent","a","","",""
"","869","html-keyboard-response","426","740191","0.0-3.0-1.351","<span style=""font-size:30px; font-family: monospace"">moça.</span>"," ","","exp-sent","moça.","","",""
"","null","html-keyboard-response","427","741443","0.0-3.0-0.352-0.352","<span style= ""font-size:30px; font-family: monospace"">+</span>","null","fixation","","","","",""
"","880","html-keyboard-response","428","742575","0.0-3.0-1.352","<span style=""font-size:30px; font-family: monospace"">A</span>"," ","","exp-sent","A","","",""
"","501","html-keyboard-response","429","743327","0.0-3.0-1.353","<span style=""font-size:30px; font-family: monospace"">loja</span>"," ","","exp-sent","loja","","",""
"","1317","html-keyboard-response","430","744895","0.0-3.0-1.354","<span style=""font-size:30px; font-family: monospace"">também</span>"," ","","exp-sent","também","","",""
"","1623","html-keyboard-response","431","746783","0.0-3.0-1.355","<span style=""font-size:30px; font-family: monospace"">vende</span>"," ","","exp-sent","vende","","",""
"","1909","html-keyboard-response","432","748943","0.0-3.0-1.356","<span style=""font-size:30px; font-family: monospace"">taça</span>"," ","","exp-sent","taça","","",""
"","597","html-keyboard-response","433","749791","0.0-3.0-1.357","<span style=""font-size:30px; font-family: monospace"">de</span>"," ","","exp-sent","de","","",""
"","1045","html-keyboard-response","434","751087","0.0-3.0-1.358","<span style=""font-size:30px; font-family: monospace"">vinho</span>"," ","","exp-sent","vinho","","",""
"","645","html-keyboard-response","435","751983","0.0-3.0-1.359","<span style=""font-size:30px; font-family: monospace"">e</span>"," ","","exp-sent","e","","",""
"","3333","html-keyboard-response","436","755567","0.0-3.0-1.360","<span style=""font-size:30px; font-family: monospace"">espumante.</span>"," ","","exp-sent","espumante.","","",""
"","null","html-keyboard-response","437","756819","0.0-3.0-0.361-0.361","<span style= ""font-size:30px; font-family: monospace"">+</span>","null","fixation","","","","",""
"","640","html-keyboard-response","438","757711","0.0-3.0-1.361","<span style=""font-size:30px; font-family: monospace"">A</span>"," ","","exp-sent","A","","",""
"","4437","html-keyboard-response","439","762399","0.0-3.0-1.362","<span style=""font-size:30px; font-family: monospace"">bruxa</span>"," ","","exp-sent","bruxa","","",""
"","965","html-keyboard-response","440","763615","0.0-3.0-1.363","<span style=""font-size:30px; font-family: monospace"">tinha</span>"," ","","exp-sent","tinha","","",""
"","676","html-keyboard-response","441","764543","0.0-3.0-1.364","<span style=""font-size:30px; font-family: monospace"">uma</span>"," ","","exp-sent","uma","","",""
"","2037","html-keyboard-response","442","766831","0.0-3.0-1.365","<span style=""font-size:30px; font-family: monospace"">vassoura</span>"," ","","exp-sent","vassoura","","",""
"","510","html-keyboard-response","443","767599","0.0-3.0-1.366","<span style=""font-size:30px; font-family: monospace"">e</span>"," ","","exp-sent","e","","",""
"","725","html-keyboard-response","444","768575","0.0-3.0-1.367","<span style=""font-size:30px; font-family: monospace"">um</span>"," ","","exp-sent","um","","",""
"","933","html-keyboard-response","445","769759","0.0-3.0-1.368","<span style=""font-size:30px; font-family: monospace"">gato.</span>"," ","","exp-sent","gato.","","",""
"","null","html-keyboard-response","446","771012","0.0-3.0-0.369-0.369","<span style= ""font-size:30px; font-family: monospace"">+</span>","null","fixation","","","","",""
"","497","html-keyboard-response","447","771759","0.0-3.0-1.369","<span style=""font-size:30px; font-family: monospace"">Eu</span>"," ","","exp-sent","Eu","","",""
"","709","html-keyboard-response","448","772719","0.0-3.0-1.370","<span style=""font-size:30px; font-family: monospace"">me</span>"," ","","exp-sent","me","","",""
"","2101","html-keyboard-response","449","775071","0.0-3.0-1.371","<span style=""font-size:30px; font-family: monospace"">divirto</span>"," ","","exp-sent","divirto","","",""
"","677","html-keyboard-response","450","775999","0.0-3.0-1.372","<span style=""font-size:30px; font-family: monospace"">em</span>"," ","","exp-sent","em","","",""
"","1493","html-keyboard-response","451","777743","0.0-3.0-1.373","<span style=""font-size:30px; font-family: monospace"">festas</span>"," ","","exp-sent","festas","","",""
"","677","html-keyboard-response","452","778671","0.0-3.0-1.374","<span style=""font-size:30px; font-family: monospace"">de</span>"," ","","exp-sent","de","","",""
"","1621","html-keyboard-response","453","780543","0.0-3.0-1.375","<span style=""font-size:30px; font-family: monospace"">criança.</span>"," ","","exp-sent","criança.","","",""
"","null","html-keyboard-response","454","781795","0.0-3.0-0.376-0.376","<span style= ""font-size:30px; font-family: monospace"">+</span>","null","fixation","","","","",""
"","1281","html-keyboard-response","455","783327","0.0-3.0-1.376","<span style=""font-size:30px; font-family: monospace"">A</span>"," ","","exp-sent","A","","",""
"","1252","html-keyboard-response","456","784831","0.0-3.0-1.377","<span style=""font-size:30px; font-family: monospace"">janela</span>"," ","","exp-sent","janela","","",""
"","1445","html-keyboard-response","457","786527","0.0-3.0-1.378","<span style=""font-size:30px; font-family: monospace"">alta</span>"," ","","exp-sent","alta","","",""
"","1029","html-keyboard-response","458","787807","0.0-3.0-1.379","<span style=""font-size:30px; font-family: monospace"">estava</span>"," ","","exp-sent","estava","","",""
"","2565","html-keyboard-response","459","790623","0.0-3.0-1.380","<span style=""font-size:30px; font-family: monospace"">quebrada</span>"," ","","exp-sent","quebrada","","",""
"","1701","html-keyboard-response","460","792575","0.0-3.0-1.381","<span style=""font-size:30px; font-family: monospace"">desde</span>"," ","","exp-sent","desde","","",""
"","1109","html-keyboard-response","461","793935","0.0-3.0-1.382","<span style=""font-size:30px; font-family: monospace"">ontem.</span>"," ","","comp","ontem.","","",""
"","6597","html-keyboard-response","462","800783","0.0-3.0-2.382-0.382","<span style=""font-size:30px; font-family: monospace"">A janela alta estava quebrada?</span>","s","","comp","","A janela alta estava quebrada?","sim","false"
"","null","html-keyboard-response","463","802284","0.0-3.0-0.383-0.383","<span style= ""font-size:30px; font-family: monospace"">+</span>","null","fixation","","","","",""
"","792","html-keyboard-response","464","803327","0.0-3.0-1.383","<span style=""font-size:30px; font-family: monospace"">O</span>"," ","","exp-sent","O","","",""
"","837","html-keyboard-response","465","804415","0.0-3.0-1.384","<span style=""font-size:30px; font-family: monospace"">texto</span>"," ","","exp-sent","texto","","",""
"","1924","html-keyboard-response","466","806591","0.0-3.0-1.385","<span style=""font-size:30px; font-family: monospace"">trazia</span>"," ","","exp-sent","trazia","","",""
"","789","html-keyboard-response","467","807630","0.0-3.0-1.386","<span style=""font-size:30px; font-family: monospace"">um</span>"," ","","exp-sent","um","","",""
"","1926","html-keyboard-response","468","809823","0.0-3.0-1.387","<span style=""font-size:30px; font-family: monospace"">argumento</span>"," ","","exp-sent","argumento","","",""
"","2341","html-keyboard-response","469","812415","0.0-3.0-1.388","<span style=""font-size:30px; font-family: monospace"">central</span>"," ","","exp-sent","central","","",""
"","674","html-keyboard-response","470","813343","0.0-3.0-1.389","<span style=""font-size:30px; font-family: monospace"">para</span>"," ","","exp-sent","para","","",""
"","421","html-keyboard-response","471","814015","0.0-3.0-1.390","<span style=""font-size:30px; font-family: monospace"">a</span>"," ","","exp-sent","a","","",""
"","869","html-keyboard-response","472","815135","0.0-3.0-1.391","<span style=""font-size:30px; font-family: monospace"">conversa.</span>"," ","","exp-sent","conversa.","","",""
"","null","html-keyboard-response","473","816387","0.0-3.0-0.392-0.392","<span style= ""font-size:30px; font-family: monospace"">+</span>","null","fixation","","","","",""
"","609","html-keyboard-response","474","817247","0.0-3.0-1.392","<span style=""font-size:30px; font-family: monospace"">Ontem</span>"," ","","exp-sent","Ontem","","",""
"","629","html-keyboard-response","475","818127","0.0-3.0-1.393","<span style=""font-size:30px; font-family: monospace"">a</span>"," ","","exp-sent","a","","",""
"","1060","html-keyboard-response","476","819439","0.0-3.0-1.394","<span style=""font-size:30px; font-family: monospace"">temperatura</span>"," ","","exp-sent","temperatura","","",""
"","773","html-keyboard-response","477","820463","0.0-3.0-1.395","<span style=""font-size:30px; font-family: monospace"">estava</span>"," ","","exp-sent","estava","","",""
"","1269","html-keyboard-response","478","821983","0.0-3.0-1.396","<span style=""font-size:30px; font-family: monospace"">amena</span>"," ","","exp-sent","amena","","",""
"","1237","html-keyboard-response","479","823471","0.0-3.0-1.397","<span style=""font-size:30px; font-family: monospace"">durante</span>"," ","","exp-sent","durante","","",""
"","709","html-keyboard-response","480","824431","0.0-3.0-1.398","<span style=""font-size:30px; font-family: monospace"">o</span>"," ","","exp-sent","o","","",""
"","677","html-keyboard-response","481","825359","0.0-3.0-1.399","<span style=""font-size:30px; font-family: monospace"">dia.</span>"," ","","exp-sent","dia.","","",""
"","null","html-keyboard-response","482","826611","0.0-3.0-0.400-0.400","<span style= ""font-size:30px; font-family: monospace"">+</span>","null","fixation","","","","",""
"","1602","html-keyboard-response","483","828463","0.0-3.0-1.400","<span style=""font-size:30px; font-family: monospace"">Havia</span>"," ","","exp-sent","Havia","","",""
"","900","html-keyboard-response","484","829615","0.0-3.0-1.401","<span style=""font-size:30px; font-family: monospace"">um</span>"," ","","exp-sent","um","","",""
"","1189","html-keyboard-response","485","831055","0.0-3.0-1.402","<span style=""font-size:30px; font-family: monospace"">machucado</span>"," ","","exp-sent","machucado","","",""
"","1413","html-keyboard-response","486","832718","0.0-3.0-1.403","<span style=""font-size:30px; font-family: monospace"">no</span>"," ","","exp-sent","no","","",""
"","1589","html-keyboard-response","487","834559","0.0-3.0-1.404","<span style=""font-size:30px; font-family: monospace"">dedo</span>"," ","","exp-sent","dedo","","",""
"","613","html-keyboard-response","488","835423","0.0-3.0-1.405","<span style=""font-size:30px; font-family: monospace"">da</span>"," ","","exp-sent","da","","",""
"","885","html-keyboard-response","489","836559","0.0-3.0-1.406","<span style=""font-size:30px; font-family: monospace"">criança.</span>"," ","","exp-sent","criança.","","",""
"","null","html-keyboard-response","490","837810","0.0-3.0-0.407-0.407","<span style= ""font-size:30px; font-family: monospace"">+</span>","null","fixation","","","","",""
"","594","html-keyboard-response","491","838655","0.0-3.0-1.407","<span style=""font-size:30px; font-family: monospace"">A</span>"," ","","exp-sent","A","","",""
"","1429","html-keyboard-response","492","840335","0.0-3.0-1.408","<span style=""font-size:30px; font-family: monospace"">borboleta</span>"," ","","exp-sent","borboleta","","",""
"","1205","html-keyboard-response","493","841791","0.0-3.0-1.409","<span style=""font-size:30px; font-family: monospace"">pousou</span>"," ","","exp-sent","pousou","","",""
"","613","html-keyboard-response","494","842655","0.0-3.0-1.410","<span style=""font-size:30px; font-family: monospace"">no</span>"," ","","exp-sent","no","","",""
"","1461","html-keyboard-response","495","844367","0.0-3.0-1.411","<span style=""font-size:30px; font-family: monospace"">ombro</span>"," ","","exp-sent","ombro","","",""
"","1781","html-keyboard-response","496","846399","0.0-3.0-1.412","<span style=""font-size:30px; font-family: monospace"">daquela</span>"," ","","exp-sent","daquela","","",""
"","1796","html-keyboard-response","497","848447","0.0-3.0-1.413","<span style=""font-size:30px; font-family: monospace"">moça.</span>"," ","","exp-sent","moça.","","",""
"","null","html-keyboard-response","498","849699","0.0-3.0-0.414-0.414","<span style= ""font-size:30px; font-family: monospace"">+</span>","null","fixation","","","","",""
"","705","html-keyboard-response","499","850655","0.0-3.0-1.414","<span style=""font-size:30px; font-family: monospace"">Eu</span>"," ","","exp-sent","Eu","","",""
"","693","html-keyboard-response","500","851599","0.0-3.0-1.415","<span style=""font-size:30px; font-family: monospace"">quero</span>"," ","","exp-sent","quero","","",""
"","469","html-keyboard-response","501","852319","0.0-3.0-1.416","<span style=""font-size:30px; font-family: monospace"">um</span>"," ","","exp-sent","um","","",""
"","2692","html-keyboard-response","502","855263","0.0-3.0-1.417","<span style=""font-size:30px; font-family: monospace"">namorado</span>"," ","","exp-sent","namorado","","",""
"","2453","html-keyboard-response","503","857967","0.0-3.0-1.418","<span style=""font-size:30px; font-family: monospace"">honesto</span>"," ","","exp-sent","honesto","","",""
"","1044","html-keyboard-response","504","859263","0.0-3.0-1.419","<span style=""font-size:30px; font-family: monospace"">e</span>"," ","","exp-sent","e","","",""
"","2037","html-keyboard-response","505","861551","0.0-3.0-1.420","<span style=""font-size:30px; font-family: monospace"">compreensivo.</span>"," ","","comp","compreensivo.","","",""
"","7845","html-keyboard-response","506","869647","0.0-3.0-2.420-0.420","<span style=""font-size:30px; font-family: monospace"">Eu quero um namorado honesto?</span>","s","","comp","","Eu quero um namorado honesto?","sim","false"
"","null","html-keyboard-response","507","871148","0.0-3.0-0.421-0.421","<span style= ""font-size:30px; font-family: monospace"">+</span>","null","fixation","","","","",""
"","983","html-keyboard-response","508","872383","0.0-3.0-1.421","<span style=""font-size:30px; font-family: monospace"">A</span>"," ","","exp-sent","A","","",""
"","1317","html-keyboard-response","509","873950","0.0-3.0-1.422","<span style=""font-size:30px; font-family: monospace"">senhora</span>"," ","","exp-sent","senhora","","",""
"","1701","html-keyboard-response","510","875903","0.0-3.0-1.423","<span style=""font-size:30px; font-family: monospace"">cumprimentou</span>"," ","","exp-sent","cumprimentou","","",""
"","804","html-keyboard-response","511","876958","0.0-3.0-1.424","<span style=""font-size:30px; font-family: monospace"">o</span>"," ","","exp-sent","o","","",""
"","2004","html-keyboard-response","512","879214","0.0-3.0-1.425","<span style=""font-size:30px; font-family: monospace"">operador</span>"," ","","exp-sent","operador","","",""
"","1461","html-keyboard-response","513","880927","0.0-3.0-1.426","<span style=""font-size:30px; font-family: monospace"">de</span>"," ","","exp-sent","de","","",""
"","852","html-keyboard-response","514","882030","0.0-3.0-1.427","<span style=""font-size:30px; font-family: monospace"">caixa.</span>"," ","","exp-sent","caixa.","","",""
"","null","html-keyboard-response","515","883283","0.0-3.0-0.428-0.428","<span style= ""font-size:30px; font-family: monospace"">+</span>","null","fixation","","","","",""
"","705","html-keyboard-response","516","884238","0.0-3.0-1.428","<span style=""font-size:30px; font-family: monospace"">A</span>"," ","","exp-sent","A","","",""
"","933","html-keyboard-response","517","885423","0.0-3.0-1.429","<span style=""font-size:30px; font-family: monospace"">gente</span>"," ","","exp-sent","gente","","",""
"","901","html-keyboard-response","518","886575","0.0-3.0-1.430","<span style=""font-size:30px; font-family: monospace"">viu</span>"," ","","exp-sent","viu","","",""
"","523","html-keyboard-response","519","887358","0.0-3.0-1.431","<span style=""font-size:30px; font-family: monospace"">o</span>"," ","","exp-sent","o","","",""
"","2933","html-keyboard-response","520","890542","0.0-3.0-1.432","<span style=""font-size:30px; font-family: monospace"">eclipse</span>"," ","","exp-sent","eclipse","","",""
"","2341","html-keyboard-response","521","893135","0.0-3.0-1.433","<span style=""font-size:30px; font-family: monospace"">lunar</span>"," ","","exp-sent","lunar","","",""
"","1141","html-keyboard-response","522","894527","0.0-3.0-1.434","<span style=""font-size:30px; font-family: monospace"">durante</span>"," ","","exp-sent","durante","","",""
"","613","html-keyboard-response","523","895390","0.0-3.0-1.435","<span style=""font-size:30px; font-family: monospace"">o</span>"," ","","exp-sent","o","","",""
"","613","html-keyboard-response","524","896254","0.0-3.0-1.436","<span style=""font-size:30px; font-family: monospace"">dia.</span>"," ","","exp-sent","dia.","","",""
"","null","html-keyboard-response","525","897507","0.0-3.0-0.437-0.437","<span style= ""font-size:30px; font-family: monospace"">+</span>","null","fixation","","","","",""
"","992","html-keyboard-response","526","898750","0.0-3.0-1.437","<span style=""font-size:30px; font-family: monospace"">A</span>"," ","","exp-sent","A","","",""
"","1540","html-keyboard-response","527","900542","0.0-3.0-1.438","<span style=""font-size:30px; font-family: monospace"">mordida</span>"," ","","exp-sent","mordida","","",""
"","485","html-keyboard-response","528","901278","0.0-3.0-1.439","<span style=""font-size:30px; font-family: monospace"">do</span>"," ","","exp-sent","do","","",""
"","1957","html-keyboard-response","529","903487","0.0-3.0-1.440","<span style=""font-size:30px; font-family: monospace"">cachorro</span>"," ","","exp-sent","cachorro","","",""
"","1893","html-keyboard-response","530","905630","0.0-3.0-1.441","<span style=""font-size:30px; font-family: monospace"">voraz</span>"," ","","exp-sent","voraz","","",""
"","1029","html-keyboard-response","531","906910","0.0-3.0-1.442","<span style=""font-size:30px; font-family: monospace"">causou</span>"," ","","exp-sent","causou","","",""
"","597","html-keyboard-response","532","907759","0.0-3.0-1.443","<span style=""font-size:30px; font-family: monospace"">uma</span>"," ","","exp-sent","uma","","",""
"","2148","html-keyboard-response","533","910158","0.0-3.0-1.444","<span style=""font-size:30px; font-family: monospace"">cicatriz.</span>"," ","","exp-sent","cicatriz.","","",""
"","null","html-keyboard-response","534","911411","0.0-3.0-0.445-0.445","<span style= ""font-size:30px; font-family: monospace"">+</span>","null","fixation","","","","",""
"","2289","html-keyboard-response","535","913951","0.0-3.0-1.445","<span style=""font-size:30px; font-family: monospace"">Elas</span>"," ","","exp-sent","Elas","","",""
"","677","html-keyboard-response","536","914878","0.0-3.0-1.446","<span style=""font-size:30px; font-family: monospace"">não</span>"," ","","exp-sent","não","","",""
"","1109","html-keyboard-response","537","916238","0.0-3.0-1.447","<span style=""font-size:30px; font-family: monospace"">viram</span>"," ","","exp-sent","viram","","",""
"","1126","html-keyboard-response","538","917614","0.0-3.0-1.448","<span style=""font-size:30px; font-family: monospace"">nenhuma</span>"," ","","exp-sent","nenhuma","","",""
"","2581","html-keyboard-response","539","920446","0.0-3.0-1.449","<span style=""font-size:30px; font-family: monospace"">diferença</span>"," ","","exp-sent","diferença","","",""
"","1445","html-keyboard-response","540","922142","0.0-3.0-1.450","<span style=""font-size:30px; font-family: monospace"">entre</span>"," ","","exp-sent","entre","","",""
"","582","html-keyboard-response","541","922974","0.0-3.0-1.451","<span style=""font-size:30px; font-family: monospace"">os</span>"," ","","exp-sent","os","","",""
"","1029","html-keyboard-response","542","924255","0.0-3.0-1.452","<span style=""font-size:30px; font-family: monospace"">textos.</span>"," ","","exp-sent","textos.","","",""
"","null","html-keyboard-response","543","925506","0.0-3.0-0.453-0.453","<span style= ""font-size:30px; font-family: monospace"">+</span>","null","fixation","","","","",""
"","1409","html-keyboard-response","544","927166","0.0-3.0-1.453","<span style=""font-size:30px; font-family: monospace"">Amanhã</span>"," ","","exp-sent","Amanhã","","",""
"","1381","html-keyboard-response","545","928798","0.0-3.0-1.454","<span style=""font-size:30px; font-family: monospace"">vai</span>"," ","","exp-sent","vai","","",""
"","565","html-keyboard-response","546","929614","0.0-3.0-1.455","<span style=""font-size:30px; font-family: monospace"">ter</span>"," ","","exp-sent","ter","","",""
"","497","html-keyboard-response","547","930366","0.0-3.0-1.456","<span style=""font-size:30px; font-family: monospace"">um</span>"," ","","exp-sent","um","","",""
"","1412","html-keyboard-response","548","932030","0.0-3.0-1.457","<span style=""font-size:30px; font-family: monospace"">bazar</span>"," ","","exp-sent","bazar","","",""
"","517","html-keyboard-response","549","932798","0.0-3.0-1.458","<span style=""font-size:30px; font-family: monospace"">no</span>"," ","","exp-sent","no","","",""
"","772","html-keyboard-response","550","933822","0.0-3.0-1.459","<span style=""font-size:30px; font-family: monospace"">bairro.</span>"," ","","comp","bairro.","","",""
"","4693","html-keyboard-response","551","938767","0.0-3.0-2.459-0.459","<span style=""font-size:30px; font-family: monospace"">Amanhã vai acontecer um bazar no bairro?</span>","s","","comp","","Amanhã vai acontecer um bazar no bairro?","sim","false"
"","null","html-keyboard-response","552","940268","0.0-3.0-0.460-0.460","<span style= ""font-size:30px; font-family: monospace"">+</span>","null","fixation","","","","",""
"","3335","html-keyboard-response","553","943854","0.0-3.0-1.460","<span style=""font-size:30px; font-family: monospace"">A</span>"," ","","exp-sent","A","","",""
"","997","html-keyboard-response","554","945102","0.0-3.0-1.461","<span style=""font-size:30px; font-family: monospace"">motorista</span>"," ","","exp-sent","motorista","","",""
"","533","html-keyboard-response","555","945886","0.0-3.0-1.462","<span style=""font-size:30px; font-family: monospace"">fez</span>"," ","","exp-sent","fez","","",""
"","469","html-keyboard-response","556","946606","0.0-3.0-1.463","<span style=""font-size:30px; font-family: monospace"">o</span>"," ","","exp-sent","o","","",""
"","869","html-keyboard-response","557","947726","0.0-3.0-1.464","<span style=""font-size:30px; font-family: monospace"">retorno</span>"," ","","exp-sent","retorno","","",""
"","532","html-keyboard-response","558","948510","0.0-3.0-1.465","<span style=""font-size:30px; font-family: monospace"">com</span>"," ","","exp-sent","com","","",""
"","1669","html-keyboard-response","559","950430","0.0-3.0-1.466","<span style=""font-size:30px; font-family: monospace"">cuidado.</span>"," ","","exp-sent","cuidado.","","",""
"","null","html-keyboard-response","560","951683","0.0-3.0-0.467-0.467","<span style= ""font-size:30px; font-family: monospace"">+</span>","null","fixation","","","","",""
"","1424","html-keyboard-response","561","953358","0.0-3.0-1.467","<span style=""font-size:30px; font-family: monospace"">Contos</span>"," ","","exp-sent","Contos","","",""
"","1893","html-keyboard-response","562","955502","0.0-3.0-1.468","<span style=""font-size:30px; font-family: monospace"">de</span>"," ","","exp-sent","de","","",""
"","1333","html-keyboard-response","563","957086","0.0-3.0-1.469","<span style=""font-size:30px; font-family: monospace"">ação</span>"," ","","exp-sent","ação","","",""
"","1733","html-keyboard-response","564","959070","0.0-3.0-1.470","<span style=""font-size:30px; font-family: monospace"">têm</span>"," ","","exp-sent","têm","","",""
"","1973","html-keyboard-response","565","961294","0.0-3.0-1.471","<span style=""font-size:30px; font-family: monospace"">chantagem</span>"," ","","exp-sent","chantagem","","",""
"","661","html-keyboard-response","566","962206","0.0-3.0-1.472","<span style=""font-size:30px; font-family: monospace"">e</span>"," ","","exp-sent","e","","",""
"","901","html-keyboard-response","567","963358","0.0-3.0-1.473","<span style=""font-size:30px; font-family: monospace"">muita</span>"," ","","exp-sent","muita","","",""
"","1397","html-keyboard-response","568","965006","0.0-3.0-1.474","<span style=""font-size:30px; font-family: monospace"">luta.</span>"," ","","exp-sent","luta.","","",""
"","null","html-keyboard-response","569","966259","0.0-3.0-0.475-0.475","<span style= ""font-size:30px; font-family: monospace"">+</span>","null","fixation","","","","",""
"","719","html-keyboard-response","570","967230","0.0-3.0-1.475","<span style=""font-size:30px; font-family: monospace"">A</span>"," ","","exp-sent","A","","",""
"","1572","html-keyboard-response","571","969054","0.0-3.0-1.476","<span style=""font-size:30px; font-family: monospace"">bisavó</span>"," ","","exp-sent","bisavó","","",""
"","1269","html-keyboard-response","572","970574","0.0-3.0-1.477","<span style=""font-size:30px; font-family: monospace"">recebeu</span>"," ","","exp-sent","recebeu","","",""
"","549","html-keyboard-response","573","971374","0.0-3.0-1.478","<span style=""font-size:30px; font-family: monospace"">um</span>"," ","","exp-sent","um","","",""
"","1333","html-keyboard-response","574","972958","0.0-3.0-1.479","<span style=""font-size:30px; font-family: monospace"">benefício</span>"," ","","exp-sent","benefício","","",""
"","3621","html-keyboard-response","575","976830","0.0-3.0-1.480","<span style=""font-size:30px; font-family: monospace"">temporário</span>"," ","","exp-sent","temporário","","",""
"","756","html-keyboard-response","576","977838","0.0-3.0-1.481","<span style=""font-size:30px; font-family: monospace"">do</span>"," ","","exp-sent","do","","",""
"","2133","html-keyboard-response","577","980222","0.0-3.0-1.482","<span style=""font-size:30px; font-family: monospace"">governo.</span>"," ","","exp-sent","governo.","","",""
"","null","html-keyboard-response","578","981474","0.0-3.0-0.483-0.483","<span style= ""font-size:30px; font-family: monospace"">+</span>","null","fixation","","","","",""
"","1265","html-keyboard-response","579","982990","0.0-3.0-1.483","<span style=""font-size:30px; font-family: monospace"">As</span>"," ","","exp-sent","As","","",""
"","821","html-keyboard-response","580","984062","0.0-3.0-1.484","<span style=""font-size:30px; font-family: monospace"">crianças</span>"," ","","exp-sent","crianças","","",""
"","1157","html-keyboard-response","581","985470","0.0-3.0-1.485","<span style=""font-size:30px; font-family: monospace"">brincaram</span>"," ","","exp-sent","brincaram","","",""
"","469","html-keyboard-response","582","986190","0.0-3.0-1.486","<span style=""font-size:30px; font-family: monospace"">no</span>"," ","","exp-sent","no","","",""
"","933","html-keyboard-response","583","987374","0.0-3.0-1.487","<span style=""font-size:30px; font-family: monospace"">balanço</span>"," ","","exp-sent","balanço","","",""
