"view_history","rt","trial_type","trial_index","time_elapsed","internal_node_id","stimulus","response","trial_part","word","question","answer","trial","accuracy"
"[{""page_index"":0,""viewing_time"":25624},{""page_index"":1,""viewing_time"":7296}]","32920","instructions","0","32920","0.0-0.0","","","","","","","",""
"","null","html-keyboard-response","1","34034","0.0-1.0-0.0-0.0","<span style= ""font-size:30px; font-family: monospace"">+</span>","null","fixation","","","","",""
"","9952","audio-keyboard-response","2","44241","0.0-1.0-1.0","../audio/prac-question-1-1.mp3"," ","","O","","","",""
"","2109","audio-keyboard-response","3","46624","0.0-1.0-1.1","../audio/prac-question-1-2.mp3"," ","","dia","","","",""
"","3429","audio-keyboard-response","4","50336","0.0-1.0-1.2","../audio/prac-question-1-3.mp3"," ","","estará","","","",""
"","17901","audio-keyboard-response","5","68512","0.0-1.0-1.3","../audio/prac-question-1-4.mp3"," ","","cheio","","","",""
"","5069","audio-keyboard-response","6","73856","0.0-1.0-1.4","../audio/prac-question-1-5.mp3"," ","","de","","","",""
"","1749","audio-keyboard-response","7","75888","0.0-1.0-1.5","../audio/prac-question-1-6.mp3"," ","","nuvens","","","",""
"","1272","audio-keyboard-response","8","77440","0.0-1.0-1.6","../audio/prac-question-1-7.mp3"," ","","hoje.","","","",""
"","null","html-keyboard-response","9","78706","0.0-1.0-0.7-0.7","<span style= ""font-size:30px; font-family: monospace"">+</span>","null","fixation","","","","",""
"","949","audio-keyboard-response","10","79936","0.0-1.0-1.7","../audio/prac-question-2-1.mp3"," ","","A","","","",""
"","1211","audio-keyboard-response","11","81424","0.0-1.0-1.8","../audio/prac-question-2-2.mp3"," ","","caneca","","","",""
"","1112","audio-keyboard-response","12","82800","0.0-1.0-1.9","../audio/prac-question-2-3.mp3"," ","","colorida","","","",""
"","1099","audio-keyboard-response","13","84176","0.0-1.0-1.10","../audio/prac-question-2-4.mp3"," ","","caiu","","","",""
"","989","audio-keyboard-response","14","85456","0.0-1.0-1.11","../audio/prac-question-2-5.mp3"," ","","da","","","",""
"","1011","audio-keyboard-response","15","86752","0.0-1.0-1.12","../audio/prac-question-2-6.mp3"," ","","mesa","","","",""
"","1080","audio-keyboard-response","16","88112","0.0-1.0-1.13","../audio/prac-question-2-7.mp3"," ","","de","","","",""
"","1240","audio-keyboard-response","17","89632","0.0-1.0-1.14","../audio/prac-question-2-8.mp3"," ","","jantar.","","","",""
"","59271","html-keyboard-response","18","149167","0.0-1.0-2.14-0.14","<span style=""font-size:25px; font-family: monospace"">A caneca era colorida?</span>","n","","","A caneca era colorida?","null","prac-sent","false"
"[{""page_index"":0,""viewing_time"":6899}]","6900","instructions","19","156568","0.0-2.0","","","","","","","",""
"","null","html-keyboard-response","20","157669","0.0-3.0-0.0-0.0","<span style= ""font-size:30px; font-family: monospace"">+</span>","null","fixation","","","","",""
"","1960","audio-keyboard-response","21","160239","0.0-3.0-1.0","../audio/69-1-fem.mp3"," ","","A","","","",""
"","3280","audio-keyboard-response","22","163807","0.0-3.0-1.1","../audio/69-2-fem.mp3"," ","","loja","","","",""
"","2651","audio-keyboard-response","23","166735","0.0-3.0-1.2","../audio/69-3-fem.mp3"," ","","recebeu","","","",""
"","1819","audio-keyboard-response","24","168831","0.0-3.0-1.3","../audio/69-4-fem.mp3"," ","","uma","","","",""
"","2341","audio-keyboard-response","25","171439","0.0-3.0-1.4","../audio/69-5-fem.mp3"," ","","poltrona","","","",""
"","1531","audio-keyboard-response","26","173231","0.0-3.0-1.5","../audio/69-6-fem.mp3"," ","","de","","","",""
"","1952","audio-keyboard-response","27","175455","0.0-3.0-1.6","../audio/69-7-fem.mp3"," ","","couro","","","",""
"","1749","audio-keyboard-response","28","177487","0.0-3.0-1.7","../audio/69-8-fem.mp3"," ","","preto.","","","",""
"","null","html-keyboard-response","29","178758","0.0-3.0-0.8-0.8","<span style= ""font-size:30px; font-family: monospace"">+</span>","null","fixation","","","","",""
"","4771","audio-keyboard-response","30","183790","0.0-3.0-1.8","../audio/66-1-masc.mp3"," ","","Não","","","",""
"","2709","audio-keyboard-response","31","186782","0.0-3.0-1.9","../audio/66-2-masc.mp3"," ","","gosto","","","",""
"","1579","audio-keyboard-response","32","188639","0.0-3.0-1.10","../audio/66-3-masc.mp3"," ","","de","","","",""
"","1880","audio-keyboard-response","33","190799","0.0-3.0-1.11","../audio/66-4-masc.mp3"," ","","gente","","","",""
"","2509","audio-keyboard-response","34","193583","0.0-3.0-1.12","../audio/66-5-masc.mp3"," ","","egoísta","","","",""
"","1589","audio-keyboard-response","35","195439","0.0-3.0-1.13","../audio/66-6-masc.mp3"," ","","nem","","","",""
"","1901","audio-keyboard-response","36","197614","0.0-3.0-1.14","../audio/66-7-masc.mp3"," ","","chata.","","","",""
"","null","html-keyboard-response","37","198872","0.0-3.0-0.15-0.15","<span style= ""font-size:30px; font-family: monospace"">+</span>","null","fixation","","","","",""
"","4221","audio-keyboard-response","38","203375","0.0-3.0-1.15","../audio/68-1-masc.mp3"," ","","Meu","","","",""
"","2168","audio-keyboard-response","39","205822","0.0-3.0-1.16","../audio/68-2-masc.mp3"," ","","irmão","","","",""
"","2261","audio-keyboard-response","40","208366","0.0-3.0-1.17","../audio/68-3-masc.mp3"," ","","teve","","","",""
"","2269","audio-keyboard-response","41","210910","0.0-3.0-1.18","../audio/68-4-masc.mp3"," ","","um","","","",""
"","2611","audio-keyboard-response","42","213790","0.0-3.0-1.19","../audio/68-5-masc.mp3"," ","","noivado","","","",""
"","2272","audio-keyboard-response","43","216335","0.0-3.0-1.20","../audio/68-6-masc.mp3"," ","","longo","","","",""
"","1469","audio-keyboard-response","44","218079","0.0-3.0-1.21","../audio/68-7-masc.mp3"," ","","e","","","",""
"","2429","audio-keyboard-response","45","220782","0.0-3.0-1.22","../audio/68-8-masc.mp3"," ","","maravilhoso.","","","",""
"","null","html-keyboard-response","46","222048","0.0-3.0-0.23-0.23","<span style= ""font-size:30px; font-family: monospace"">+</span>","null","fixation","","","","",""
"","2099","audio-keyboard-response","47","224430","0.0-3.0-1.23","../audio/67-1-fem.mp3"," ","","Minha","","","",""
"","1640","audio-keyboard-response","48","226350","0.0-3.0-1.24","../audio/67-2-fem.mp3"," ","","tia","","","",""
"","2040","audio-keyboard-response","49","228654","0.0-3.0-1.25","../audio/67-3-fem.mp3"," ","","comprou","","","",""
"","1389","audio-keyboard-response","50","230318","0.0-3.0-1.26","../audio/67-4-fem.mp3"," ","","um","","","",""
"","1851","audio-keyboard-response","51","232430","0.0-3.0-1.27","../audio/67-5-fem.mp3"," ","","cordão","","","",""
"","1360","audio-keyboard-response","52","234078","0.0-3.0-1.28","../audio/67-6-fem.mp3"," ","","para","","","",""
"","1192","audio-keyboard-response","53","235534","0.0-3.0-1.29","../audio/67-7-fem.mp3"," ","","o","","","",""
"","1768","audio-keyboard-response","54","237582","0.0-3.0-1.30","../audio/67-8-fem.mp3"," ","","varal.","","","",""
"","null","html-keyboard-response","55","238858","0.0-3.0-0.31-0.31","<span style= ""font-size:30px; font-family: monospace"">+</span>","null","fixation","","","","",""
"","1339","audio-keyboard-response","56","240479","0.0-3.0-1.31","../audio/70-1-fem.mp3"," ","","O","","","",""
"","1869","audio-keyboard-response","57","242622","0.0-3.0-1.32","../audio/70-2-fem.mp3"," ","","meu","","","",""
"","1531","audio-keyboard-response","58","244430","0.0-3.0-1.33","../audio/70-3-fem.mp3"," ","","filho","","","",""
"","1408","audio-keyboard-response","59","246142","0.0-3.0-1.34","../audio/70-4-fem.mp3"," ","","tem","","","",""
"","1349","audio-keyboard-response","60","247758","0.0-3.0-1.35","../audio/70-5-fem.mp3"," ","","medo","","","",""
"","1320","audio-keyboard-response","61","249342","0.0-3.0-1.36","../audio/70-6-fem.mp3"," ","","de","","","",""
"","2349","audio-keyboard-response","62","251966","0.0-3.0-1.37","../audio/70-7-fem.mp3"," ","","enguia","","","",""
"","1109","audio-keyboard-response","63","253358","0.0-3.0-1.38","../audio/70-8-fem.mp3"," ","","e","","","",""
"","2819","audio-keyboard-response","64","256462","0.0-3.0-1.39","../audio/70-9-fem.mp3"," ","","beija-flor.","","","",""
"","5192","html-keyboard-response","65","261918","0.0-3.0-2.39-0.39","<span style=""font-size:25px; font-family: monospace"">O filho tem medo de tigre?</span>","s","","","O filho tem medo de tigre?","null","exp-sent","false"
"","null","html-keyboard-response","66","263446","0.0-3.0-0.40-0.40","<span style= ""font-size:30px; font-family: monospace"">+</span>","null","fixation","","","","",""
"","1840","audio-keyboard-response","67","265550","0.0-3.0-1.40","../audio/08-1-fem.mp3"," ","","A","","","",""
"","1680","audio-keyboard-response","68","267518","0.0-3.0-1.41","../audio/08-2-fem.mp3"," ","","receita","","","",""
"","1331","audio-keyboard-response","69","269118","0.0-3.0-1.42","../audio/08-3-fem.mp3"," ","","pede","","","",""
"","1040","audio-keyboard-response","70","270430","0.0-3.0-1.43","../audio/08-4-fem.mp3"," ","","um","","","",""
"","1200","audio-keyboard-response","71","271902","0.0-3.0-1.44","../audio/08-5-fem.mp3"," ","","litro","","","",""
"","1040","audio-keyboard-response","72","273214","0.0-3.0-1.45","../audio/08-6-fem.mp3"," ","","de","","","",""
"","1349","audio-keyboard-response","73","274830","0.0-3.0-1.46","../audio/08-7-fem.mp3"," ","","leite","","","",""
"","1291","audio-keyboard-response","74","276398","0.0-3.0-1.47","../audio/08-8-fem.mp3"," ","","integral.","","","",""
"","null","html-keyboard-response","75","277658","0.0-3.0-0.48-0.48","<span style= ""font-size:30px; font-family: monospace"">+</span>","null","fixation","","","","",""
"","1459","audio-keyboard-response","76","279390","0.0-3.0-1.48","../audio/07-1-fem.mp3"," ","","Meu","","","",""
"","1371","audio-keyboard-response","77","281038","0.0-3.0-1.49","../audio/07-2-fem.mp3"," ","","filho","","","",""
"","1149","audio-keyboard-response","78","282462","0.0-3.0-1.50","../audio/07-3-fem.mp3"," ","","é","","","",""
"","1179","audio-keyboard-response","79","283918","0.0-3.0-1.51","../audio/07-4-fem.mp3"," ","","muito","","","",""
"","1331","audio-keyboard-response","80","285518","0.0-3.0-1.52","../audio/07-5-fem.mp3"," ","","responsável","","","",""
"","1059","audio-keyboard-response","81","286862","0.0-3.0-1.53","../audio/07-6-fem.mp3"," ","","nos","","","",""
"","1352","audio-keyboard-response","82","288494","0.0-3.0-1.54","../audio/07-7-fem.mp3"," ","","estudos.","","","",""
"","null","html-keyboard-response","83","289772","0.0-3.0-0.55-0.55","<span style= ""font-size:30px; font-family: monospace"">+</span>","null","fixation","","","","",""
"","811","audio-keyboard-response","84","290878","0.0-3.0-1.55","../audio/09-1-fem.mp3"," ","","O","","","",""
"","1691","audio-keyboard-response","85","292830","0.0-3.0-1.56","../audio/09-2-fem.mp3"," ","","rapaz","","","",""
"","1611","audio-keyboard-response","86","294718","0.0-3.0-1.57","../audio/09-3-fem.mp3"," ","","limpou","","","",""
"","1021","audio-keyboard-response","87","296014","0.0-3.0-1.58","../audio/09-4-fem.mp3"," ","","o","","","",""
"","1429","audio-keyboard-response","88","297726","0.0-3.0-1.59","../audio/09-5-fem.mp3"," ","","terreno","","","",""
"","1251","audio-keyboard-response","89","299246","0.0-3.0-1.60","../audio/09-6-fem.mp3"," ","","com","","","",""
"","1200","audio-keyboard-response","90","300718","0.0-3.0-1.61","../audio/09-7-fem.mp3"," ","","uma","","","",""
"","981","audio-keyboard-response","91","301966","0.0-3.0-1.62","../audio/09-8-fem.mp3"," ","","pá.","","","",""
"","null","html-keyboard-response","92","303228","0.0-3.0-0.63-0.63","<span style= ""font-size:30px; font-family: monospace"">+</span>","null","fixation","","","","",""
"","2280","audio-keyboard-response","93","305790","0.0-3.0-1.63","../audio/06-1-masc.mp3"," ","","Ouvimos","","","",""
"","1181","audio-keyboard-response","94","307246","0.0-3.0-1.64","../audio/06-2-masc.mp3"," ","","a","","","",""
"","1349","audio-keyboard-response","95","308862","0.0-3.0-1.65","../audio/06-3-masc.mp3"," ","","fala","","","",""
"","1149","audio-keyboard-response","96","310286","0.0-3.0-1.66","../audio/06-4-masc.mp3"," ","","do","","","",""
"","1520","audio-keyboard-response","97","312078","0.0-3.0-1.67","../audio/06-5-masc.mp3"," ","","profeta","","","",""
"","1091","audio-keyboard-response","98","313454","0.0-3.0-1.68","../audio/06-6-masc.mp3"," ","","no","","","",""
"","1448","audio-keyboard-response","99","315182","0.0-3.0-1.69","../audio/06-7-masc.mp3"," ","","púlpito","","","",""
"","1168","audio-keyboard-response","100","316622","0.0-3.0-1.70","../audio/06-8-masc.mp3"," ","","da","","","",""
"","1261","audio-keyboard-response","101","318158","0.0-3.0-1.71","../audio/06-9-masc.mp3"," ","","igreja.","","","",""
"","null","html-keyboard-response","102","319433","0.0-3.0-0.72-0.72","<span style= ""font-size:30px; font-family: monospace"">+</span>","null","fixation","","","","",""
"","1101","audio-keyboard-response","103","320814","0.0-3.0-1.72","../audio/10-1-masc.mp3"," ","","O","","","",""
"","1669","audio-keyboard-response","104","322750","0.0-3.0-1.73","../audio/10-2-masc.mp3"," ","","pássaro","","","",""
"","1451","audio-keyboard-response","105","324478","0.0-3.0-1.74","../audio/10-3-masc.mp3"," ","","azul","","","",""
"","1840","audio-keyboard-response","106","326590","0.0-3.0-1.75","../audio/10-4-masc.mp3"," ","","estava","","","",""
"","1640","audio-keyboard-response","107","328510","0.0-3.0-1.76","../audio/10-5-masc.mp3"," ","","vivo","","","",""
"","1531","audio-keyboard-response","108","330318","0.0-3.0-1.77","../audio/10-6-masc.mp3"," ","","e","","","",""
"","1389","audio-keyboard-response","109","331982","0.0-3.0-1.78","../audio/10-7-masc.mp3"," ","","em","","","",""
"","1808","audio-keyboard-response","110","334062","0.0-3.0-1.79","../audio/10-8-masc.mp3"," ","","segurança.","","","",""
"","3768","html-keyboard-response","111","338094","0.0-3.0-2.79-0.79","<span style=""font-size:25px; font-family: monospace"">O pássaro vermelho estava em segurança?</span>","s","","","O pássaro vermelho estava em segurança?","null","exp-sent","false"
"","null","html-keyboard-response","112","339622","0.0-3.0-0.80-0.80","<span style= ""font-size:30px; font-family: monospace"">+</span>","null","fixation","","","","",""
"","120","audio-keyboard-response","113","340030","0.0-3.0-1.80","../audio/41-1-fem.mp3"," ","","A","","","",""
"","1840","audio-keyboard-response","114","342142","0.0-3.0-1.81","../audio/41-2-fem.mp3"," ","","novela","","","",""
"","1480","audio-keyboard-response","115","343902","0.0-3.0-1.82","../audio/41-3-fem.mp3"," ","","falava","","","",""
"","1032","audio-keyboard-response","116","345214","0.0-3.0-1.83","../audio/41-4-fem.mp3"," ","","de","","","",""
"","1419","audio-keyboard-response","117","346910","0.0-3.0-1.84","../audio/41-5-fem.mp3"," ","","paixão","","","",""
"","971","audio-keyboard-response","118","348158","0.0-3.0-1.85","../audio/41-6-fem.mp3"," ","","e","","","",""
"","1181","audio-keyboard-response","119","349614","0.0-3.0-1.86","../audio/41-7-fem.mp3"," ","","comédia.","","","",""
"","null","html-keyboard-response","120","350872","0.0-3.0-0.87-0.87","<span style= ""font-size:30px; font-family: monospace"">+</span>","null","fixation","","","","",""
"","2141","audio-keyboard-response","121","353294","0.0-3.0-1.87","../audio/44-1-masc.mp3"," ","","Meus","","","",""
"","1448","audio-keyboard-response","122","355022","0.0-3.0-1.88","../audio/44-2-masc.mp3"," ","","irmãos","","","",""
"","1301","audio-keyboard-response","123","356606","0.0-3.0-1.89","../audio/44-3-masc.mp3"," ","","brigam","","","",""
"","800","audio-keyboard-response","124","357678","0.0-3.0-1.90","../audio/44-4-masc.mp3"," ","","por","","","",""
"","1341","audio-keyboard-response","125","359294","0.0-3.0-1.91","../audio/44-5-masc.mp3"," ","","bobagem","","","",""
"","968","audio-keyboard-response","126","360542","0.0-3.0-1.92","../audio/44-6-masc.mp3"," ","","todos","","","",""
"","899","audio-keyboard-response","127","361710","0.0-3.0-1.93","../audio/44-7-masc.mp3"," ","","os","","","",""
"","1040","audio-keyboard-response","128","363022","0.0-3.0-1.94","../audio/44-8-masc.mp3"," ","","dias.","","","",""
"","null","html-keyboard-response","129","364290","0.0-3.0-0.95-0.95","<span style= ""font-size:30px; font-family: monospace"">+</span>","null","fixation","","","","",""
"","1149","audio-keyboard-response","130","365726","0.0-3.0-1.95","../audio/43-1-masc.mp3"," ","","Eu","","","",""
"","1061","audio-keyboard-response","131","367054","0.0-3.0-1.96","../audio/43-2-masc.mp3"," ","","achei","","","",""
"","1029","audio-keyboard-response","132","368350","0.0-3.0-1.97","../audio/43-3-masc.mp3"," ","","um","","","",""
"","1440","audio-keyboard-response","133","370062","0.0-3.0-1.98","../audio/43-4-masc.mp3"," ","","colchão","","","",""
"","1181","audio-keyboard-response","134","371518","0.0-3.0-1.99","../audio/43-5-masc.mp3"," ","","velho","","","",""
"","1000","audio-keyboard-response","135","372782","0.0-3.0-1.100","../audio/43-6-masc.mp3"," ","","e","","","",""
"","1099","audio-keyboard-response","136","374158","0.0-3.0-1.101","../audio/43-7-masc.mp3"," ","","imundo","","","",""
"","1112","audio-keyboard-response","137","375534","0.0-3.0-1.102","../audio/43-8-masc.mp3"," ","","na","","","",""
"","1139","audio-keyboard-response","138","376942","0.0-3.0-1.103","../audio/43-9-masc.mp3"," ","","casa.","","","",""
"","null","html-keyboard-response","139","378208","0.0-3.0-0.104-0.104","<span style= ""font-size:30px; font-family: monospace"">+</span>","null","fixation","","","","",""
"","779","audio-keyboard-response","140","379278","0.0-3.0-1.104","../audio/42-1-masc.mp3"," ","","Eu","","","",""
"","960","audio-keyboard-response","141","380510","0.0-3.0-1.105","../audio/42-2-masc.mp3"," ","","fui","","","",""
"","861","audio-keyboard-response","142","381646","0.0-3.0-1.106","../audio/42-3-masc.mp3"," ","","a","","","",""
"","1531","audio-keyboard-response","143","383454","0.0-3.0-1.107","../audio/42-4-masc.mp3"," ","","uma","","","",""
"","1309","audio-keyboard-response","144","385038","0.0-3.0-1.108","../audio/42-5-masc.mp3"," ","","loja","","","",""
"","749","audio-keyboard-response","145","386062","0.0-3.0-1.109","../audio/42-6-masc.mp3"," ","","de","","","",""
"","1131","audio-keyboard-response","146","387470","0.0-3.0-1.110","../audio/42-7-masc.mp3"," ","","móveis","","","",""
"","981","audio-keyboard-response","147","388733","0.0-3.0-1.111","../audio/42-8-masc.mp3"," ","","no","","","",""
"","1040","audio-keyboard-response","148","390045","0.0-3.0-1.112","../audio/42-9-masc.mp3"," ","","bairro.","","","",""
"","null","html-keyboard-response","149","391311","0.0-3.0-0.113-0.113","<span style= ""font-size:30px; font-family: monospace"">+</span>","null","fixation","","","","",""
"","832","audio-keyboard-response","150","392413","0.0-3.0-1.113","../audio/45-1-masc.mp3"," ","","O","","","",""
"","949","audio-keyboard-response","151","393630","0.0-3.0-1.114","../audio/45-2-masc.mp3"," ","","homem","","","",""
"","1091","audio-keyboard-response","152","394989","0.0-3.0-1.115","../audio/45-3-masc.mp3"," ","","pagou","","","",""
"","851","audio-keyboard-response","153","396109","0.0-3.0-1.116","../audio/45-4-masc.mp3"," ","","o","","","",""
"","981","audio-keyboard-response","154","397374","0.0-3.0-1.117","../audio/45-5-masc.mp3"," ","","aluguel","","","",""
"","808","audio-keyboard-response","155","398461","0.0-3.0-1.118","../audio/45-6-masc.mp3"," ","","com","","","",""
"","1059","audio-keyboard-response","156","399790","0.0-3.0-1.119","../audio/45-7-masc.mp3"," ","","atraso.","","","",""
"","12485","html-keyboard-response","157","412526","0.0-3.0-2.119-0.119","<span style=""font-size:25px; font-family: monospace"">O homem pagou o aluguel em dia?</span>","n","","","O homem pagou o aluguel em dia?","null","exp-sent","false"
"","null","html-keyboard-response","158","414041","0.0-3.0-0.120-0.120","<span style= ""font-size:30px; font-family: monospace"">+</span>","null","fixation","","","","",""
"","1131","audio-keyboard-response","159","415454","0.0-3.0-1.120","../audio/61-1-fem.mp3"," ","","Aquele","","","",""
"","1109","audio-keyboard-response","160","416829","0.0-3.0-1.121","../audio/61-2-fem.mp3"," ","","senhor","","","",""
"","851","audio-keyboard-response","161","417949","0.0-3.0-1.122","../audio/61-3-fem.mp3"," ","","é","","","",""
"","960","audio-keyboard-response","162","419181","0.0-3.0-1.123","../audio/61-4-fem.mp3"," ","","muito","","","",""
"","1080","audio-keyboard-response","163","420542","0.0-3.0-1.124","../audio/61-5-fem.mp3"," ","","sovina","","","",""
"","789","audio-keyboard-response","164","421598","0.0-3.0-1.125","../audio/61-6-fem.mp3"," ","","e","","","",""
"","2051","audio-keyboard-response","165","423934","0.0-3.0-1.126","../audio/61-7-fem.mp3"," ","","inflexível.","","","",""
"","null","html-keyboard-response","166","425203","0.0-3.0-0.127-0.127","<span style= ""font-size:30px; font-family: monospace"">+</span>","null","fixation","","","","",""
"","1640","audio-keyboard-response","167","427117","0.0-3.0-1.127","../audio/62-1-fem.mp3"," ","","As","","","",""
"","1731","audio-keyboard-response","168","429133","0.0-3.0-1.128","../audio/62-2-fem.mp3"," ","","artesãs","","","",""
"","1520","audio-keyboard-response","169","430925","0.0-3.0-1.129","../audio/62-3-fem.mp3"," ","","gostam","","","",""
"","949","audio-keyboard-response","170","432157","0.0-3.0-1.130","../audio/62-4-fem.mp3"," ","","de","","","",""
"","1291","audio-keyboard-response","171","433709","0.0-3.0-1.131","../audio/62-5-fem.mp3"," ","","maquiagem","","","",""
"","808","audio-keyboard-response","172","434781","0.0-3.0-1.132","../audio/62-6-fem.mp3"," ","","e","","","",""
"","869","audio-keyboard-response","173","435917","0.0-3.0-1.133","../audio/62-7-fem.mp3"," ","","de","","","",""
"","1149","audio-keyboard-response","174","437341","0.0-3.0-1.134","../audio/62-8-fem.mp3"," ","","crochê.","","","",""
"","null","html-keyboard-response","175","438617","0.0-3.0-0.135-0.135","<span style= ""font-size:30px; font-family: monospace"">+</span>","null","fixation","","","","",""
"","829","audio-keyboard-response","176","439709","0.0-3.0-1.135","../audio/64-1-fem.mp3"," ","","O","","","",""
"","832","audio-keyboard-response","177","440813","0.0-3.0-1.136","../audio/64-2-fem.mp3"," ","","dia","","","",""
"","1029","audio-keyboard-response","178","442125","0.0-3.0-1.137","../audio/64-3-fem.mp3"," ","","começou","","","",""
"","939","audio-keyboard-response","179","443341","0.0-3.0-1.138","../audio/64-4-fem.mp3"," ","","com","","","",""
"","1149","audio-keyboard-response","180","444765","0.0-3.0-1.139","../audio/64-5-fem.mp3"," ","","garoa","","","",""
"","1309","audio-keyboard-response","181","446349","0.0-3.0-1.140","../audio/64-6-fem.mp3"," ","","gelada","","","",""
"","701","audio-keyboard-response","182","447325","0.0-3.0-1.141","../audio/64-7-fem.mp3"," ","","e","","","",""
"","989","audio-keyboard-response","183","448589","0.0-3.0-1.142","../audio/64-8-fem.mp3"," ","","leve.","","","",""
"","null","html-keyboard-response","184","449848","0.0-3.0-0.143-0.143","<span style= ""font-size:30px; font-family: monospace"">+</span>","null","fixation","","","","",""
"","691","audio-keyboard-response","185","450813","0.0-3.0-1.143","../audio/63-1-fem.mp3"," ","","A","","","",""
"","1000","audio-keyboard-response","186","452093","0.0-3.0-1.144","../audio/63-2-fem.mp3"," ","","chuva","","","",""
"","1109","audio-keyboard-response","187","453469","0.0-3.0-1.145","../audio/63-3-fem.mp3"," ","","entrou","","","",""
"","840","audio-keyboard-response","188","454573","0.0-3.0-1.146","../audio/63-4-fem.mp3"," ","","pela","","","",""
"","1379","audio-keyboard-response","189","456221","0.0-3.0-1.147","../audio/63-5-fem.mp3"," ","","abertura","","","",""
"","779","audio-keyboard-response","190","457261","0.0-3.0-1.148","../audio/63-6-fem.mp3"," ","","na","","","",""
"","1168","audio-keyboard-response","191","458701","0.0-3.0-1.149","../audio/63-7-fem.mp3"," ","","janela.","","","",""
"","null","html-keyboard-response","192","459967","0.0-3.0-0.150-0.150","<span style= ""font-size:30px; font-family: monospace"">+</span>","null","fixation","","","","",""
"","821","audio-keyboard-response","193","461053","0.0-3.0-1.150","../audio/65-1-masc.mp3"," ","","O","","","",""
"","1139","audio-keyboard-response","194","462461","0.0-3.0-1.151","../audio/65-2-masc.mp3"," ","","fantasma","","","",""
"","899","audio-keyboard-response","195","463629","0.0-3.0-1.152","../audio/65-3-masc.mp3"," ","","veio","","","",""
"","851","audio-keyboard-response","196","464749","0.0-3.0-1.153","../audio/65-4-masc.mp3"," ","","da","","","",""
"","1349","audio-keyboard-response","197","466381","0.0-3.0-1.154","../audio/65-5-masc.mp3"," ","","escuridão","","","",""
"","829","audio-keyboard-response","198","467485","0.0-3.0-1.155","../audio/65-6-masc.mp3"," ","","do","","","",""
"","1309","audio-keyboard-response","199","469069","0.0-3.0-1.156","../audio/65-7-masc.mp3"," ","","armário.","","","",""
"","2984","html-keyboard-response","200","472317","0.0-3.0-2.156-0.156","<span style=""font-size:25px; font-family: monospace"">O fantasma veio da escuridão do armário?</span>","s","","","O fantasma veio da escuridão do armário?","null","exp-sent","false"
"","null","html-keyboard-response","201","473832","0.0-3.0-0.157-0.157","<span style= ""font-size:30px; font-family: monospace"">+</span>","null","fixation","","","","",""
"","26160","audio-keyboard-response","202","500269","0.0-3.0-1.157","../audio/56-1-masc.mp3"," ","","A","","","",""
"","2440","audio-keyboard-response","203","503004","0.0-3.0-1.158","../audio/56-2-masc.mp3"," ","","moça","","","",""
"","1179","audio-keyboard-response","204","504460","0.0-3.0-1.159","../audio/56-3-masc.mp3"," ","","foi","","","",""
"","1059","audio-keyboard-response","205","505788","0.0-3.0-1.160","../audio/56-4-masc.mp3"," ","","à","","","",""
"","1261","audio-keyboard-response","206","507324","0.0-3.0-1.161","../audio/56-5-masc.mp3"," ","","agência","","","",""
"","1251","audio-keyboard-response","207","508844","0.0-3.0-1.162","../audio/56-6-masc.mp3"," ","","bancária","","","",""
"","1040","audio-keyboard-response","208","510156","0.0-3.0-1.163","../audio/56-7-masc.mp3"," ","","ontem","","","",""
"","909","audio-keyboard-response","209","511340","0.0-3.0-1.164","../audio/56-8-masc.mp3"," ","","de","","","",""
"","1352","audio-keyboard-response","210","512972","0.0-3.0-1.165","../audio/56-9-masc.mp3"," ","","tarde.","","","",""
"","null","html-keyboard-response","211","514229","0.0-3.0-0.166-0.166","<span style= ""font-size:30px; font-family: monospace"">+</span>","null","fixation","","","","",""
"","640","audio-keyboard-response","212","515148","0.0-3.0-1.166","../audio/57-1-masc.mp3"," ","","O","","","",""
"","1160","audio-keyboard-response","213","516588","0.0-3.0-1.167","../audio/57-2-masc.mp3"," ","","capitão","","","",""
"","1091","audio-keyboard-response","214","517948","0.0-3.0-1.168","../audio/57-3-masc.mp3"," ","","deu","","","",""
"","992","audio-keyboard-response","215","519212","0.0-3.0-1.169","../audio/57-4-masc.mp3"," ","","uma","","","",""
"","1320","audio-keyboard-response","216","520812","0.0-3.0-1.170","../audio/57-5-masc.mp3"," ","","instrução","","","",""
"","869","audio-keyboard-response","217","521948","0.0-3.0-1.171","../audio/57-6-masc.mp3"," ","","para","","","",""
"","869","audio-keyboard-response","218","523084","0.0-3.0-1.172","../audio/57-7-masc.mp3"," ","","as","","","",""
"","1051","audio-keyboard-response","219","524412","0.0-3.0-1.173","../audio/57-8-masc.mp3"," ","","pessoas.","","","",""
"","null","html-keyboard-response","220","525692","0.0-3.0-0.174-0.174","<span style= ""font-size:30px; font-family: monospace"">+</span>","null","fixation","","","","",""
"","859","audio-keyboard-response","221","526828","0.0-3.0-1.174","../audio/58-1-masc.mp3"," ","","Havia","","","",""
"","1011","audio-keyboard-response","222","528124","0.0-3.0-1.175","../audio/58-2-masc.mp3"," ","","apenas","","","",""
"","760","audio-keyboard-response","223","529164","0.0-3.0-1.176","../audio/58-3-masc.mp3"," ","","um","","","",""
"","1131","audio-keyboard-response","224","530572","0.0-3.0-1.177","../audio/58-4-masc.mp3"," ","","último","","","",""
"","1099","audio-keyboard-response","225","531948","0.0-3.0-1.178","../audio/58-5-masc.mp3"," ","","herdeiro","","","",""
"","741","audio-keyboard-response","226","532956","0.0-3.0-1.179","../audio/58-6-masc.mp3"," ","","do","","","",""
"","992","audio-keyboard-response","227","534252","0.0-3.0-1.180","../audio/58-7-masc.mp3"," ","","dinheiro.","","","",""
"","null","html-keyboard-response","228","535517","0.0-3.0-0.181-0.181","<span style= ""font-size:30px; font-family: monospace"">+</span>","null","fixation","","","","",""
"","821","audio-keyboard-response","229","536604","0.0-3.0-1.181","../audio/59-1-fem.mp3"," ","","O","","","",""
"","1029","audio-keyboard-response","230","537916","0.0-3.0-1.182","../audio/59-2-fem.mp3"," ","","carteiro","","","",""
"","861","audio-keyboard-response","231","539052","0.0-3.0-1.183","../audio/59-3-fem.mp3"," ","","fez","","","",""
"","800","audio-keyboard-response","232","540124","0.0-3.0-1.184","../audio/59-4-fem.mp3"," ","","uma","","","",""
"","891","audio-keyboard-response","233","541292","0.0-3.0-1.185","../audio/59-5-fem.mp3"," ","","tentativa","","","",""
"","1219","audio-keyboard-response","234","542780","0.0-3.0-1.186","../audio/59-6-fem.mp3"," ","","de","","","",""
"","1189","audio-keyboard-response","235","544236","0.0-3.0-1.187","../audio/59-7-fem.mp3"," ","","entrega.","","","",""
"","null","html-keyboard-response","236","545494","0.0-3.0-0.188-0.188","<span style= ""font-size:30px; font-family: monospace"">+</span>","null","fixation","","","","",""
"","1149","audio-keyboard-response","237","546908","0.0-3.0-1.188","../audio/60-1-masc.mp3"," ","","Ondas","","","",""
"","941","audio-keyboard-response","238","548124","0.0-3.0-1.189","../audio/60-2-masc.mp3"," ","","têm","","","",""
"","1131","audio-keyboard-response","239","549516","0.0-3.0-1.190","../audio/60-3-masc.mp3"," ","","um","","","",""
"","1059","audio-keyboard-response","240","550860","0.0-3.0-1.191","../audio/60-4-masc.mp3"," ","","impacto","","","",""
"","1600","audio-keyboard-response","241","552732","0.0-3.0-1.192","../audio/60-5-masc.mp3"," ","","destrutivo","","","",""
"","960","audio-keyboard-response","242","553964","0.0-3.0-1.193","../audio/60-6-masc.mp3"," ","","no","","","",""
"","1160","audio-keyboard-response","243","555420","0.0-3.0-1.194","../audio/60-7-masc.mp3"," ","","litoral.","","","",""
"","6673","html-keyboard-response","244","562348","0.0-3.0-2.194-0.194","<span style=""font-size:25px; font-family: monospace"">Ondas têm um impacto destrutivo?</span>","s","","","Ondas têm um impacto destrutivo?","null","exp-sent","false"
"","null","html-keyboard-response","245","563876","0.0-3.0-0.195-0.195","<span style= ""font-size:30px; font-family: monospace"">+</span>","null","fixation","","","","",""
"","1400","audio-keyboard-response","246","565564","0.0-3.0-1.195","../audio/17-1-masc.mp3"," ","","Falaram","","","",""
"","891","audio-keyboard-response","247","566716","0.0-3.0-1.196","../audio/17-2-masc.mp3"," ","","da","","","",""
"","840","audio-keyboard-response","248","567820","0.0-3.0-1.197","../audio/17-3-masc.mp3"," ","","lei","","","",""
"","821","audio-keyboard-response","249","568924","0.0-3.0-1.198","../audio/17-4-masc.mp3"," ","","no","","","",""
"","1179","audio-keyboard-response","250","570380","0.0-3.0-1.199","../audio/17-5-masc.mp3"," ","","ministério","","","",""
"","1259","audio-keyboard-response","251","571916","0.0-3.0-1.200","../audio/17-6-masc.mp3"," ","","diversas","","","",""
"","1101","audio-keyboard-response","252","573292","0.0-3.0-1.201","../audio/17-7-masc.mp3"," ","","vezes.","","","",""
"","null","html-keyboard-response","253","574571","0.0-3.0-0.202-0.202","<span style= ""font-size:30px; font-family: monospace"">+</span>","null","fixation","","","","",""
"","1091","audio-keyboard-response","254","575932","0.0-3.0-1.202","../audio/16-1-masc.mp3"," ","","Eu","","","",""
"","1021","audio-keyboard-response","255","577244","0.0-3.0-1.203","../audio/16-2-masc.mp3"," ","","nunca","","","",""
"","1211","audio-keyboard-response","256","578732","0.0-3.0-1.204","../audio/16-3-masc.mp3"," ","","conheci","","","",""
"","1149","audio-keyboard-response","257","580156","0.0-3.0-1.205","../audio/16-4-masc.mp3"," ","","um","","","",""
"","1469","audio-keyboard-response","258","581916","0.0-3.0-1.206","../audio/16-5-masc.mp3"," ","","general","","","",""
"","840","audio-keyboard-response","259","583036","0.0-3.0-1.207","../audio/16-6-masc.mp3"," ","","do","","","",""
"","1349","audio-keyboard-response","260","584668","0.0-3.0-1.208","../audio/16-7-masc.mp3"," ","","exército.","","","",""
"","null","html-keyboard-response","261","585946","0.0-3.0-0.209-0.209","<span style= ""font-size:30px; font-family: monospace"">+</span>","null","fixation","","","","",""
"","771","audio-keyboard-response","262","587004","0.0-3.0-1.209","../audio/19-1-masc.mp3"," ","","O","","","",""
"","1000","audio-keyboard-response","263","588268","0.0-3.0-1.210","../audio/19-2-masc.mp3"," ","","menino","","","",""
"","1139","audio-keyboard-response","264","589676","0.0-3.0-1.211","../audio/19-3-masc.mp3"," ","","ganhou","","","",""
"","869","audio-keyboard-response","265","590828","0.0-3.0-1.212","../audio/19-4-masc.mp3"," ","","uma","","","",""
"","1101","audio-keyboard-response","266","592204","0.0-3.0-1.213","../audio/19-5-masc.mp3"," ","","bala","","","",""
"","1011","audio-keyboard-response","267","593484","0.0-3.0-1.214","../audio/19-6-masc.mp3"," ","","depois","","","",""
"","821","audio-keyboard-response","268","594572","0.0-3.0-1.215","../audio/19-7-masc.mp3"," ","","do","","","",""
"","1389","audio-keyboard-response","269","596236","0.0-3.0-1.216","../audio/19-8-masc.mp3"," ","","almoço.","","","",""
"","null","html-keyboard-response","270","597512","0.0-3.0-0.217-0.217","<span style= ""font-size:30px; font-family: monospace"">+</span>","null","fixation","","","","",""
"","5101","audio-keyboard-response","271","602892","0.0-3.0-1.217","../audio/18-1-masc.mp3"," ","","O","","","",""
"","1480","audio-keyboard-response","272","604652","0.0-3.0-1.218","../audio/18-2-masc.mp3"," ","","enredo","","","",""
"","1040","audio-keyboard-response","273","605964","0.0-3.0-1.219","../audio/18-3-masc.mp3"," ","","traz","","","",""
"","869","audio-keyboard-response","274","607116","0.0-3.0-1.220","../audio/18-4-masc.mp3"," ","","um","","","",""
"","1040","audio-keyboard-response","275","608428","0.0-3.0-1.221","../audio/18-5-masc.mp3"," ","","dragão","","","",""
"","1091","audio-keyboard-response","276","609788","0.0-3.0-1.222","../audio/18-6-masc.mp3"," ","","forte","","","",""
"","851","audio-keyboard-response","277","610908","0.0-3.0-1.223","../audio/18-7-masc.mp3"," ","","e","","","",""
"","1131","audio-keyboard-response","278","612316","0.0-3.0-1.224","../audio/18-8-masc.mp3"," ","","solitário.","","","",""
"","null","html-keyboard-response","279","613572","0.0-3.0-0.225-0.225","<span style= ""font-size:30px; font-family: monospace"">+</span>","null","fixation","","","","",""
"","651","audio-keyboard-response","280","614492","0.0-3.0-1.225","../audio/20-1-masc.mp3"," ","","O","","","",""
"","880","audio-keyboard-response","281","615644","0.0-3.0-1.226","../audio/20-2-masc.mp3"," ","","colega","","","",""
"","1080","audio-keyboard-response","282","617004","0.0-3.0-1.227","../audio/20-3-masc.mp3"," ","","parecia","","","",""
"","840","audio-keyboard-response","283","618124","0.0-3.0-1.228","../audio/20-4-masc.mp3"," ","","muito","","","",""
"","1099","audio-keyboard-response","284","619516","0.0-3.0-1.229","../audio/20-5-masc.mp3"," ","","gripado","","","",""
"","960","audio-keyboard-response","285","620748","0.0-3.0-1.230","../audio/20-6-masc.mp3"," ","","no","","","",""
"","992","audio-keyboard-response","286","622012","0.0-3.0-1.231","../audio/20-7-masc.mp3"," ","","dia","","","",""
"","1269","audio-keyboard-response","287","623564","0.0-3.0-1.232","../audio/20-8-masc.mp3"," ","","anterior.","","","",""
"","12291","html-keyboard-response","288","636108","0.0-3.0-2.232-0.232","<span style=""font-size:25px; font-family: monospace"">O colega parecia muito gripado?</span>","n","","","O colega parecia muito gripado?","null","exp-sent","false"
"","null","html-keyboard-response","289","637616","0.0-3.0-0.233-0.233","<span style= ""font-size:30px; font-family: monospace"">+</span>","null","fixation","","","","",""
"","941","audio-keyboard-response","290","638844","0.0-3.0-1.233","../audio/73-1-masc.mp3"," ","","O","","","",""
"","1269","audio-keyboard-response","291","640396","0.0-3.0-1.234","../audio/73-2-masc.mp3"," ","","cliente","","","",""
"","989","audio-keyboard-response","292","641660","0.0-3.0-1.235","../audio/73-3-masc.mp3"," ","","era","","","",""
"","920","audio-keyboard-response","293","642844","0.0-3.0-1.236","../audio/73-4-masc.mp3"," ","","um","","","",""
"","989","audio-keyboard-response","294","644108","0.0-3.0-1.237","../audio/73-5-masc.mp3"," ","","homem","","","",""
"","1349","audio-keyboard-response","295","645740","0.0-3.0-1.238","../audio/73-6-masc.mp3"," ","","muito","","","",""
"","1560","audio-keyboard-response","296","647580","0.0-3.0-1.239","../audio/73-7-masc.mp3"," ","","educado.","","","",""
"","null","html-keyboard-response","297","648848","0.0-3.0-0.240-0.240","<span style= ""font-size:30px; font-family: monospace"">+</span>","null","fixation","","","","",""
"","1328","audio-keyboard-response","298","650460","0.0-3.0-1.240","../audio/74-1-fem.mp3"," ","","Este","","","",""
"","1248","audio-keyboard-response","299","651980","0.0-3.0-1.241","../audio/74-2-fem.mp3"," ","","emprego","","","",""
"","933","audio-keyboard-response","300","653196","0.0-3.0-1.242","../audio/74-3-fem.mp3"," ","","é","","","",""
"","1021","audio-keyboard-response","301","654476","0.0-3.0-1.243","../audio/74-4-fem.mp3"," ","","muito","","","",""
"","1501","audio-keyboard-response","302","656252","0.0-3.0-1.244","../audio/74-5-fem.mp3"," ","","cansativo","","","",""
"","709","audio-keyboard-response","303","657228","0.0-3.0-1.245","../audio/74-6-fem.mp3"," ","","a","","","",""
"","1099","audio-keyboard-response","304","658620","0.0-3.0-1.246","../audio/74-7-fem.mp3"," ","","longo","","","",""
"","1008","audio-keyboard-response","305","659900","0.0-3.0-1.247","../audio/74-8-fem.mp3"," ","","prazo.","","","",""
"","null","html-keyboard-response","306","661164","0.0-3.0-0.248-0.248","<span style= ""font-size:30px; font-family: monospace"">+</span>","null","fixation","","","","",""
"","1069","audio-keyboard-response","307","662524","0.0-3.0-1.248","../audio/71-1-fem.mp3"," ","","Minhas","","","",""
"","1019","audio-keyboard-response","308","663820","0.0-3.0-1.249","../audio/71-2-fem.mp3"," ","","comidas","","","",""
"","1221","audio-keyboard-response","309","665324","0.0-3.0-1.250","../audio/71-3-fem.mp3"," ","","favoritas","","","",""
"","971","audio-keyboard-response","310","666572","0.0-3.0-1.251","../audio/71-4-fem.mp3"," ","","são","","","",""
"","1179","audio-keyboard-response","311","668028","0.0-3.0-1.252","../audio/71-5-fem.mp3"," ","","morango","","","",""
"","760","audio-keyboard-response","312","669068","0.0-3.0-1.253","../audio/71-6-fem.mp3"," ","","e","","","",""
"","891","audio-keyboard-response","313","670236","0.0-3.0-1.254","../audio/71-7-fem.mp3"," ","","uva.","","","",""
"","null","html-keyboard-response","314","671503","0.0-3.0-0.255-0.255","<span style= ""font-size:30px; font-family: monospace"">+</span>","null","fixation","","","","",""
"","741","audio-keyboard-response","315","672524","0.0-3.0-1.255","../audio/72-1-fem.mp3"," ","","A","","","",""
"","1560","audio-keyboard-response","316","674364","0.0-3.0-1.256","../audio/72-2-fem.mp3"," ","","vencedora","","","",""
"","1099","audio-keyboard-response","317","675740","0.0-3.0-1.257","../audio/72-3-fem.mp3"," ","","recebeu","","","",""
"","821","audio-keyboard-response","318","676844","0.0-3.0-1.258","../audio/72-4-fem.mp3"," ","","um","","","",""
"","1029","audio-keyboard-response","319","678140","0.0-3.0-1.259","../audio/72-5-fem.mp3"," ","","prêmio","","","",""
"","749","audio-keyboard-response","320","679164","0.0-3.0-1.260","../audio/72-6-fem.mp3"," ","","em","","","",""
"","1061","audio-keyboard-response","321","680492","0.0-3.0-1.261","../audio/72-7-fem.mp3"," ","","dinheiro.","","","",""
"","null","html-keyboard-response","322","681765","0.0-3.0-0.262-0.262","<span style= ""font-size:30px; font-family: monospace"">+</span>","null","fixation","","","","",""
"","939","audio-keyboard-response","323","682988","0.0-3.0-1.262","../audio/75-1-masc.mp3"," ","","Só","","","",""
"","1072","audio-keyboard-response","324","684332","0.0-3.0-1.263","../audio/75-2-masc.mp3"," ","","existe","","","",""
"","840","audio-keyboard-response","325","685451","0.0-3.0-1.264","../audio/75-3-masc.mp3"," ","","uma","","","",""
"","859","audio-keyboard-response","326","686587","0.0-3.0-1.265","../audio/75-4-masc.mp3"," ","","pessoa","","","",""
"","811","audio-keyboard-response","327","687676","0.0-3.0-1.266","../audio/75-5-masc.mp3"," ","","canhota","","","",""
"","952","audio-keyboard-response","328","688892","0.0-3.0-1.267","../audio/75-6-masc.mp3"," ","","nesta","","","",""
"","939","audio-keyboard-response","329","690108","0.0-3.0-1.268","../audio/75-7-masc.mp3"," ","","cidade.","","","",""
"","7948","html-keyboard-response","330","698316","0.0-3.0-2.268-0.268","<span style=""font-size:25px; font-family: monospace"">Só existe uma pessoa canhota na cidade?</span>","s","","","Só existe uma pessoa canhota na cidade?","null","exp-sent","false"
"","null","html-keyboard-response","331","699831","0.0-3.0-0.269-0.269","<span style= ""font-size:30px; font-family: monospace"">+</span>","null","fixation","","","","",""
"","1509","audio-keyboard-response","332","701628","0.0-3.0-1.269","../audio/29-1-fem.mp3"," ","","Hoje","","","",""
"","1291","audio-keyboard-response","333","703195","0.0-3.0-1.270","../audio/29-2-fem.mp3"," ","","vamos","","","",""
"","1032","audio-keyboard-response","334","704492","0.0-3.0-1.271","../audio/29-3-fem.mp3"," ","","fazer","","","",""
"","819","audio-keyboard-response","335","705580","0.0-3.0-1.272","../audio/29-4-fem.mp3"," ","","uma","","","",""
"","1219","audio-keyboard-response","336","707068","0.0-3.0-1.273","../audio/29-5-fem.mp3"," ","","atividade","","","",""
"","1179","audio-keyboard-response","337","708507","0.0-3.0-1.274","../audio/29-6-fem.mp3"," ","","sobre","","","",""
"","1171","audio-keyboard-response","338","709963","0.0-3.0-1.275","../audio/29-7-fem.mp3"," ","","fauna","","","",""
"","1259","audio-keyboard-response","339","711500","0.0-3.0-1.276","../audio/29-8-fem.mp3"," ","","marinha.","","","",""
"","null","html-keyboard-response","340","712768","0.0-3.0-0.277-0.277","<span style= ""font-size:30px; font-family: monospace"">+</span>","null","fixation","","","","",""
"","989","audio-keyboard-response","341","714044","0.0-3.0-1.277","../audio/27-1-masc.mp3"," ","","O","","","",""
"","1091","audio-keyboard-response","342","715403","0.0-3.0-1.278","../audio/27-2-masc.mp3"," ","","dinheiro","","","",""
"","920","audio-keyboard-response","343","716587","0.0-3.0-1.279","../audio/27-3-masc.mp3"," ","","chegou","","","",""
"","771","audio-keyboard-response","344","717627","0.0-3.0-1.280","../audio/27-4-masc.mp3"," ","","à","","","",""
"","1000","audio-keyboard-response","345","718907","0.0-3.0-1.281","../audio/27-5-masc.mp3"," ","","elite","","","",""
"","1021","audio-keyboard-response","346","720203","0.0-3.0-1.282","../audio/27-6-masc.mp3"," ","","deste","","","",""
"","909","audio-keyboard-response","347","721387","0.0-3.0-1.283","../audio/27-7-masc.mp3"," ","","país.","","","",""
"","null","html-keyboard-response","348","722649","0.0-3.0-0.284-0.284","<span style= ""font-size:30px; font-family: monospace"">+</span>","null","fixation","","","","",""
"","1069","audio-keyboard-response","349","723996","0.0-3.0-1.284","../audio/26-1-fem.mp3"," ","","Amanhã","","","",""
"","851","audio-keyboard-response","350","725116","0.0-3.0-1.285","../audio/26-2-fem.mp3"," ","","temos","","","",""
"","960","audio-keyboard-response","351","726348","0.0-3.0-1.286","../audio/26-3-fem.mp3"," ","","festa","","","",""
"","931","audio-keyboard-response","352","727547","0.0-3.0-1.287","../audio/26-4-fem.mp3"," ","","na","","","",""
"","1091","audio-keyboard-response","353","728907","0.0-3.0-1.288","../audio/26-5-fem.mp3"," ","","piscina","","","",""
"","971","audio-keyboard-response","354","730155","0.0-3.0-1.289","../audio/26-6-fem.mp3"," ","","o","","","",""
"","941","audio-keyboard-response","355","731356","0.0-3.0-1.290","../audio/26-7-fem.mp3"," ","","dia","","","",""
"","1040","audio-keyboard-response","356","732667","0.0-3.0-1.291","../audio/26-8-fem.mp3"," ","","todo.","","","",""
"","null","html-keyboard-response","357","733935","0.0-3.0-0.292-0.292","<span style= ""font-size:30px; font-family: monospace"">+</span>","null","fixation","","","","",""
"","992","audio-keyboard-response","358","735212","0.0-3.0-1.292","../audio/28-1-masc.mp3"," ","","O","","","",""
"","1571","audio-keyboard-response","359","737051","0.0-3.0-1.293","../audio/28-2-masc.mp3"," ","","time","","","",""
"","851","audio-keyboard-response","360","738171","0.0-3.0-1.294","../audio/28-3-masc.mp3"," ","","quer","","","",""
"","899","audio-keyboard-response","361","739340","0.0-3.0-1.295","../audio/28-4-masc.mp3"," ","","a","","","",""
"","1139","audio-keyboard-response","362","740747","0.0-3.0-1.296","../audio/28-5-masc.mp3"," ","","vitória","","","",""
"","869","audio-keyboard-response","363","741883","0.0-3.0-1.297","../audio/28-6-masc.mp3"," ","","no","","","",""
"","960","audio-keyboard-response","364","743131","0.0-3.0-1.298","../audio/28-7-masc.mp3"," ","","jogo","","","",""
"","760","audio-keyboard-response","365","744171","0.0-3.0-1.299","../audio/28-8-masc.mp3"," ","","de","","","",""
"","1200","audio-keyboard-response","366","745644","0.0-3.0-1.300","../audio/28-9-masc.mp3"," ","","vôlei.","","","",""
"","null","html-keyboard-response","367","746899","0.0-3.0-0.301-0.301","<span style= ""font-size:30px; font-family: monospace"">+</span>","null","fixation","","","","",""
"","589","audio-keyboard-response","368","747756","0.0-3.0-1.301","../audio/30-1-fem.mp3"," ","","O","","","",""
"","981","audio-keyboard-response","369","749004","0.0-3.0-1.302","../audio/30-2-fem.mp3"," ","","funcionário","","","",""
"","971","audio-keyboard-response","370","750252","0.0-3.0-1.303","../audio/30-3-fem.mp3"," ","","entregou","","","",""
"","739","audio-keyboard-response","371","751260","0.0-3.0-1.304","../audio/30-4-fem.mp3"," ","","o","","","",""
"","1141","audio-keyboard-response","372","752684","0.0-3.0-1.305","../audio/30-5-fem.mp3"," ","","restante","","","",""
"","760","audio-keyboard-response","373","753708","0.0-3.0-1.306","../audio/30-6-fem.mp3"," ","","do","","","",""
"","939","audio-keyboard-response","374","754908","0.0-3.0-1.307","../audio/30-7-fem.mp3"," ","","dinheiro.","","","",""
"","6158","html-keyboard-response","375","761324","0.0-3.0-2.307-0.307","<span style=""font-size:25px; font-family: monospace"">O funcionário entregou o contrato?</span>","n","","","O funcionário entregou o contrato?","null","exp-sent","false"
"","null","html-keyboard-response","376","762841","0.0-3.0-0.308-0.308","<span style= ""font-size:30px; font-family: monospace"">+</span>","null","fixation","","","","",""
"","680","audio-keyboard-response","377","763804","0.0-3.0-1.308","../audio/49-1-masc.mp3"," ","","Eu","","","",""
"","821","audio-keyboard-response","378","764892","0.0-3.0-1.309","../audio/49-2-masc.mp3"," ","","quero","","","",""
"","739","audio-keyboard-response","379","765900","0.0-3.0-1.310","../audio/49-3-masc.mp3"," ","","um","","","",""
"","952","audio-keyboard-response","380","767132","0.0-3.0-1.311","../audio/49-4-masc.mp3"," ","","lanche","","","",""
"","1011","audio-keyboard-response","381","768412","0.0-3.0-1.312","../audio/49-5-masc.mp3"," ","","duplo","","","",""
"","739","audio-keyboard-response","382","769436","0.0-3.0-1.313","../audio/49-6-masc.mp3"," ","","e","","","",""
"","720","audio-keyboard-response","383","770428","0.0-3.0-1.314","../audio/49-7-masc.mp3"," ","","um","","","",""
"","1011","audio-keyboard-response","384","771708","0.0-3.0-1.315","../audio/49-8-masc.mp3"," ","","suco.","","","",""
"","null","html-keyboard-response","385","772984","0.0-3.0-0.316-0.316","<span style= ""font-size:30px; font-family: monospace"">+</span>","null","fixation","","","","",""
"","781","audio-keyboard-response","386","774044","0.0-3.0-1.316","../audio/48-1-masc.mp3"," ","","Ela","","","",""
"","821","audio-keyboard-response","387","775132","0.0-3.0-1.317","../audio/48-2-masc.mp3"," ","","come","","","",""
"","760","audio-keyboard-response","388","776172","0.0-3.0-1.318","../audio/48-3-masc.mp3"," ","","feijão","","","",""
"","800","audio-keyboard-response","389","777244","0.0-3.0-1.319","../audio/48-4-masc.mp3"," ","","com","","","",""
"","840","audio-keyboard-response","390","778364","0.0-3.0-1.320","../audio/48-5-masc.mp3"," ","","arroz","","","",""
"","840","audio-keyboard-response","391","779467","0.0-3.0-1.321","../audio/48-6-masc.mp3"," ","","todos","","","",""
"","752","audio-keyboard-response","392","780492","0.0-3.0-1.322","../audio/48-7-masc.mp3"," ","","os","","","",""
"","931","audio-keyboard-response","393","781692","0.0-3.0-1.323","../audio/48-8-masc.mp3"," ","","dias.","","","",""
"","null","html-keyboard-response","394","782964","0.0-3.0-0.324-0.324","<span style= ""font-size:30px; font-family: monospace"">+</span>","null","fixation","","","","",""
"","691","audio-keyboard-response","395","783932","0.0-3.0-1.324","../audio/47-1-masc.mp3"," ","","O","","","",""
"","819","audio-keyboard-response","396","785020","0.0-3.0-1.325","../audio/47-2-masc.mp3"," ","","tio","","","",""
"","1149","audio-keyboard-response","397","786444","0.0-3.0-1.326","../audio/47-3-masc.mp3"," ","","recusou","","","",""
"","749","audio-keyboard-response","398","787468","0.0-3.0-1.327","../audio/47-4-masc.mp3"," ","","a","","","",""
"","1269","audio-keyboard-response","399","789020","0.0-3.0-1.328","../audio/47-5-masc.mp3"," ","","sobremesa","","","",""
"","880","audio-keyboard-response","400","790172","0.0-3.0-1.329","../audio/47-6-masc.mp3"," ","","no","","","",""
"","1069","audio-keyboard-response","401","791516","0.0-3.0-1.330","../audio/47-7-masc.mp3"," ","","almoço.","","","",""
"","null","html-keyboard-response","402","792794","0.0-3.0-0.331-0.331","<span style= ""font-size:30px; font-family: monospace"">+</span>","null","fixation","","","","",""
"","720","audio-keyboard-response","403","793804","0.0-3.0-1.331","../audio/46-1-masc.mp3"," ","","Meu","","","",""
"","891","audio-keyboard-response","404","794972","0.0-3.0-1.332","../audio/46-2-masc.mp3"," ","","primo","","","",""
"","1011","audio-keyboard-response","405","796252","0.0-3.0-1.333","../audio/46-3-masc.mp3"," ","","estava","","","",""
"","1029","audio-keyboard-response","406","797547","0.0-3.0-1.334","../audio/46-4-masc.mp3"," ","","muito","","","",""
"","1011","audio-keyboard-response","407","798827","0.0-3.0-1.335","../audio/46-5-masc.mp3"," ","","deprimido","","","",""
"","811","audio-keyboard-response","408","799915","0.0-3.0-1.336","../audio/46-6-masc.mp3"," ","","no","","","",""
"","971","audio-keyboard-response","409","801164","0.0-3.0-1.337","../audio/46-7-masc.mp3"," ","","inverno.","","","",""
"","null","html-keyboard-response","410","802423","0.0-3.0-0.338-0.338","<span style= ""font-size:30px; font-family: monospace"">+</span>","null","fixation","","","","",""
"","672","audio-keyboard-response","411","803372","0.0-3.0-1.338","../audio/50-1-fem.mp3"," ","","O","","","",""
"","1128","audio-keyboard-response","412","804779","0.0-3.0-1.339","../audio/50-2-fem.mp3"," ","","pássaro","","","",""
"","800","audio-keyboard-response","413","805868","0.0-3.0-1.340","../audio/50-3-fem.mp3"," ","","fugiu","","","",""
"","752","audio-keyboard-response","414","806892","0.0-3.0-1.341","../audio/50-4-fem.mp3"," ","","da","","","",""
"","1059","audio-keyboard-response","415","808220","0.0-3.0-1.342","../audio/50-5-fem.mp3"," ","","gaiola","","","",""
"","859","audio-keyboard-response","416","809340","0.0-3.0-1.343","../audio/50-6-fem.mp3"," ","","pela","","","",""
"","1499","audio-keyboard-response","417","811116","0.0-3.0-1.344","../audio/50-7-fem.mp3"," ","","portinhola.","","","",""
"","9678","html-keyboard-response","418","821052","0.0-3.0-2.344-0.344","<span style=""font-size:25px; font-family: monospace"">O pássaro fugiu da gaiola?</span>","s","","","O pássaro fugiu da gaiola?","null","exp-sent","false"
"","null","html-keyboard-response","419","822566","0.0-3.0-0.345-0.345","<span style= ""font-size:30px; font-family: monospace"">+</span>","null","fixation","","","","",""
"","659","audio-keyboard-response","420","823515","0.0-3.0-1.345","../audio/03-1-masc.mp3"," ","","O","","","",""
"","840","audio-keyboard-response","421","824619","0.0-3.0-1.346","../audio/03-2-masc.mp3"," ","","coelho","","","",""
"","771","audio-keyboard-response","422","825676","0.0-3.0-1.347","../audio/03-3-masc.mp3"," ","","foi","","","",""
"","1301","audio-keyboard-response","423","827243","0.0-3.0-1.348","../audio/03-4-masc.mp3"," ","","bastante","","","",""
"","1000","audio-keyboard-response","424","828523","0.0-3.0-1.349","../audio/03-5-masc.mp3"," ","","dócil","","","",""
"","789","audio-keyboard-response","425","829579","0.0-3.0-1.350","../audio/03-6-masc.mp3"," ","","com","","","",""
"","760","audio-keyboard-response","426","830619","0.0-3.0-1.351","../audio/03-7-masc.mp3"," ","","as","","","",""
"","960","audio-keyboard-response","427","831852","0.0-3.0-1.352","../audio/03-8-masc.mp3"," ","","crianças.","","","",""
"","null","html-keyboard-response","428","833117","0.0-3.0-0.353-0.353","<span style= ""font-size:30px; font-family: monospace"">+</span>","null","fixation","","","","",""
"","1299","audio-keyboard-response","429","834715","0.0-3.0-1.353","../audio/04-1-fem.mp3"," ","","Duzentos","","","",""
"","760","audio-keyboard-response","430","835739","0.0-3.0-1.354","../audio/04-2-fem.mp3"," ","","carros","","","",""
"","1080","audio-keyboard-response","431","837099","0.0-3.0-1.355","../audio/04-3-fem.mp3"," ","","passaram","","","",""
"","779","audio-keyboard-response","432","838155","0.0-3.0-1.356","../audio/04-4-fem.mp3"," ","","pela","","","",""
"","821","audio-keyboard-response","433","839243","0.0-3.0-1.357","../audio/04-5-fem.mp3"," ","","ponte","","","",""
"","731","audio-keyboard-response","434","840251","0.0-3.0-1.358","../audio/04-6-fem.mp3"," ","","hoje","","","",""
"","819","audio-keyboard-response","435","841339","0.0-3.0-1.359","../audio/04-7-fem.mp3"," ","","de","","","",""
"","880","audio-keyboard-response","436","842492","0.0-3.0-1.360","../audio/04-8-fem.mp3"," ","","tarde.","","","",""
"","null","html-keyboard-response","437","843757","0.0-3.0-0.361-0.361","<span style= ""font-size:30px; font-family: monospace"">+</span>","null","fixation","","","","",""
"","781","audio-keyboard-response","438","844811","0.0-3.0-1.361","../audio/02-2-masc.mp3"," ","","Havia","","","",""
"","771","audio-keyboard-response","439","845835","0.0-3.0-1.362","../audio/02-2-masc.mp3"," ","","um","","","",""
"","880","audio-keyboard-response","440","847003","0.0-3.0-1.363","../audio/02-3-masc.mp3"," ","","cheiro","","","",""
"","731","audio-keyboard-response","441","847996","0.0-3.0-1.364","../audio/02-4-masc.mp3"," ","","de","","","",""
"","840","audio-keyboard-response","442","849115","0.0-3.0-1.365","../audio/02-5-masc.mp3"," ","","gasolina","","","",""
"","811","audio-keyboard-response","443","850187","0.0-3.0-1.366","../audio/02-6-masc.mp3"," ","","na","","","",""
"","1021","audio-keyboard-response","444","851483","0.0-3.0-1.367","../audio/02-7-masc.mp3"," ","","garagem.","","","",""
"","null","html-keyboard-response","445","852763","0.0-3.0-0.368-0.368","<span style= ""font-size:30px; font-family: monospace"">+</span>","null","fixation","","","","",""
"","619","audio-keyboard-response","446","853660","0.0-3.0-1.368","../audio/01-1-fem.mp3"," ","","O","","","",""
"","880","audio-keyboard-response","447","854811","0.0-3.0-1.369","../audio/01-2-fem.mp3"," ","","menino","","","",""
"","1029","audio-keyboard-response","448","856123","0.0-3.0-1.370","../audio/01-3-fem.mp3"," ","","derrubou","","","",""
"","680","audio-keyboard-response","449","857067","0.0-3.0-1.371","../audio/01-4-fem.mp3"," ","","a","","","",""
"","1221","audio-keyboard-response","450","858571","0.0-3.0-1.372","../audio/01-5-fem.mp3"," ","","guitarra","","","",""
"","789","audio-keyboard-response","451","859643","0.0-3.0-1.373","../audio/01-6-fem.mp3"," ","","no","","","",""
"","901","audio-keyboard-response","452","860811","0.0-3.0-1.374","../audio/01-7-fem.mp3"," ","","chão.","","","",""
"","null","html-keyboard-response","453","862083","0.0-3.0-0.375-0.375","<span style= ""font-size:30px; font-family: monospace"">+</span>","null","fixation","","","","",""
"","728","audio-keyboard-response","454","863099","0.0-3.0-1.375","../audio/05-1-masc.mp3"," ","","A","","","",""
"","1211","audio-keyboard-response","455","864588","0.0-3.0-1.376","../audio/05-2-masc.mp3"," ","","vendedora","","","",""
"","912","audio-keyboard-response","456","865771","0.0-3.0-1.377","../audio/05-3-masc.mp3"," ","","ajudou","","","",""
"","739","audio-keyboard-response","457","866779","0.0-3.0-1.378","../audio/05-4-masc.mp3"," ","","um","","","",""
"","1069","audio-keyboard-response","458","868123","0.0-3.0-1.379","../audio/05-5-masc.mp3"," ","","turista","","","",""
"","821","audio-keyboard-response","459","869211","0.0-3.0-1.380","../audio/05-6-masc.mp3"," ","","na","","","",""
"","2000","audio-keyboard-response","460","871483","0.0-3.0-1.381","../audio/05-7-masc.mp3"," ","","loja.","","","",""
"","15072","html-keyboard-response","461","886811","0.0-3.0-2.381-0.381","<span style=""font-size:25px; font-family: monospace"">A vendedora ajudou um turista?</span>","s","","","A vendedora ajudou um turista?","null","exp-sent","false"
"","null","html-keyboard-response","462","888323","0.0-3.0-0.382-0.382","<span style= ""font-size:30px; font-family: monospace"">+</span>","null","fixation","","","","",""
"","861","audio-keyboard-response","463","889451","0.0-3.0-1.382","../audio/12-1-masc.mp3"," ","","O","","","",""
"","888","audio-keyboard-response","464","890619","0.0-3.0-1.383","../audio/12-2-masc.mp3"," ","","dia","","","",""
"","1032","audio-keyboard-response","465","891931","0.0-3.0-1.384","../audio/12-3-masc.mp3"," ","","estava","","","",""
"","819","audio-keyboard-response","466","893035","0.0-3.0-1.385","../audio/12-4-masc.mp3"," ","","quente,","","","",""
"","1011","audio-keyboard-response","467","894331","0.0-3.0-1.386","../audio/12-5-masc.mp3"," ","","tranquilo","","","",""
"","648","audio-keyboard-response","468","895259","0.0-3.0-1.387","../audio/12-6-masc.mp3"," ","","e","","","",""
"","1280","audio-keyboard-response","469","896811","0.0-3.0-1.388","../audio/12-7-masc.mp3"," ","","ensolarado.","","","",""
"","null","html-keyboard-response","470","898078","0.0-3.0-0.389-0.389","<span style= ""font-size:30px; font-family: monospace"">+</span>","null","fixation","","","","",""
"","1389","audio-keyboard-response","471","899755","0.0-3.0-1.389","../audio/13-1-masc.mp3"," ","","Para","","","",""
"","861","audio-keyboard-response","472","900891","0.0-3.0-1.390","../audio/13-2-masc.mp3"," ","","mim","","","",""
"","840","audio-keyboard-response","473","902011","0.0-3.0-1.391","../audio/13-3-masc.mp3"," ","","é","","","",""
"","1021","audio-keyboard-response","474","903323","0.0-3.0-1.392","../audio/13-4-masc.mp3"," ","","muito","","","",""
"","1029","audio-keyboard-response","475","904619","0.0-3.0-1.393","../audio/13-5-masc.mp3"," ","","difícil","","","",""
"","979","audio-keyboard-response","476","905867","0.0-3.0-1.394","../audio/13-6-masc.mp3"," ","","acordar","","","",""
"","861","audio-keyboard-response","477","907003","0.0-3.0-1.395","../audio/13-7-masc.mp3"," ","","cedo.","","","",""
"","null","html-keyboard-response","478","908272","0.0-3.0-0.396-0.396","<span style= ""font-size:30px; font-family: monospace"">+</span>","null","fixation","","","","",""
"","1491","audio-keyboard-response","479","910027","0.0-3.0-1.396","../audio/11-1-masc.mp3"," ","","Elas","","","",""
"","1091","audio-keyboard-response","480","911387","0.0-3.0-1.397","../audio/11-2-masc.mp3"," ","","gostam","","","",""
"","1072","audio-keyboard-response","481","912731","0.0-3.0-1.398","../audio/11-3-masc.mp3"," ","","muito","","","",""
"","520","audio-keyboard-response","482","913515","0.0-3.0-1.399","../audio/11-4-masc.mp3"," ","","de","","","",""
"","1171","audio-keyboard-response","483","914971","0.0-3.0-1.400","../audio/11-5-masc.mp3"," ","","aritmética","","","",""
"","1339","audio-keyboard-response","484","916587","0.0-3.0-1.401","../audio/11-6-masc.mp3"," ","","e","","","",""
"","901","audio-keyboard-response","485","917755","0.0-3.0-1.402","../audio/11-7-masc.mp3"," ","","de","","","",""
"","1949","audio-keyboard-response","486","919979","0.0-3.0-1.403","../audio/11-8-masc.mp3"," ","","leitura.","","","",""
"","null","html-keyboard-response","487","921235","0.0-3.0-0.404-0.404","<span style= ""font-size:30px; font-family: monospace"">+</span>","null","fixation","","","","",""
"","741","audio-keyboard-response","488","922251","0.0-3.0-1.404","../audio/14-1-masc.mp3"," ","","O","","","",""
"","1379","audio-keyboard-response","489","923899","0.0-3.0-1.405","../audio/14-2-masc.mp3"," ","","cachorro","","","",""
"","792","audio-keyboard-response","490","924971","0.0-3.0-1.406","../audio/14-3-masc.mp3"," ","","é","","","",""
"","931","audio-keyboard-response","491","926155","0.0-3.0-1.407","../audio/14-4-masc.mp3"," ","","muito","","","",""
"","1040","audio-keyboard-response","492","927467","0.0-3.0-1.408","../audio/14-5-masc.mp3"," ","","fiel","","","",""
"","811","audio-keyboard-response","493","928555","0.0-3.0-1.409","../audio/14-6-masc.mp3"," ","","a","","","",""
"","909","audio-keyboard-response","494","929739","0.0-3.0-1.410","../audio/14-7-masc.mp3"," ","","seus","","","",""
"","981","audio-keyboard-response","495","931003","0.0-3.0-1.411","../audio/14-8-masc.mp3"," ","","donos.","","","",""
"","null","html-keyboard-response","496","932283","0.0-3.0-0.412-0.412","<span style= ""font-size:30px; font-family: monospace"">+</span>","null","fixation","","","","",""
"","829","audio-keyboard-response","497","933387","0.0-3.0-1.412","../audio/15-1-masc.mp3"," ","","Meu","","","",""
"","840","audio-keyboard-response","498","934491","0.0-3.0-1.413","../audio/15-2-masc.mp3"," ","","primo","","","",""
"","600","audio-keyboard-response","499","935355","0.0-3.0-1.414","../audio/15-3-masc.mp3"," ","","é","","","",""
"","749","audio-keyboard-response","500","936379","0.0-3.0-1.415","../audio/15-4-masc.mp3"," ","","um","","","",""
"","1139","audio-keyboard-response","501","937787","0.0-3.0-1.416","../audio/15-5-masc.mp3"," ","","grande","","","",""
"","1051","audio-keyboard-response","502","939115","0.0-3.0-1.417","../audio/15-6-masc.mp3"," ","","vendedor","","","",""
"","749","audio-keyboard-response","503","940138","0.0-3.0-1.418","../audio/15-7-masc.mp3"," ","","de","","","",""
"","909","audio-keyboard-response","504","941323","0.0-3.0-1.419","../audio/15-8-masc.mp3"," ","","carros.","","","",""
"","4960","html-keyboard-response","505","946539","0.0-3.0-2.419-0.419","<span style=""font-size:25px; font-family: monospace"">O primo é um vendedor de carros?</span>","s","","","O primo é um vendedor de carros?","null","exp-sent","false"
"","null","html-keyboard-response","506","948060","0.0-3.0-0.420-0.420","<span style= ""font-size:30px; font-family: monospace"">+</span>","null","fixation","","","","",""
"","840","audio-keyboard-response","507","949179","0.0-3.0-1.420","../audio/39-1-fem.mp3"," ","","O","","","",""
"","1328","audio-keyboard-response","508","950779","0.0-3.0-1.421","../audio/39-2-fem.mp3"," ","","conselho","","","",""
"","872","audio-keyboard-response","509","951931","0.0-3.0-1.422","../audio/39-3-fem.mp3"," ","","foi","","","",""
"","1109","audio-keyboard-response","510","953306","0.0-3.0-1.423","../audio/39-4-fem.mp3"," ","","muito","","","",""
"","981","audio-keyboard-response","511","954571","0.0-3.0-1.424","../audio/39-5-fem.mp3"," ","","útil","","","",""
"","859","audio-keyboard-response","512","955706","0.0-3.0-1.425","../audio/39-6-fem.mp3"," ","","para","","","",""
"","960","audio-keyboard-response","513","956955","0.0-3.0-1.426","../audio/39-7-fem.mp3"," ","","minha","","","",""
"","840","audio-keyboard-response","514","958075","0.0-3.0-1.427","../audio/39-8-fem.mp3"," ","","tia.","","","",""
"","null","html-keyboard-response","515","959337","0.0-3.0-0.428-0.428","<span style= ""font-size:30px; font-family: monospace"">+</span>","null","fixation","","","","",""
"","859","audio-keyboard-response","516","960475","0.0-3.0-1.428","../audio/36-1-fem.mp3"," ","","Meu","","","",""
"","760","audio-keyboard-response","517","961499","0.0-3.0-1.429","../audio/36-2-fem.mp3"," ","","tio","","","",""
"","1149","audio-keyboard-response","518","962923","0.0-3.0-1.430","../audio/36-3-fem.mp3"," ","","comprou","","","",""
"","709","audio-keyboard-response","519","963915","0.0-3.0-1.431","../audio/36-4-fem.mp3"," ","","um","","","",""
"","829","audio-keyboard-response","520","965019","0.0-3.0-1.432","../audio/36-5-fem.mp3"," ","","filtro","","","",""
"","768","audio-keyboard-response","521","966059","0.0-3.0-1.433","../audio/36-6-fem.mp3"," ","","de","","","",""
"","731","audio-keyboard-response","522","967067","0.0-3.0-1.434","../audio/36-7-fem.mp3"," ","","água","","","",""
"","960","audio-keyboard-response","523","968299","0.0-3.0-1.435","../audio/36-8-fem.mp3"," ","","hoje","","","",""
"","1080","audio-keyboard-response","524","969659","0.0-3.0-1.436","../audio/36-9-fem.mp3"," ","","cedo.","","","",""
"","null","html-keyboard-response","525","970941","0.0-3.0-0.437-0.437","<span style= ""font-size:30px; font-family: monospace"">+</span>","null","fixation","","","","",""
"","800","audio-keyboard-response","526","972011","0.0-3.0-1.437","../audio/37-1-masc.mp3"," ","","Eu","","","",""
"","1048","audio-keyboard-response","527","973339","0.0-3.0-1.438","../audio/37-2-masc.mp3"," ","","adoro","","","",""
"","939","audio-keyboard-response","528","974539","0.0-3.0-1.439","../audio/37-3-masc.mp3"," ","","suco","","","",""
"","819","audio-keyboard-response","529","975627","0.0-3.0-1.440","../audio/37-4-masc.mp3"," ","","de","","","",""
"","992","audio-keyboard-response","530","976891","0.0-3.0-1.441","../audio/37-5-masc.mp3"," ","","manga","","","",""
"","739","audio-keyboard-response","531","977899","0.0-3.0-1.442","../audio/37-6-masc.mp3"," ","","com","","","",""
"","1141","audio-keyboard-response","532","979323","0.0-3.0-1.443","../audio/37-7-masc.mp3"," ","","hortelã.","","","",""
"","null","html-keyboard-response","533","980596","0.0-3.0-0.444-0.444","<span style= ""font-size:30px; font-family: monospace"">+</span>","null","fixation","","","","",""
"","749","audio-keyboard-response","534","981626","0.0-3.0-1.444","../audio/38-1-masc.mp3"," ","","A","","","",""
"","1029","audio-keyboard-response","535","982923","0.0-3.0-1.445","../audio/38-2-masc.mp3"," ","","empresa","","","",""
"","931","audio-keyboard-response","536","984123","0.0-3.0-1.446","../audio/38-3-masc.mp3"," ","","criou","","","",""
"","840","audio-keyboard-response","537","985226","0.0-3.0-1.447","../audio/38-4-masc.mp3"," ","","a","","","",""
"","1072","audio-keyboard-response","538","986570","0.0-3.0-1.448","../audio/38-5-masc.mp3"," ","","patente","","","",""
"","800","audio-keyboard-response","539","987642","0.0-3.0-1.449","../audio/38-6-masc.mp3"," ","","da","","","",""
"","1211","audio-keyboard-response","540","989130","0.0-3.0-1.450","../audio/38-7-masc.mp3"," ","","frigideira.","","","",""
"","null","html-keyboard-response","541","990385","0.0-3.0-0.451-0.451","<span style= ""font-size:30px; font-family: monospace"">+</span>","null","fixation","","","","",""
"","720","audio-keyboard-response","542","991386","0.0-3.0-1.451","../audio/40-1-masc.mp3"," ","","O","","","",""
"","1051","audio-keyboard-response","543","992714","0.0-3.0-1.452","../audio/40-2-masc.mp3"," ","","jogo","","","",""
"","781","audio-keyboard-response","544","993770","0.0-3.0-1.453","../audio/40-3-masc.mp3"," ","","falava","","","",""
"","720","audio-keyboard-response","545","994762","0.0-3.0-1.454","../audio/40-4-masc.mp3"," ","","de","","","",""
"","1029","audio-keyboard-response","546","996074","0.0-3.0-1.455","../audio/40-5-masc.mp3"," ","","fantasia","","","",""
"","701","audio-keyboard-response","547","997050","0.0-3.0-1.456","../audio/40-6-masc.mp3"," ","","e","","","",""
"","709","audio-keyboard-response","548","998026","0.0-3.0-1.457","../audio/40-7-masc.mp3"," ","","de","","","",""
"","1120","audio-keyboard-response","549","999418","0.0-3.0-1.458","../audio/40-8-masc.mp3"," ","","aventura.","","","",""
"","7694","html-keyboard-response","550","1007370","0.0-3.0-2.458-0.458","<span style=""font-size:25px; font-family: monospace"">O jogo tinha fantasia e aventura?</span>","s","","","O jogo tinha fantasia e aventura?","null","exp-sent","false"
"","null","html-keyboard-response","551","1008889","0.0-3.0-0.459-0.459","<span style= ""font-size:30px; font-family: monospace"">+</span>","null","fixation","","","","",""
"","960","audio-keyboard-response","552","1010122","0.0-3.0-1.459","../audio/32-1-masc.mp3"," ","","A","","","",""
"","931","audio-keyboard-response","553","1011322","0.0-3.0-1.460","../audio/32-2-masc.mp3"," ","","tia","","","",""
"","1000","audio-keyboard-response","554","1012586","0.0-3.0-1.461","../audio/32-3-masc.mp3"," ","","comprou","","","",""
"","752","audio-keyboard-response","555","1013610","0.0-3.0-1.462","../audio/32-4-masc.mp3"," ","","um","","","",""
"","1011","audio-keyboard-response","556","1014890","0.0-3.0-1.463","../audio/32-5-masc.mp3"," ","","pilão","","","",""
"","819","audio-keyboard-response","557","1015978","0.0-3.0-1.464","../audio/32-6-masc.mp3"," ","","para","","","",""
"","669","audio-keyboard-response","558","1016922","0.0-3.0-1.465","../audio/32-7-masc.mp3"," ","","a","","","",""
"","920","audio-keyboard-response","559","1018122","0.0-3.0-1.466","../audio/32-8-masc.mp3"," ","","cozinha.","","","",""
"","null","html-keyboard-response","560","1019392","0.0-3.0-0.467-0.467","<span style= ""font-size:30px; font-family: monospace"">+</span>","null","fixation","","","","",""
"","651","audio-keyboard-response","561","1020330","0.0-3.0-1.467","../audio/31-1-fem.mp3"," ","","O","","","",""
"","1099","audio-keyboard-response","562","1021706","0.0-3.0-1.468","../audio/31-2-fem.mp3"," ","","padeiro","","","",""
"","1040","audio-keyboard-response","563","1023018","0.0-3.0-1.469","../audio/31-3-fem.mp3"," ","","usou","","","",""
"","640","audio-keyboard-response","564","1023930","0.0-3.0-1.470","../audio/31-4-fem.mp3"," ","","a","","","",""
"","1309","audio-keyboard-response","565","1025514","0.0-3.0-1.471","../audio/31-5-fem.mp3"," ","","balança","","","",""
"","651","audio-keyboard-response","566","1026426","0.0-3.0-1.472","../audio/31-6-fem.mp3"," ","","o","","","",""
"","960","audio-keyboard-response","567","1027658","0.0-3.0-1.473","../audio/31-7-fem.mp3"," ","","dia","","","",""
"","1219","audio-keyboard-response","568","1029146","0.0-3.0-1.474","../audio/31-8-fem.mp3"," ","","inteiro.","","","",""
"","null","html-keyboard-response","569","1030426","0.0-3.0-0.475-0.475","<span style= ""font-size:30px; font-family: monospace"">+</span>","null","fixation","","","","",""
"","1509","audio-keyboard-response","570","1032218","0.0-3.0-1.475","../audio/34-1-fem.mp3"," ","","Cobrança","","","",""
"","1112","audio-keyboard-response","571","1033610","0.0-3.0-1.476","../audio/34-2-fem.mp3"," ","","excessiva","","","",""
"","789","audio-keyboard-response","572","1034666","0.0-3.0-1.477","../audio/34-3-fem.mp3"," ","","é","","","",""
"","771","audio-keyboard-response","573","1035706","0.0-3.0-1.478","../audio/34-4-fem.mp3"," ","","um","","","",""
"","1011","audio-keyboard-response","574","1036986","0.0-3.0-1.479","../audio/34-5-fem.mp3"," ","","fardo","","","",""
"","821","audio-keyboard-response","575","1038090","0.0-3.0-1.480","../audio/34-6-fem.mp3"," ","","para","","","",""
"","659","audio-keyboard-response","576","1039018","0.0-3.0-1.481","../audio/34-7-fem.mp3"," ","","a","","","",""
"","1888","audio-keyboard-response","577","1041178","0.0-3.0-1.482","../audio/34-8-fem.mp3"," ","","cabeça.","","","",""
"","null","html-keyboard-response","578","1042444","0.0-3.0-0.483-0.483","<span style= ""font-size:30px; font-family: monospace"">+</span>","null","fixation","","","","",""
"","800","audio-keyboard-response","579","1043514","0.0-3.0-1.483","../audio/33-1-masc.mp3"," ","","Eles","","","",""
"","880","audio-keyboard-response","580","1044666","0.0-3.0-1.484","../audio/33-2-masc.mp3"," ","","sabem","","","",""
"","808","audio-keyboard-response","581","1045738","0.0-3.0-1.485","../audio/33-3-masc.mp3"," ","","do","","","",""
"","680","audio-keyboard-response","582","1046698","0.0-3.0-1.486","../audio/33-4-masc.mp3"," ","","seu","","","",""
"","1088","audio-keyboard-response","583","1048058","0.0-3.0-1.487","../audio/33-5-masc.mp3"," ","","privilégio","","","",""
"","989","audio-keyboard-response","584","1049322","0.0-3.0-1.488","../audio/33-6-masc.mp3"," ","","nessa","","","",""
"","1019","audio-keyboard-response","585","1050618","0.0-3.0-1.489","../audio/33-7-masc.mp3"," ","","confusão.","","","",""
"","null","html-keyboard-response","586","1051888","0.0-3.0-0.490-0.490","<span style= ""font-size:30px; font-family: monospace"">+</span>","null","fixation","","","","",""
"","669","audio-keyboard-response","587","1052842","0.0-3.0-1.490","../audio/35-1-fem.mp3"," ","","A","","","",""
"","1168","audio-keyboard-response","588","1054298","0.0-3.0-1.491","../audio/35-2-fem.mp3"," ","","receita","","","",""
"","848","audio-keyboard-response","589","1055418","0.0-3.0-1.492","../audio/35-3-fem.mp3"," ","","para","","","",""
"","688","audio-keyboard-response","590","1056378","0.0-3.0-1.493","../audio/35-4-fem.mp3"," ","","a","","","",""
"","899","audio-keyboard-response","591","1057546","0.0-3.0-1.494","../audio/35-5-fem.mp3"," ","","preparação","","","",""
"","691","audio-keyboard-response","592","1058506","0.0-3.0-1.495","../audio/35-6-fem.mp3"," ","","do","","","",""
"","771","audio-keyboard-response","593","1059562","0.0-3.0-1.496","../audio/35-7-fem.mp3"," ","","bolo","","","",""
"","611","audio-keyboard-response","594","1060442","0.0-3.0-1.497","../audio/35-8-fem.mp3"," ","","é","","","",""
"","829","audio-keyboard-response","595","1061546","0.0-3.0-1.498","../audio/35-9-fem.mp3"," ","","leve.","","","",""
"","4852","html-keyboard-response","596","1066650","0.0-3.0-2.498-0.498","<span style=""font-size:25px; font-family: monospace"">A receita do bolo é pesada?</span>","n","","","A receita do bolo é pesada?","null","exp-sent","false"
"","null","html-keyboard-response","597","1068175","0.0-3.0-0.499-0.499","<span style= ""font-size:30px; font-family: monospace"">+</span>","null","fixation","","","","",""
"","40","audio-keyboard-response","598","1068490","0.0-3.0-1.499","../audio/51-1-masc.mp3"," ","","Suco","","","",""
"","1261","audio-keyboard-response","599","1070010","0.0-3.0-1.500","../audio/51-2-masc.mp3"," ","","de","","","",""
"","1200","audio-keyboard-response","600","1071482","0.0-3.0-1.501","../audio/51-3-masc.mp3"," ","","acerola","","","",""
"","731","audio-keyboard-response","601","1072490","0.0-3.0-1.502","../audio/51-4-masc.mp3"," ","","é","","","",""
"","1109","audio-keyboard-response","602","1073866","0.0-3.0-1.503","../audio/51-5-masc.mp3"," ","","azedo","","","",""
"","640","audio-keyboard-response","603","1074778","0.0-3.0-1.504","../audio/51-6-masc.mp3"," ","","e","","","",""
"","851","audio-keyboard-response","604","1075914","0.0-3.0-1.505","../audio/51-7-masc.mp3"," ","","até","","","",""
"","821","audio-keyboard-response","605","1077002","0.0-3.0-1.506","../audio/51-8-masc.mp3"," ","","barato.","","","",""
"","null","html-keyboard-response","606","1078273","0.0-3.0-0.507-0.507","<span style= ""font-size:30px; font-family: monospace"">+</span>","null","fixation","","","","",""
"","1149","audio-keyboard-response","607","1079706","0.0-3.0-1.507","../audio/54-1-fem.mp3"," ","","Estou","","","",""
"","731","audio-keyboard-response","608","1080714","0.0-3.0-1.508","../audio/54-2-fem.mp3"," ","","com","","","",""
"","960","audio-keyboard-response","609","1081946","0.0-3.0-1.509","../audio/54-3-fem.mp3"," ","","medo","","","",""
"","709","audio-keyboard-response","610","1082938","0.0-3.0-1.510","../audio/54-4-fem.mp3"," ","","da","","","",""
"","949","audio-keyboard-response","611","1084154","0.0-3.0-1.511","../audio/54-5-fem.mp3"," ","","atual","","","",""
"","1541","audio-keyboard-response","612","1085962","0.0-3.0-1.512","../audio/54-6-fem.mp3"," ","","organização","","","",""
"","731","audio-keyboard-response","613","1086954","0.0-3.0-1.513","../audio/54-7-fem.mp3"," ","","do","","","",""
"","960","audio-keyboard-response","614","1088186","0.0-3.0-1.514","../audio/54-8-fem.mp3"," ","","país.","","","",""
"","null","html-keyboard-response","615","1089463","0.0-3.0-0.515-0.515","<span style= ""font-size:30px; font-family: monospace"">+</span>","null","fixation","","","","",""
"","661","audio-keyboard-response","616","1090410","0.0-3.0-1.515","../audio/53-1-masc.mp3"," ","","O","","","",""
"","851","audio-keyboard-response","617","1091530","0.0-3.0-1.516","../audio/53-2-masc.mp3"," ","","médico","","","",""
"","680","audio-keyboard-response","618","1092490","0.0-3.0-1.517","../audio/53-3-masc.mp3"," ","","foi","","","",""
"","1059","audio-keyboard-response","619","1093818","0.0-3.0-1.518","../audio/53-4-masc.mp3"," ","","bastante","","","",""
"","1040","audio-keyboard-response","620","1095130","0.0-3.0-1.519","../audio/53-5-masc.mp3"," ","","preciso","","","",""
"","989","audio-keyboard-response","621","1096394","0.0-3.0-1.520","../audio/53-6-masc.mp3"," ","","durante","","","",""
"","651","audio-keyboard-response","622","1097321","0.0-3.0-1.521","../audio/53-7-masc.mp3"," ","","a","","","",""
"","1320","audio-keyboard-response","623","1098906","0.0-3.0-1.522","../audio/53-8-masc.mp3"," ","","cirurgia.","","","",""
"","null","html-keyboard-response","624","1100176","0.0-3.0-0.523-0.523","<span style= ""font-size:30px; font-family: monospace"">+</span>","null","fixation","","","","",""
"","619","audio-keyboard-response","625","1101066","0.0-3.0-1.523","../audio/52-1-masc.mp3"," ","","Às","","","",""
"","859","audio-keyboard-response","626","1102186","0.0-3.0-1.524","../audio/52-2-masc.mp3"," ","","vezes","","","",""
"","661","audio-keyboard-response","627","1103114","0.0-3.0-1.525","../audio/52-3-masc.mp3"," ","","eu","","","",""
"","800","audio-keyboard-response","628","1104186","0.0-3.0-1.526","../audio/52-4-masc.mp3"," ","","tenho","","","",""
"","1080","audio-keyboard-response","629","1105545","0.0-3.0-1.527","../audio/52-5-masc.mp3"," ","","azia","","","",""
"","901","audio-keyboard-response","630","1106730","0.0-3.0-1.528","../audio/52-6-masc.mp3"," ","","depois","","","",""
"","739","audio-keyboard-response","631","1107738","0.0-3.0-1.529","../audio/52-7-masc.mp3"," ","","da","","","",""
"","1069","audio-keyboard-response","632","1109082","0.0-3.0-1.530","../audio/52-8-masc.mp3"," ","","janta.","","","",""
"","null","html-keyboard-response","633","1110349","0.0-3.0-0.531-0.531","<span style= ""font-size:30px; font-family: monospace"">+</span>","null","fixation","","","","",""
"","661","audio-keyboard-response","634","1111290","0.0-3.0-1.531","../audio/55-1-fem.mp3"," ","","O","","","",""
"","1029","audio-keyboard-response","635","1112602","0.0-3.0-1.532","../audio/55-2-fem.mp3"," ","","insulto","","","",""
"","1069","audio-keyboard-response","636","1113946","0.0-3.0-1.533","../audio/55-3-fem.mp3"," ","","recente","","","",""
"","1109","audio-keyboard-response","637","1115338","0.0-3.0-1.534","../audio/55-4-fem.mp3"," ","","causou","","","",""
"","1349","audio-keyboard-response","638","1116954","0.0-3.0-1.535","../audio/55-5-fem.mp3"," ","","indignação","","","",""
"","1280","audio-keyboard-response","639","1118506","0.0-3.0-1.536","../audio/55-6-fem.mp3"," ","","em","","","",""
"","819","audio-keyboard-response","640","1119594","0.0-3.0-1.537","../audio/55-7-fem.mp3"," ","","todos.","","","",""
"","6572","html-keyboard-response","641","1126426","0.0-3.0-2.537-0.537","<span style=""font-size:25px; font-family: monospace"">O insulto causou calmaria?</span>","n","","","O insulto causou calmaria?","null","exp-sent","false"
"","null","html-keyboard-response","642","1127942","0.0-3.0-0.538-0.538","<span style= ""font-size:30px; font-family: monospace"">+</span>","null","fixation","","","","",""
"","1091","audio-keyboard-response","643","1129322","0.0-3.0-1.538","../audio/78-1-fem.mp3"," ","","Eles","","","",""
"","960","audio-keyboard-response","644","1130554","0.0-3.0-1.539","../audio/78-2-fem.mp3"," ","","trazem","","","",""
"","792","audio-keyboard-response","645","1131610","0.0-3.0-1.540","../audio/78-3-fem.mp3"," ","","um","","","",""
"","1029","audio-keyboard-response","646","1132922","0.0-3.0-1.541","../audio/78-4-fem.mp3"," ","","fato","","","",""
"","1000","audio-keyboard-response","647","1134202","0.0-3.0-1.542","../audio/78-5-fem.mp3"," ","","urgente","","","",""
"","1019","audio-keyboard-response","648","1135498","0.0-3.0-1.543","../audio/78-6-fem.mp3"," ","","todos","","","",""
"","939","audio-keyboard-response","649","1136714","0.0-3.0-1.544","../audio/78-7-fem.mp3"," ","","os","","","",""
"","960","audio-keyboard-response","650","1137962","0.0-3.0-1.545","../audio/78-8-fem.mp3"," ","","dias.","","","",""
"","null","html-keyboard-response","651","1139229","0.0-3.0-0.546-0.546","<span style= ""font-size:30px; font-family: monospace"">+</span>","null","fixation","","","","",""
"","1232","audio-keyboard-response","652","1140730","0.0-3.0-1.546","../audio/76-1-fem.mp3"," ","","O","","","",""
"","1379","audio-keyboard-response","653","1142378","0.0-3.0-1.547","../audio/76-2-fem.mp3"," ","","bisavô","","","",""
"","981","audio-keyboard-response","654","1143642","0.0-3.0-1.548","../audio/76-3-fem.mp3"," ","","comprou","","","",""
"","789","audio-keyboard-response","655","1144714","0.0-3.0-1.549","../audio/76-4-fem.mp3"," ","","um","","","",""
"","1189","audio-keyboard-response","656","1146186","0.0-3.0-1.550","../audio/76-5-fem.mp3"," ","","ralador","","","",""
"","709","audio-keyboard-response","657","1147178","0.0-3.0-1.551","../audio/76-6-fem.mp3"," ","","de","","","",""
"","880","audio-keyboard-response","658","1148330","0.0-3.0-1.552","../audio/76-7-fem.mp3"," ","","queijo.","","","",""
"","null","html-keyboard-response","659","1149603","0.0-3.0-0.553-0.553","<span style= ""font-size:30px; font-family: monospace"">+</span>","null","fixation","","","","",""
"","699","audio-keyboard-response","660","1150586","0.0-3.0-1.553","../audio/77-1-fem.mp3"," ","","A","","","",""
"","1011","audio-keyboard-response","661","1151866","0.0-3.0-1.554","../audio/77-2-fem.mp3"," ","","criança","","","",""
"","949","audio-keyboard-response","662","1153098","0.0-3.0-1.555","../audio/77-3-fem.mp3"," ","","ficou","","","",""
"","989","audio-keyboard-response","663","1154362","0.0-3.0-1.556","../audio/77-4-fem.mp3"," ","","muito","","","",""
"","1109","audio-keyboard-response","664","1155754","0.0-3.0-1.557","../audio/77-5-fem.mp3"," ","","feliz","","","",""
"","840","audio-keyboard-response","665","1156858","0.0-3.0-1.558","../audio/77-6-fem.mp3"," ","","com","","","",""
"","848","audio-keyboard-response","666","1157978","0.0-3.0-1.559","../audio/77-7-fem.mp3"," ","","o","","","",""
"","1781","audio-keyboard-response","667","1160042","0.0-3.0-1.560","../audio/77-8-fem.mp3"," ","","brinquedo.","","","",""
"","null","html-keyboard-response","668","1161317","0.0-3.0-0.561-0.561","<span style= ""font-size:30px; font-family: monospace"">+</span>","null","fixation","","","","",""
"","1789","audio-keyboard-response","669","1163386","0.0-3.0-1.561","../audio/79-1-masc.mp3"," ","","A","","","",""
"","1491","audio-keyboard-response","670","1165162","0.0-3.0-1.562","../audio/79-2-masc.mp3"," ","","médica","","","",""
"","1509","audio-keyboard-response","671","1166954","0.0-3.0-1.563","../audio/79-3-masc.mp3"," ","","verificou","","","",""
"","720","audio-keyboard-response","672","1167946","0.0-3.0-1.564","../audio/79-4-masc.mp3"," ","","a","","","",""
"","1181","audio-keyboard-response","673","1169402","0.0-3.0-1.565","../audio/79-5-masc.mp3"," ","","gengiva","","","",""
"","789","audio-keyboard-response","674","1170474","0.0-3.0-1.566","../audio/79-6-masc.mp3"," ","","por","","","",""
"","1120","audio-keyboard-response","675","1171882","0.0-3.0-1.567","../audio/79-7-masc.mp3"," ","","último.","","","",""
"","null","html-keyboard-response","676","1173137","0.0-3.0-0.568-0.568","<span style= ""font-size:30px; font-family: monospace"">+</span>","null","fixation","","","","",""
"","941","audio-keyboard-response","677","1174362","0.0-3.0-1.568","../audio/80-1-masc.mp3"," ","","Meu","","","",""
"","1019","audio-keyboard-response","678","1175658","0.0-3.0-1.569","../audio/80-2-masc.mp3"," ","","primo","","","",""
"","1272","audio-keyboard-response","679","1177210","0.0-3.0-1.570","../audio/80-3-masc.mp3"," ","","conheceu","","","",""
"","840","audio-keyboard-response","680","1178314","0.0-3.0-1.571","../audio/80-4-masc.mp3"," ","","um","","","",""
"","1139","audio-keyboard-response","681","1179738","0.0-3.0-1.572","../audio/80-5-masc.mp3"," ","","jovem","","","",""
"","1059","audio-keyboard-response","682","1181066","0.0-3.0-1.573","../audio/80-6-masc.mp3"," ","","amável","","","",""
"","701","audio-keyboard-response","683","1182042","0.0-3.0-1.574","../audio/80-7-masc.mp3"," ","","e","","","",""
"","1211","audio-keyboard-response","684","1183530","0.0-3.0-1.575","../audio/80-8-masc.mp3"," ","","confiante.","","","",""
"","8748","html-keyboard-response","685","1192538","0.0-3.0-2.575-0.575","<span style=""font-size:25px; font-family: monospace"">O primo conheceu um jovem irritante?</span>","n","","","O primo conheceu um jovem irritante?","null","exp-sent","false"
"","null","html-keyboard-response","686","1194052","0.0-3.0-0.576-0.576","<span style= ""font-size:30px; font-family: monospace"">+</span>","null","fixation","","","","",""
"","669","audio-keyboard-response","687","1194986","0.0-3.0-1.576","../audio/24-1-fem.mp3"," ","","As","","","",""
"","1531","audio-keyboard-response","688","1196794","0.0-3.0-1.577","../audio/24-2-fem.mp3"," ","","crianças","","","",""
"","861","audio-keyboard-response","689","1197930","0.0-3.0-1.578","../audio/24-3-fem.mp3"," ","","vão","","","",""
"","1000","audio-keyboard-response","690","1199194","0.0-3.0-1.579","../audio/24-4-fem.mp3"," ","","ao","","","",""
"","1360","audio-keyboard-response","691","1200826","0.0-3.0-1.580","../audio/24-5-fem.mp3"," ","","cinema","","","",""
"","851","audio-keyboard-response","692","1201962","0.0-3.0-1.581","../audio/24-6-fem.mp3"," ","","mais","","","",""
"","1000","audio-keyboard-response","693","1203242","0.0-3.0-1.582","../audio/24-7-fem.mp3"," ","","tarde.","","","",""
"","null","html-keyboard-response","694","1204507","0.0-3.0-0.583-0.583","<span style= ""font-size:30px; font-family: monospace"">+</span>","null","fixation","","","","",""
"","731","audio-keyboard-response","695","1205530","0.0-3.0-1.583","../audio/22-1-fem.mp3"," ","","Eu","","","",""
"","1288","audio-keyboard-response","696","1207098","0.0-3.0-1.584","../audio/22-2-fem.mp3"," ","","detesto","","","",""
"","1200","audio-keyboard-response","697","1208570","0.0-3.0-1.585","../audio/22-3-fem.mp3"," ","","fumaça","","","",""
"","752","audio-keyboard-response","698","1209610","0.0-3.0-1.586","../audio/22-4-fem.mp3"," ","","de","","","",""
"","1520","audio-keyboard-response","699","1211402","0.0-3.0-1.587","../audio/22-5-fem.mp3"," ","","cachimbo","","","",""
"","1131","audio-keyboard-response","700","1212794","0.0-3.0-1.588","../audio/22-6-fem.mp3"," ","","e","","","",""
"","3771","audio-keyboard-response","701","1216842","0.0-3.0-1.589","../audio/22-7-fem.mp3"," ","","de","","","",""
"","2680","audio-keyboard-response","702","1219802","0.0-3.0-1.590","../audio/22-8-fem.mp3"," ","","cigarro.","","","",""
"","null","html-keyboard-response","703","1221056","0.0-3.0-0.591-0.591","<span style= ""font-size:30px; font-family: monospace"">+</span>","null","fixation","","","","",""
"","1211","audio-keyboard-response","704","1222554","0.0-3.0-1.591","../audio/21-1-masc.mp3"," ","","Precisamos","","","",""
"","1341","audio-keyboard-response","705","1224154","0.0-3.0-1.592","../audio/21-2-masc.mp3"," ","","de","","","",""
"","1709","audio-keyboard-response","706","1226138","0.0-3.0-1.593","../audio/21-3-masc.mp3"," ","","paciência","","","",""
"","1360","audio-keyboard-response","707","1227769","0.0-3.0-1.594","../audio/21-4-masc.mp3"," ","","e","","","",""
"","13669","audio-keyboard-response","708","1241721","0.0-3.0-1.595","../audio/21-5-masc.mp3"," ","","bondade","","","",""
"","949","audio-keyboard-response","709","1242953","0.0-3.0-1.596","../audio/21-6-masc.mp3"," ","","para","","","",""
"","701","audio-keyboard-response","710","1243929","0.0-3.0-1.597","../audio/21-7-masc.mp3"," ","","um","","","",""
"","1080","audio-keyboard-response","711","1245289","0.0-3.0-1.598","../audio/21-8-masc.mp3"," ","","mundo","","","",""
"","1069","audio-keyboard-response","712","1246633","0.0-3.0-1.599","../audio/21-9-masc.mp3"," ","","melhor.","","","",""
"","null","html-keyboard-response","713","1247898","0.0-3.0-0.600-0.600","<span style= ""font-size:30px; font-family: monospace"">+</span>","null","fixation","","","","",""
"","2829","audio-keyboard-response","714","1251017","0.0-3.0-1.600","../audio/23-1-fem.mp3"," ","","Português","","","",""
"","800","audio-keyboard-response","715","1252089","0.0-3.0-1.601","../audio/23-2-fem.mp3"," ","","é","","","",""
"","760","audio-keyboard-response","716","1253129","0.0-3.0-1.602","../audio/23-3-fem.mp3"," ","","um","","","",""
"","1389","audio-keyboard-response","717","1254793","0.0-3.0-1.603","../audio/23-4-fem.mp3"," ","","assunto","","","",""
"","1069","audio-keyboard-response","718","1256137","0.0-3.0-1.604","../audio/23-5-fem.mp3"," ","","elementar","","","",""
"","829","audio-keyboard-response","719","1257241","0.0-3.0-1.605","../audio/23-6-fem.mp3"," ","","para","","","",""
"","819","audio-keyboard-response","720","1258345","0.0-3.0-1.606","../audio/23-7-fem.mp3"," ","","os","","","",""
"","1781","audio-keyboard-response","721","1260393","0.0-3.0-1.607","../audio/23-8-fem.mp3"," ","","alunos.","","","",""
"","null","html-keyboard-response","722","1261654","0.0-3.0-0.608-0.608","<span style= ""font-size:30px; font-family: monospace"">+</span>","null","fixation","","","","",""
"","811","audio-keyboard-response","723","1262745","0.0-3.0-1.608","../audio/25-1-masc.mp3"," ","","Ela","","","",""
"","869","audio-keyboard-response","724","1263881","0.0-3.0-1.609","../audio/25-2-masc.mp3"," ","","faz","","","",""
"","920","audio-keyboard-response","725","1265065","0.0-3.0-1.610","../audio/25-3-masc.mp3"," ","","tanto","","","",""
"","1141","audio-keyboard-response","726","1266473","0.0-3.0-1.611","../audio/25-4-masc.mp3"," ","","cabelo","","","",""
"","960","audio-keyboard-response","727","1267705","0.0-3.0-1.612","../audio/25-5-masc.mp3"," ","","liso","","","",""
"","1000","audio-keyboard-response","728","1268985","0.0-3.0-1.613","../audio/25-6-masc.mp3"," ","","quanto","","","",""
"","1589","audio-keyboard-response","729","1270857","0.0-3.0-1.614","../audio/25-7-masc.mp3"," ","","cacheado.","","","",""
"","14068","html-keyboard-response","730","1285177","0.0-3.0-2.614-0.614","<span style=""font-size:25px; font-family: monospace"">Ela só faz cabelo cacheado?</span>","s","","","Ela só faz cabelo cacheado?","null","exp-sent","false"
"[{""page_index"":0,""viewing_time"":5802}]","5802","instructions","731","1291482","0.0-4.0","","","","","","","",""
