[
	{
		"view_history": [
			{
				"page_index": 0,
				"viewing_time": 5783
			}
		],
		"rt": 5784,
		"trial_type": "instructions",
		"trial_index": 0,
		"time_elapsed": 5784,
		"internal_node_id": "0.0-0.0"
	},
	{
		"rt": 19649,
		"response": {
			"age": "31"
		},
		"trial_type": "survey-text",
		"trial_index": 1,
		"time_elapsed": 25535,
		"internal_node_id": "0.0-1.0"
	},
	{
		"rt": 5078,
		"response": {
			"sex": "Masculino"
		},
		"question_order": [
			0
		],
		"trial_type": "survey-multi-choice",
		"trial_index": 2,
		"time_elapsed": 30727,
		"internal_node_id": "0.0-2.0"
	},
	{
		"rt": 30314,
		"response": {
			"own_schooling": "Ensino Médio completo"
		},
		"question_order": [
			0
		],
		"trial_type": "survey-multi-choice",
		"trial_index": 3,
		"time_elapsed": 61143,
		"internal_node_id": "0.0-3.0"
	},
	{
		"rt": 43091,
		"response": {
			"mother_schooling": "Ensino Médio completo"
		},
		"question_order": [
			0
		],
		"trial_type": "survey-multi-choice",
		"trial_index": 4,
		"time_elapsed": 104334,
		"internal_node_id": "0.0-4.0"
	},
	{
		"rt": 63202,
		"response": {
			"father_schooling": "Outro"
		},
		"question_order": [
			0
		],
		"trial_type": "survey-multi-choice",
		"trial_index": 5,
		"time_elapsed": 167637,
		"internal_node_id": "0.0-5.0"
	},
	{
		"rt": 321858,
		"response": {
			"language_0": "kreyol",
			"listening_0": "2",
			"speaking_0": "2",
			"reading_0": "3",
			"writing_0": "3",
			"language_1": "frances",
			"listening_1": "6",
			"speaking_1": "6",
			"reading_1": "6",
			"writing_1": "6",
			"language_2": "portugues",
			"listening_2": "27",
			"speaking_2": "27",
			"reading_2": "27",
			"writing_2": "28",
			"language_3": "ingles",
			"listening_3": "17",
			"speaking_3": "17",
			"reading_3": "17",
			"writing_3": "17"
		},
		"trial_type": "survey-html-form",
		"trial_index": 6,
		"time_elapsed": 489593,
		"internal_node_id": "0.0-6.0"
	},
	{
		"rt": 248714,
		"response": {
			"language_3": "ingles",
			"listening_3": "17",
			"speaking_3": "17",
			"reading_3": "17",
			"writing_3": "17",
			"language_1": "frances",
			"listening_1": "6",
			"speaking_1": "6",
			"reading_1": "6",
			"writing_1": "6",
			"language_2": "portugues",
			"listening_2": "5",
			"speaking_2": "5",
			"reading_2": "5",
			"writing_2": "5"
		},
		"trial_type": "survey-html-form",
		"trial_index": 7,
		"time_elapsed": 738407,
		"internal_node_id": "0.0-7.0"
	},
	{
		"rt": 21633,
		"response": {
			"country_of_origin": "haiti"
		},
		"trial_type": "survey-text",
		"trial_index": 8,
		"time_elapsed": 760142,
		"internal_node_id": "0.0-8.0"
	},
	{
		"rt": 18474,
		"response": {
			"country_of_residence": "brasil"
		},
		"trial_type": "survey-text",
		"trial_index": 9,
		"time_elapsed": 778718,
		"internal_node_id": "0.0-9.0"
	},
	{
		"rt": 28010,
		"response": {
			"country_0": "",
			"duration_0": "",
			"language_0": "",
			"frequency_0": "",
			"country_1": "",
			"duration_1": "",
			"language_1": "",
			"frequency_1": "",
			"country_2": "",
			"duration_2": "",
			"language_2": "",
			"frequency_2": "",
			"country_3": "",
			"duration_3": "",
			"language_3": "",
			"frequency_3": ""
		},
		"trial_type": "survey-html-form",
		"trial_index": 10,
		"time_elapsed": 806830,
		"internal_node_id": "0.0-10.0"
	},
	{
		"rt": 98546,
		"response": {
			"language_0": "kreyol",
			"context_0": "2",
			"language_1": "frances",
			"context_1": "2",
			"language_2": "portugues",
			"context_2": "1",
			"language_3": "ingles",
			"context_3": "2"
		},
		"trial_type": "survey-html-form",
		"trial_index": 11,
		"time_elapsed": 905477,
		"internal_node_id": "0.0-11.0"
	},
	{
		"rt": 166153,
		"response": {
			"language_0": "kreyol",
			"home_0": "2",
			"friends_0": "2",
			"school_0": "2",
			"work_0": "",
			"computer_0": "",
			"games_0": "",
			"language_1": "frances",
			"home_1": "6",
			"friends_1": "6",
			"school_1": "6",
			"work_1": "",
			"computer_1": "",
			"games_1": "6",
			"language_2": "portugues",
			"home_2": "5",
			"friends_2": "5",
			"school_2": "5",
			"work_2": "5",
			"computer_2": "5",
			"games_2": "5",
			"language_3": "ingles",
			"home_3": "17",
			"friends_3": "17",
			"school_3": "17",
			"work_3": "17",
			"computer_3": "17",
			"games_3": "17"
		},
		"trial_type": "survey-html-form",
		"trial_index": 12,
		"time_elapsed": 1071733,
		"internal_node_id": "0.0-12.0"
	},
	{
		"rt": 39352,
		"response": {
			"new_languages": 2
		},
		"question_order": [
			0
		],
		"trial_type": "survey-likert",
		"trial_index": 13,
		"time_elapsed": 1111188,
		"internal_node_id": "0.0-13.0"
	},
	{
		"rt": 230770,
		"response": {
			"language_0": "kreyol",
			"listen_0": "3",
			"talk_0": "6",
			"read_0": "6",
			"write_0": "6",
			"language_1": "frances",
			"listen_1": "2",
			"talk_1": "2",
			"read_1": "2",
			"write_1": "6",
			"language_2": "ingles",
			"listen_2": "3",
			"talk_2": "3",
			"read_2": "3",
			"write_2": "3",
			"language_3": "portugues",
			"listen_3": "5",
			"talk_3": "5",
			"read_3": "6",
			"write_3": "6"
		},
		"trial_type": "survey-html-form",
		"trial_index": 14,
		"time_elapsed": 1342059,
		"internal_node_id": "0.0-14.0"
	},
	{
		"rt": 259697,
		"response": {
			"language_0": "kreyol",
			"tv_0": "5",
			"radio_0": "",
			"read_fun_0": "3",
			"read_work_0": "",
			"write_0": "",
			"social_nets_0": "2",
			"language_1": "frances",
			"tv_1": "5",
			"radio_1": "5",
			"read_fun_1": "3",
			"read_work_1": "",
			"write_1": "",
			"social_nets_1": "3",
			"language_2": "ingles",
			"tv_2": "1",
			"radio_2": "1",
			"read_fun_2": "1",
			"read_work_2": "",
			"write_2": "",
			"social_nets_2": "3",
			"language_3": "portugues",
			"tv_3": "9",
			"radio_3": "9",
			"read_fun_3": "7",
			"read_work_3": "7",
			"write_3": "7",
			"social_nets_3": "8"
		},
		"trial_type": "survey-html-form",
		"trial_index": 15,
		"time_elapsed": 1601858,
		"internal_node_id": "0.0-15.0"
	},
	{
		"rt": 134065,
		"response": {
			"language_0": "kreyol",
			"family_0": "5",
			"friends_0": "10",
			"work_0": "",
			"school_0": "",
			"language_1": "frances",
			"family_1": "5",
			"friends_1": "10",
			"work_1": "",
			"school_1": "",
			"language_2": "ingles",
			"family_2": "1",
			"friends_2": "2",
			"work_2": "1",
			"school_2": "",
			"language_3": "portugues",
			"family_3": "5",
			"friends_3": "10",
			"work_3": "8",
			"school_3": ""
		},
		"trial_type": "survey-html-form",
		"trial_index": 16,
		"time_elapsed": 1736025,
		"internal_node_id": "0.0-16.0"
	},
	{
		"rt": 173330,
		"response": {
			"language_0_0": "portugues",
			"language_0_1": "portugues",
			"language_0_2": "portugues",
			"language_0_3": "portugues",
			"language_1_0": "portugues",
			"language_1_1": "portugues",
			"language_1_2": "portugues",
			"language_1_3": "portugues",
			"language_2_0": "",
			"language_2_1": "",
			"language_2_2": "",
			"language_2_3": "",
			"language_3_0": "portugues",
			"language_3_1": "portugues",
			"language_3_2": "portugues",
			"language_3_3": "portugues"
		},
		"trial_type": "survey-html-form",
		"trial_index": 17,
		"time_elapsed": 1909456,
		"internal_node_id": "0.0-17.0"
	},
	{
		"rt": 312426,
		"response": {
			"language_2": "ingles",
			"think_2": "",
			"selftalk_2": "",
			"emotions_2": "",
			"dream_2": "",
			"math_2": "",
			"remember_2": "",
			"pray_2": "",
			"language_1": "frances",
			"think_1": "4",
			"selftalk_1": "4",
			"emotions_1": "4",
			"dream_1": "1",
			"math_1": "1",
			"remember_1": "5",
			"pray_1": "6",
			"language_3": "portugues",
			"think_3": "4",
			"selftalk_3": "4",
			"emotions_3": "4",
			"dream_3": "4",
			"math_3": "1",
			"remember_3": "5",
			"pray_3": "4"
		},
		"trial_type": "survey-html-form",
		"trial_index": 18,
		"time_elapsed": 2221983,
		"internal_node_id": "0.0-18.0"
	},
	{
		"rt": 34184,
		"response": {
			"dificuldade_visao_ou_audicao": "Não"
		},
		"question_order": [
			0
		],
		"trial_type": "survey-multi-choice",
		"trial_index": 19,
		"time_elapsed": 2256270,
		"internal_node_id": "0.0-19.0"
	},
	{
		"rt": 5294,
		"response": {
			"detalhes_dificuldades_audicao_ou_visao": ""
		},
		"trial_type": "survey-text",
		"trial_index": 20,
		"time_elapsed": 2261670,
		"internal_node_id": "0.0-20.0"
	},
	{
		"rt": 73778,
		"response": {
			"additional_info": "aprender socialmente"
		},
		"trial_type": "survey-text",
		"trial_index": 21,
		"time_elapsed": 2335550,
		"internal_node_id": "0.0-21.0"
	}
]