[
	{
		"view_history": [
			{
				"page_index": 0,
				"viewing_time": 1291
			}
		],
		"rt": 1291,
		"trial_type": "instructions",
		"trial_index": 0,
		"time_elapsed": 1292,
		"internal_node_id": "0.0-0.0"
	},
	{
		"rt": 122241,
		"response": {
			"tcle": "Concordo voluntariamente em participar da pesquisa conforme texto acima."
		},
		"question_order": [
			0
		],
		"trial_type": "survey-multi-choice",
		"trial_index": 1,
		"time_elapsed": 123747,
		"internal_node_id": "0.0-1.0"
	},
	{
		"rt": 36699,
		"response": {
			"email": "2y17d"
		},
		"trial_type": "survey-text",
		"trial_index": 2,
		"time_elapsed": 161467,
		"internal_node_id": "0.0-2.0"
	}
]