"view_history","rt","trial_type","trial_index","time_elapsed","internal_node_id","stimulus","response","class","status","answer","correct","trial","letters"
"[{""page_index"":0,""viewing_time"":10507}]","10507","instructions","0","10508","0.0-0.0","","","","","","","",""
"","null","html-keyboard-response","1","11121","0.0-1.0-0.0","+","null","","","","","",""
"","6121","html-keyboard-response","2","17243","0.0-1.0-1.0","daja","s","null","noncog","pseudo","N","prac","null"
"","null","html-keyboard-response","3","17743","0.0-1.0-0.1","+","null","","","","","",""
"","1611","html-keyboard-response","4","19355","0.0-1.0-1.1","calmaria","s","null","noncog","word","S","prac","null"
"","null","html-keyboard-response","5","19865","0.0-1.0-0.2","+","null","","","","","",""
"","1841","html-keyboard-response","6","21707","0.0-1.0-1.2","órgão","s","null","noncog","word","S","prac","null"
"","null","html-keyboard-response","7","22210","0.0-1.0-0.3","+","null","","","","","",""
"","1592","html-keyboard-response","8","23803","0.0-1.0-1.3","crante","s","null","noncog","pseudo","N","prac","null"
"","null","html-keyboard-response","9","24315","0.0-1.0-0.4","+","null","","","","","",""
"","1103","html-keyboard-response","10","25418","0.0-1.0-1.4","chassi","s","null","cog","word","S","prac","null"
"","null","html-keyboard-response","11","25923","0.0-1.0-0.5","+","null","","","","","",""
"","2279","html-keyboard-response","12","28202","0.0-1.0-1.5","plibar","s","null","noncog","pseudo","N","prac","null"
"","null","html-keyboard-response","13","28716","0.0-1.0-0.6","+","null","","","","","",""
"","1342","html-keyboard-response","14","30059","0.0-1.0-1.6","oliva","s","null","cog","word","S","prac","null"
"[{""page_index"":0,""viewing_time"":4511}]","4512","instructions","15","34571","0.0-2.0","","","","","","","",""
"","null","html-keyboard-response","16","35173","0.0-3.0-0.0","+","null","","","","","",""
"","13941","html-keyboard-response","17","49115","0.0-3.0-1.0","afual","s","null","noncog","pseudo","N","exp","null"
"","null","html-keyboard-response","18","49615","0.0-3.0-0.1","+","null","","","","","",""
"","3002","html-keyboard-response","19","52618","0.0-3.0-1.1","cerca","s","n","noncog","word","S","exp","5"
"","null","html-keyboard-response","20","53119","0.0-3.0-0.2","+","null","","","","","",""
"","1915","html-keyboard-response","21","55034","0.0-3.0-1.2","nacional","s","a","cog","word","S","exp","8"
"","null","html-keyboard-response","22","55543","0.0-3.0-0.3","+","null","","","","","",""
"","1939","html-keyboard-response","23","57482","0.0-3.0-1.3","atitro","s","null","noncog","pseudo","N","exp","null"
"","null","html-keyboard-response","24","57984","0.0-3.0-0.4","+","null","","","","","",""
"","1322","html-keyboard-response","25","59306","0.0-3.0-1.4","orupas","s","null","noncog","pseudo","N","exp","null"
"","null","html-keyboard-response","26","59808","0.0-3.0-0.5","+","null","","","","","",""
"","5034","html-keyboard-response","27","64842","0.0-3.0-1.5","usnado","n","null","noncog","pseudo","N","exp","null"
"","null","html-keyboard-response","28","65344","0.0-3.0-0.6","+","null","","","","","",""
"","1834","html-keyboard-response","29","67178","0.0-3.0-1.6","casuas","s","null","noncog","pseudo","N","exp","null"
"","null","html-keyboard-response","30","67681","0.0-3.0-0.7","+","null","","","","","",""
"","4010","html-keyboard-response","31","71691","0.0-3.0-1.7","tronca","s","null","noncog","pseudo","N","exp","null"
"","null","html-keyboard-response","32","72192","0.0-3.0-0.8","+","null","","","","","",""
"","2377","html-keyboard-response","33","74570","0.0-3.0-1.8","pimada","s","null","noncog","pseudo","N","exp","null"
"","null","html-keyboard-response","34","75072","0.0-3.0-0.9","+","null","","","","","",""
"","2058","html-keyboard-response","35","77130","0.0-3.0-1.9","morno","s","a","noncog","word","S","exp","5"
"","null","html-keyboard-response","36","77631","0.0-3.0-0.10","+","null","","","","","",""
"","1227","html-keyboard-response","37","78858","0.0-3.0-1.10","mudança","s","n","noncog","word","S","exp","7"
"","null","html-keyboard-response","38","79360","0.0-3.0-0.11","+","null","","","","","",""
"","1482","html-keyboard-response","39","80842","0.0-3.0-1.11","âgnulo","s","null","noncog","pseudo","N","exp","null"
"","null","html-keyboard-response","40","81344","0.0-3.0-0.12","+","null","","","","","",""
"","970","html-keyboard-response","41","82314","0.0-3.0-1.12","boreta","s","null","noncog","pseudo","N","exp","null"
"","null","html-keyboard-response","42","82824","0.0-3.0-0.13","+","null","","","","","",""
"","1170","html-keyboard-response","43","83994","0.0-3.0-1.13","hébies","s","null","noncog","pseudo","N","exp","null"
"","null","html-keyboard-response","44","84496","0.0-3.0-0.14","+","null","","","","","",""
"","1402","html-keyboard-response","45","85898","0.0-3.0-1.14","resmungar","s","v","noncog","word","S","exp","9"
"","null","html-keyboard-response","46","86400","0.0-3.0-0.15","+","null","","","","","",""
"","1898","html-keyboard-response","47","88298","0.0-3.0-1.15","usfiga","s","null","noncog","pseudo","N","exp","null"
"","null","html-keyboard-response","48","88800","0.0-3.0-0.16","+","null","","","","","",""
"","1561","html-keyboard-response","49","90362","0.0-3.0-1.16","espionar","s","v","cog","word","S","exp","8"
"","null","html-keyboard-response","50","90863","0.0-3.0-0.17","+","null","","","","","",""
"","1227","html-keyboard-response","51","92090","0.0-3.0-1.17","parceter","s","null","noncog","pseudo","N","exp","null"
"","null","html-keyboard-response","52","92591","0.0-3.0-0.18","+","null","","","","","",""
"","1579","html-keyboard-response","53","94170","0.0-3.0-1.18","mania","s","n","cog","word","S","exp","5"
"","null","html-keyboard-response","54","94671","0.0-3.0-0.19","+","null","","","","","",""
"","1050","html-keyboard-response","55","95722","0.0-3.0-1.19","lapestra","s","null","noncog","pseudo","N","exp","null"
"","null","html-keyboard-response","56","96224","0.0-3.0-0.20","+","null","","","","","",""
"","986","html-keyboard-response","57","97210","0.0-3.0-1.20","loaco","n","null","noncog","pseudo","N","exp","null"
"","null","html-keyboard-response","58","97711","0.0-3.0-0.21","+","null","","","","","",""
"","987","html-keyboard-response","59","98698","0.0-3.0-1.21","jantar","s","v","noncog","word","S","exp","6"
"","null","html-keyboard-response","60","99200","0.0-3.0-0.22","+","null","","","","","",""
"","1578","html-keyboard-response","61","100778","0.0-3.0-1.22","dilheira","s","null","noncog","pseudo","N","exp","null"
"","null","html-keyboard-response","62","101279","0.0-3.0-0.23","+","null","","","","","",""
"","2683","html-keyboard-response","63","103962","0.0-3.0-1.23","pantufa","s","n","cog","word","S","exp","7"
"","null","html-keyboard-response","64","104463","0.0-3.0-0.24","+","null","","","","","",""
"","1163","html-keyboard-response","65","105626","0.0-3.0-1.24","grótis","s","null","noncog","pseudo","N","exp","null"
"","null","html-keyboard-response","66","106127","0.0-3.0-0.25","+","null","","","","","",""
"","1339","html-keyboard-response","67","107466","0.0-3.0-1.25","ejerro","n","null","noncog","pseudo","N","exp","null"
"","null","html-keyboard-response","68","107968","0.0-3.0-0.26","+","null","","","","","",""
"","2057","html-keyboard-response","69","110026","0.0-3.0-1.26","memória","s","n","cog","word","S","exp","7"
"","null","html-keyboard-response","70","110527","0.0-3.0-0.27","+","null","","","","","",""
"","1835","html-keyboard-response","71","112362","0.0-3.0-1.27","brincar","s","v","noncog","word","S","exp","7"
"","null","html-keyboard-response","72","112864","0.0-3.0-0.28","+","null","","","","","",""
"","794","html-keyboard-response","73","113658","0.0-3.0-1.28","telefone","s","n","cog","word","S","exp","8"
"","null","html-keyboard-response","74","114160","0.0-3.0-0.29","+","null","","","","","",""
"","922","html-keyboard-response","75","115082","0.0-3.0-1.29","hedoru","n","null","noncog","pseudo","N","exp","null"
"","null","html-keyboard-response","76","115583","0.0-3.0-0.30","+","null","","","","","",""
"","1195","html-keyboard-response","77","116779","0.0-3.0-1.30","perdão","s","n","noncog","word","S","exp","6"
"","null","html-keyboard-response","78","117292","0.0-3.0-0.31","+","null","","","","","",""
"","1182","html-keyboard-response","79","118474","0.0-3.0-1.31","temperar","s","v","noncog","word","S","exp","8"
"","null","html-keyboard-response","80","118976","0.0-3.0-0.32","+","null","","","","","",""
"","1114","html-keyboard-response","81","120090","0.0-3.0-1.32","adoçar","s","v","noncog","word","S","exp","6"
"","null","html-keyboard-response","82","120591","0.0-3.0-0.33","+","null","","","","","",""
"","1259","html-keyboard-response","83","121850","0.0-3.0-1.33","encelhor","s","null","noncog","pseudo","N","exp","null"
"","null","html-keyboard-response","84","122360","0.0-3.0-0.34","+","null","","","","","",""
"","1138","html-keyboard-response","85","123498","0.0-3.0-1.34","papai","s","n","cog","word","S","exp","5"
"","null","html-keyboard-response","86","123999","0.0-3.0-0.35","+","null","","","","","",""
"","715","html-keyboard-response","87","124714","0.0-3.0-1.35","selir","s","null","noncog","pseudo","N","exp","null"
"","null","html-keyboard-response","88","125216","0.0-3.0-0.36","+","null","","","","","",""
"","1226","html-keyboard-response","89","126442","0.0-3.0-1.36","berquesa","s","null","noncog","pseudo","N","exp","null"
"","null","html-keyboard-response","90","126944","0.0-3.0-0.37","+","null","","","","","",""
"","618","html-keyboard-response","91","127562","0.0-3.0-1.37","plinta","s","null","noncog","pseudo","N","exp","null"
"","null","html-keyboard-response","92","128063","0.0-3.0-0.38","+","null","","","","","",""
"","539","html-keyboard-response","93","128602","0.0-3.0-1.38","multiplicar","s","v","cog","word","S","exp","11"
"","null","html-keyboard-response","94","129110","0.0-3.0-0.39","+","null","","","","","",""
"","884","html-keyboard-response","95","129994","0.0-3.0-1.39","oricia","s","null","noncog","pseudo","N","exp","null"
"","null","html-keyboard-response","96","130496","0.0-3.0-0.40","+","null","","","","","",""
"","858","html-keyboard-response","97","131354","0.0-3.0-1.40","chato","s","n","noncog","word","S","exp","5"
"","null","html-keyboard-response","98","131856","0.0-3.0-0.41","+","null","","","","","",""
"","2154","html-keyboard-response","99","134010","0.0-3.0-1.41","hipócrita","s","a","noncog","word","S","exp","9"
"","null","html-keyboard-response","100","134511","0.0-3.0-0.42","+","null","","","","","",""
"","587","html-keyboard-response","101","135098","0.0-3.0-1.42","oper","s","null","noncog","pseudo","N","exp","null"
"","null","html-keyboard-response","102","135600","0.0-3.0-0.43","+","null","","","","","",""
"","425","html-keyboard-response","103","136026","0.0-3.0-1.43","gilha","s","null","noncog","pseudo","N","exp","null"
"","null","html-keyboard-response","104","136527","0.0-3.0-0.44","+","null","","","","","",""
"","347","html-keyboard-response","105","136874","0.0-3.0-1.44","areia","s","n","noncog","word","S","exp","5"
"","null","html-keyboard-response","106","137376","0.0-3.0-0.45","+","null","","","","","",""
"","314","html-keyboard-response","107","137690","0.0-3.0-1.45","fino","s","a","cog","word","S","exp","4"
"","null","html-keyboard-response","108","138192","0.0-3.0-0.46","+","null","","","","","",""
"","282","html-keyboard-response","109","138474","0.0-3.0-1.46","bagunceira","s","a","noncog","word","S","exp","10"
"","null","html-keyboard-response","110","138976","0.0-3.0-0.47","+","null","","","","","",""
"","314","html-keyboard-response","111","139290","0.0-3.0-1.47","arranjar","s","v","cog","word","S","exp","8"
"","null","html-keyboard-response","112","139791","0.0-3.0-0.48","+","null","","","","","",""
"","299","html-keyboard-response","113","140090","0.0-3.0-1.48","crutas","s","null","noncog","pseudo","N","exp","null"
"","null","html-keyboard-response","114","140592","0.0-3.0-0.49","+","null","","","","","",""
"","362","html-keyboard-response","115","140954","0.0-3.0-1.49","aitrou","s","null","noncog","pseudo","N","exp","null"
"","null","html-keyboard-response","116","141455","0.0-3.0-0.50","+","null","","","","","",""
"","363","html-keyboard-response","117","141818","0.0-3.0-1.50","crolatário","s","null","noncog","pseudo","N","exp","null"
"","null","html-keyboard-response","118","142319","0.0-3.0-0.51","+","null","","","","","",""
"","363","html-keyboard-response","119","142682","0.0-3.0-1.51","deselegante","s","a","noncog","word","S","exp","11"
"","null","html-keyboard-response","120","143184","0.0-3.0-0.52","+","null","","","","","",""
"","474","html-keyboard-response","121","143658","0.0-3.0-1.52","senareta","s","null","noncog","pseudo","N","exp","null"
"","null","html-keyboard-response","122","144159","0.0-3.0-0.53","+","null","","","","","",""
"","314","html-keyboard-response","123","144474","0.0-3.0-1.53","grátis","s","a","cog","word","S","exp","6"
"","null","html-keyboard-response","124","144975","0.0-3.0-0.54","+","null","","","","","",""
"","539","html-keyboard-response","125","145514","0.0-3.0-1.54","imitar","s","v","cog","word","S","exp","6"
"","null","html-keyboard-response","126","146016","0.0-3.0-0.55","+","null","","","","","",""
"","474","html-keyboard-response","127","146490","0.0-3.0-1.55","rovaz","s","null","noncog","pseudo","N","exp","null"
"","null","html-keyboard-response","128","146991","0.0-3.0-0.56","+","null","","","","","",""
"","874","html-keyboard-response","129","147866","0.0-3.0-1.56","prenas","s","null","noncog","pseudo","N","exp","null"
"","null","html-keyboard-response","130","148367","0.0-3.0-0.57","+","null","","","","","",""
"","363","html-keyboard-response","131","148730","0.0-3.0-1.57","ensuas","s","null","noncog","pseudo","N","exp","null"
"","null","html-keyboard-response","132","149231","0.0-3.0-0.58","+","null","","","","","",""
"","283","html-keyboard-response","133","149514","0.0-3.0-1.58","espinho","s","n","noncog","word","S","exp","7"
"","null","html-keyboard-response","134","150016","0.0-3.0-0.59","+","null","","","","","",""
"","298","html-keyboard-response","135","150314","0.0-3.0-1.59","atapdar","s","null","noncog","pseudo","N","exp","null"
"","null","html-keyboard-response","136","150816","0.0-3.0-0.60","+","null","","","","","",""
"","346","html-keyboard-response","137","151162","0.0-3.0-1.60","montanha","s","n","cog","word","S","exp","8"
"","null","html-keyboard-response","138","151664","0.0-3.0-0.61","+","null","","","","","",""
"","346","html-keyboard-response","139","152010","0.0-3.0-1.61","distraído","s","a","cog","word","S","exp","9"
"","null","html-keyboard-response","140","152512","0.0-3.0-0.62","+","null","","","","","",""
"","314","html-keyboard-response","141","152826","0.0-3.0-1.62","cristal","s","n","cog","word","S","exp","7"
"","null","html-keyboard-response","142","153329","0.0-3.0-0.63","+","null","","","","","",""
"","553","html-keyboard-response","143","153882","0.0-3.0-1.63","verde","s","a","noncog","word","S","exp","5"
"","null","html-keyboard-response","144","154383","0.0-3.0-0.64","+","null","","","","","",""
"","442","html-keyboard-response","145","154826","0.0-3.0-1.64","frotes","s","null","noncog","pseudo","N","exp","null"
"","null","html-keyboard-response","146","155327","0.0-3.0-0.65","+","null","","","","","",""
"","251","html-keyboard-response","147","155578","0.0-3.0-1.65","francês","s","a","cog","word","S","exp","7"
"","null","html-keyboard-response","148","156079","0.0-3.0-0.66","+","null","","","","","",""
"","379","html-keyboard-response","149","156458","0.0-3.0-1.66","abieso","s","null","noncog","pseudo","N","exp","null"
"","null","html-keyboard-response","150","156960","0.0-3.0-0.67","+","null","","","","","",""
"","409","html-keyboard-response","151","157370","0.0-3.0-1.67","prever","s","v","cog","word","S","exp","6"
"","null","html-keyboard-response","152","157871","0.0-3.0-0.68","+","null","","","","","",""
"","266","html-keyboard-response","153","158138","0.0-3.0-1.68","cápsula","s","n","noncog","word","S","exp","7"
"","null","html-keyboard-response","154","158639","0.0-3.0-0.69","+","null","","","","","",""
"","314","html-keyboard-response","155","158954","0.0-3.0-1.69","mal","s","a","cog","word","S","exp","3"
"","null","html-keyboard-response","156","159456","0.0-3.0-0.70","+","null","","","","","",""
"","346","html-keyboard-response","157","159802","0.0-3.0-1.70","apontar","s","v","noncog","word","S","exp","7"
"","null","html-keyboard-response","158","160303","0.0-3.0-0.71","+","null","","","","","",""
"","427","html-keyboard-response","159","160730","0.0-3.0-1.71","uçar","s","null","noncog","pseudo","N","exp","null"
"","null","html-keyboard-response","160","161232","0.0-3.0-0.72","+","null","","","","","",""
"","362","html-keyboard-response","161","161594","0.0-3.0-1.72","morar","s","v","noncog","word","S","exp","5"
"","null","html-keyboard-response","162","162095","0.0-3.0-0.73","+","null","","","","","",""
"","331","html-keyboard-response","163","162426","0.0-3.0-1.73","ocinto","s","null","noncog","pseudo","N","exp","null"
"","null","html-keyboard-response","164","162928","0.0-3.0-0.74","+","null","","","","","",""
"","362","html-keyboard-response","165","163290","0.0-3.0-1.74","vitrive","s","null","noncog","pseudo","N","exp","null"
"","null","html-keyboard-response","166","163791","0.0-3.0-0.75","+","null","","","","","",""
"","363","html-keyboard-response","167","164154","0.0-3.0-1.75","comércio","s","n","noncog","word","S","exp","8"
"","null","html-keyboard-response","168","164656","0.0-3.0-0.76","+","null","","","","","",""
"","266","html-keyboard-response","169","164922","0.0-3.0-1.76","raspar","s","v","noncog","word","S","exp","6"
"","null","html-keyboard-response","170","165423","0.0-3.0-0.77","+","null","","","","","",""
"","554","html-keyboard-response","171","165978","0.0-3.0-1.77","nervoso","s","a","noncog","word","S","exp","7"
"","null","html-keyboard-response","172","166479","0.0-3.0-0.78","+","null","","","","","",""
"","378","html-keyboard-response","173","166858","0.0-3.0-1.78","barco","s","n","cog","word","S","exp","5"
"","null","html-keyboard-response","174","167359","0.0-3.0-0.79","+","null","","","","","",""
"","299","html-keyboard-response","175","167658","0.0-3.0-1.79","carregar","s","v","noncog","word","S","exp","8"
"","null","html-keyboard-response","176","168159","0.0-3.0-0.80","+","null","","","","","",""
"","299","html-keyboard-response","177","168458","0.0-3.0-1.80","dipata","s","null","noncog","pseudo","N","exp","null"
"","null","html-keyboard-response","178","168959","0.0-3.0-0.81","+","null","","","","","",""
"","315","html-keyboard-response","179","169274","0.0-3.0-1.81","gruja","s","null","noncog","pseudo","N","exp","null"
"","null","html-keyboard-response","180","169776","0.0-3.0-0.82","+","null","","","","","",""
"","346","html-keyboard-response","181","170122","0.0-3.0-1.82","sintonizar","s","v","noncog","word","S","exp","10"
"","null","html-keyboard-response","182","170623","0.0-3.0-0.83","+","null","","","","","",""
"","331","html-keyboard-response","183","170954","0.0-3.0-1.83","perbas","s","null","noncog","pseudo","N","exp","null"
"","null","html-keyboard-response","184","171456","0.0-3.0-0.84","+","null","","","","","",""
"","378","html-keyboard-response","185","171834","0.0-3.0-1.84","pitada","s","n","noncog","word","S","exp","6"
"","null","html-keyboard-response","186","172335","0.0-3.0-0.85","+","null","","","","","",""
"","314","html-keyboard-response","187","172650","0.0-3.0-1.85","tatear","s","v","cog","word","S","exp","6"
"","null","html-keyboard-response","188","173151","0.0-3.0-0.86","+","null","","","","","",""
"","283","html-keyboard-response","189","173434","0.0-3.0-1.86","detative","s","null","noncog","pseudo","N","exp","null"
"","null","html-keyboard-response","190","173935","0.0-3.0-0.87","+","null","","","","","",""
"","347","html-keyboard-response","191","174282","0.0-3.0-1.87","propaganda","s","n","cog","word","S","exp","10"
"","null","html-keyboard-response","192","174783","0.0-3.0-0.88","+","null","","","","","",""
"","378","html-keyboard-response","193","175162","0.0-3.0-1.88","delomir","s","null","noncog","pseudo","N","exp","null"
"","null","html-keyboard-response","194","175674","0.0-3.0-0.89","+","null","","","","","",""
"","335","html-keyboard-response","195","176010","0.0-3.0-1.89","jastor","s","null","noncog","pseudo","N","exp","null"
"","null","html-keyboard-response","196","176511","0.0-3.0-0.90","+","null","","","","","",""
"","283","html-keyboard-response","197","176794","0.0-3.0-1.90","pritas","s","null","noncog","pseudo","N","exp","null"
"","null","html-keyboard-response","198","177295","0.0-3.0-0.91","+","null","","","","","",""
"","363","html-keyboard-response","199","177658","0.0-3.0-1.91","reduzir","s","v","cog","word","S","exp","7"
"","null","html-keyboard-response","200","178159","0.0-3.0-0.92","+","null","","","","","",""
"","331","html-keyboard-response","201","178490","0.0-3.0-1.92","trenos","s","null","noncog","pseudo","N","exp","null"
"","null","html-keyboard-response","202","178991","0.0-3.0-0.93","+","null","","","","","",""
"","314","html-keyboard-response","203","179306","0.0-3.0-1.93","farcas","s","null","noncog","pseudo","N","exp","null"
"","null","html-keyboard-response","204","179807","0.0-3.0-0.94","+","null","","","","","",""
"","331","html-keyboard-response","205","180138","0.0-3.0-1.94","irratinte","s","null","noncog","pseudo","N","exp","null"
"","null","html-keyboard-response","206","180639","0.0-3.0-0.95","+","null","","","","","",""
"","346","html-keyboard-response","207","180986","0.0-3.0-1.95","ênclio","s","null","noncog","pseudo","N","exp","null"
"","null","html-keyboard-response","208","181487","0.0-3.0-0.96","+","null","","","","","",""
"","490","html-keyboard-response","209","181978","0.0-3.0-1.96","refletir","s","v","cog","word","S","exp","8"
"","null","html-keyboard-response","210","182479","0.0-3.0-0.97","+","null","","","","","",""
"","155","html-keyboard-response","211","182634","0.0-3.0-1.97","telafonir","s","null","noncog","pseudo","N","exp","null"
"","null","html-keyboard-response","212","183135","0.0-3.0-0.98","+","null","","","","","",""
"","2090","html-keyboard-response","213","185226","0.0-3.0-1.98","tela","n","n","noncog","word","S","exp","4"
"","null","html-keyboard-response","214","185728","0.0-3.0-0.99","+","null","","","","","",""
"","921","html-keyboard-response","215","186650","0.0-3.0-1.99","bambu","s","n","cog","word","S","exp","5"
"","null","html-keyboard-response","216","187151","0.0-3.0-0.100","+","null","","","","","",""
"","1114","html-keyboard-response","217","188266","0.0-3.0-1.100","vervas","s","null","noncog","pseudo","N","exp","null"
"","null","html-keyboard-response","218","188767","0.0-3.0-0.101","+","null","","","","","",""
"","842","html-keyboard-response","219","189610","0.0-3.0-1.101","destino","s","n","cog","word","S","exp","7"
"","null","html-keyboard-response","220","190111","0.0-3.0-0.102","+","null","","","","","",""
"","971","html-keyboard-response","221","191082","0.0-3.0-1.102","aparme","s","null","noncog","pseudo","N","exp","null"
"","null","html-keyboard-response","222","191584","0.0-3.0-0.103","+","null","","","","","",""
"","1034","html-keyboard-response","223","192618","0.0-3.0-1.103","ofreta","s","null","noncog","pseudo","N","exp","null"
"","null","html-keyboard-response","224","193119","0.0-3.0-0.104","+","null","","","","","",""
"","1226","html-keyboard-response","225","194346","0.0-3.0-1.104","faínas","s","null","noncog","pseudo","N","exp","null"
"","null","html-keyboard-response","226","194847","0.0-3.0-0.105","+","null","","","","","",""
"","1034","html-keyboard-response","227","195882","0.0-3.0-1.105","dobradiça","s","n","noncog","word","S","exp","9"
"","null","html-keyboard-response","228","196384","0.0-3.0-0.106","+","null","","","","","",""
"","746","html-keyboard-response","229","197130","0.0-3.0-1.106","fogão","s","n","noncog","word","S","exp","5"
"","null","html-keyboard-response","230","197631","0.0-3.0-0.107","+","null","","","","","",""
"","1003","html-keyboard-response","231","198634","0.0-3.0-1.107","bracos","s","null","noncog","pseudo","N","exp","null"
"","null","html-keyboard-response","232","199135","0.0-3.0-0.108","+","null","","","","","",""
"","507","html-keyboard-response","233","199642","0.0-3.0-1.108","incomodar","s","v","noncog","word","S","exp","9"
"","null","html-keyboard-response","234","200143","0.0-3.0-0.109","+","null","","","","","",""
"","506","html-keyboard-response","235","200650","0.0-3.0-1.109","animado","s","a","noncog","word","S","exp","7"
"","null","html-keyboard-response","236","201151","0.0-3.0-0.110","+","null","","","","","",""
"","330","html-keyboard-response","237","201481","0.0-3.0-1.110","revear","s","null","noncog","pseudo","N","exp","null"
"","null","html-keyboard-response","238","201983","0.0-3.0-0.111","+","null","","","","","",""
"","394","html-keyboard-response","239","202378","0.0-3.0-1.111","espaço","s","n","cog","word","S","exp","6"
"","null","html-keyboard-response","240","202878","0.0-3.0-0.112","+","null","","","","","",""
"","986","html-keyboard-response","241","203865","0.0-3.0-1.112","país","s","n","noncog","word","S","exp","4"
"","null","html-keyboard-response","242","204368","0.0-3.0-0.113","+","null","","","","","",""
"","1225","html-keyboard-response","243","205594","0.0-3.0-1.113","agravar","s","v","cog","word","S","exp","7"
"","null","html-keyboard-response","244","206095","0.0-3.0-0.114","+","null","","","","","",""
"","2090","html-keyboard-response","245","208186","0.0-3.0-1.114","pneucania","s","null","noncog","pseudo","N","exp","null"
"","null","html-keyboard-response","246","208686","0.0-3.0-0.115","+","null","","","","","",""
"","4827","html-keyboard-response","247","213514","0.0-3.0-1.115","anjo","s","n","cog","word","S","exp","4"
"","null","html-keyboard-response","248","214016","0.0-3.0-0.116","+","null","","","","","",""
"","313","html-keyboard-response","249","214330","0.0-3.0-1.116","lorfaz","s","null","noncog","pseudo","N","exp","null"
"","null","html-keyboard-response","250","214831","0.0-3.0-0.117","+","null","","","","","",""
"","330","html-keyboard-response","251","215162","0.0-3.0-1.117","morija","s","null","noncog","pseudo","N","exp","null"
"","null","html-keyboard-response","252","215664","0.0-3.0-0.118","+","null","","","","","",""
"","313","html-keyboard-response","253","215978","0.0-3.0-1.118","risbos","s","null","noncog","pseudo","N","exp","null"
"","null","html-keyboard-response","254","216479","0.0-3.0-0.119","+","null","","","","","",""
"","1514","html-keyboard-response","255","217994","0.0-3.0-1.119","alpica","s","null","noncog","pseudo","N","exp","null"
"","null","html-keyboard-response","256","218495","0.0-3.0-0.120","+","null","","","","","",""
"","2873","html-keyboard-response","257","221369","0.0-3.0-1.120","aemaça","n","null","noncog","pseudo","N","exp","null"
"","null","html-keyboard-response","258","221870","0.0-3.0-0.121","+","null","","","","","",""
"","315","html-keyboard-response","259","222186","0.0-3.0-1.121","verceja","s","null","noncog","pseudo","N","exp","null"
"","null","html-keyboard-response","260","222686","0.0-3.0-0.122","+","null","","","","","",""
"","362","html-keyboard-response","261","223049","0.0-3.0-1.122","liso","s","n","noncog","word","S","exp","4"
"","null","html-keyboard-response","262","223562","0.0-3.0-0.123","+","null","","","","","",""
"","543","html-keyboard-response","263","224106","0.0-3.0-1.123","terdia","s","null","noncog","pseudo","N","exp","null"
"","null","html-keyboard-response","264","224607","0.0-3.0-0.124","+","null","","","","","",""
"","698","html-keyboard-response","265","225305","0.0-3.0-1.124","viver","s","v","cog","word","S","exp","5"
"","null","html-keyboard-response","266","225806","0.0-3.0-0.125","+","null","","","","","",""
"","715","html-keyboard-response","267","226521","0.0-3.0-1.125","ilhure","s","null","noncog","pseudo","N","exp","null"
"","null","html-keyboard-response","268","227023","0.0-3.0-0.126","+","null","","","","","",""
"","1450","html-keyboard-response","269","228473","0.0-3.0-1.126","pega-pega","s","n","noncog","word","S","exp","8"
"","null","html-keyboard-response","270","228979","0.0-3.0-0.127","+","null","","","","","",""
"","1158","html-keyboard-response","271","230137","0.0-3.0-1.127","atrasar","s","v","noncog","word","S","exp","7"
"","null","html-keyboard-response","272","230639","0.0-3.0-0.128","+","null","","","","","",""
"","587","html-keyboard-response","273","231226","0.0-3.0-1.128","drama","s","n","cog","word","S","exp","5"
"","null","html-keyboard-response","274","231728","0.0-3.0-0.129","+","null","","","","","",""
"","345","html-keyboard-response","275","232074","0.0-3.0-1.129","protas","s","null","noncog","pseudo","N","exp","null"
"","null","html-keyboard-response","276","232574","0.0-3.0-0.130","+","null","","","","","",""
"","331","html-keyboard-response","277","232906","0.0-3.0-1.130","tênis","s","n","cog","word","S","exp","5"
"","null","html-keyboard-response","278","233407","0.0-3.0-0.131","+","null","","","","","",""
"","346","html-keyboard-response","279","233753","0.0-3.0-1.131","mabras","s","null","noncog","pseudo","N","exp","null"
"","null","html-keyboard-response","280","234255","0.0-3.0-0.132","+","null","","","","","",""
"","330","html-keyboard-response","281","234586","0.0-3.0-1.132","conjerto","s","null","noncog","pseudo","N","exp","null"
"","null","html-keyboard-response","282","235086","0.0-3.0-0.133","+","null","","","","","",""
"","426","html-keyboard-response","283","235513","0.0-3.0-1.133","sábio","n","n","noncog","word","S","exp","5"
"","null","html-keyboard-response","284","236014","0.0-3.0-0.134","+","null","","","","","",""
"","379","html-keyboard-response","285","236393","0.0-3.0-1.134","cascata","s","n","noncog","word","S","exp","7"
"","null","html-keyboard-response","286","236895","0.0-3.0-0.135","+","null","","","","","",""
"","442","html-keyboard-response","287","237337","0.0-3.0-1.135","promeção","s","null","noncog","pseudo","N","exp","null"
"","null","html-keyboard-response","288","237846","0.0-3.0-0.136","+","null","","","","","",""
"","339","html-keyboard-response","289","238185","0.0-3.0-1.136","matinal","s","a","cog","word","S","exp","7"
"","null","html-keyboard-response","290","238692","0.0-3.0-0.137","+","null","","","","","",""
"","325","html-keyboard-response","291","239017","0.0-3.0-1.137","burtos","s","null","noncog","pseudo","N","exp","null"
"","null","html-keyboard-response","292","239529","0.0-3.0-0.138","+","null","","","","","",""
"","240","html-keyboard-response","293","239769","0.0-3.0-1.138","tio","s","n","noncog","word","S","exp","3"
"","null","html-keyboard-response","294","240272","0.0-3.0-0.139","+","null","","","","","",""
"","313","html-keyboard-response","295","240585","0.0-3.0-1.139","azul","s","n","noncog","word","S","exp","4"
"","null","html-keyboard-response","296","241087","0.0-3.0-0.140","+","null","","","","","",""
"","250","html-keyboard-response","297","241337","0.0-3.0-1.140","fusbão","s","null","noncog","pseudo","N","exp","null"
"","null","html-keyboard-response","298","241838","0.0-3.0-0.141","+","null","","","","","",""
"","123","html-keyboard-response","299","241962","0.0-3.0-1.141","escumo","s","null","noncog","pseudo","N","exp","null"
"","null","html-keyboard-response","300","242462","0.0-3.0-0.142","+","null","","","","","",""
"","267","html-keyboard-response","301","242729","0.0-3.0-1.142","verdade","s","n","cog","word","S","exp","7"
"","null","html-keyboard-response","302","243230","0.0-3.0-0.143","+","null","","","","","",""
"","267","html-keyboard-response","303","243497","0.0-3.0-1.143","oecano","s","null","noncog","pseudo","N","exp","null"
"","null","html-keyboard-response","304","243999","0.0-3.0-0.144","+","null","","","","","",""
"","490","html-keyboard-response","305","244489","0.0-3.0-1.144","enxarto","s","null","noncog","pseudo","N","exp","null"
"","null","html-keyboard-response","306","244991","0.0-3.0-0.145","+","null","","","","","",""
"","346","html-keyboard-response","307","245338","0.0-3.0-1.145","cirado","s","null","noncog","pseudo","N","exp","null"
"","null","html-keyboard-response","308","245839","0.0-3.0-0.146","+","null","","","","","",""
"","1082","html-keyboard-response","309","246921","0.0-3.0-1.146","disbrituir","s","null","noncog","pseudo","N","exp","null"
"","null","html-keyboard-response","310","247423","0.0-3.0-0.147","+","null","","","","","",""
"","314","html-keyboard-response","311","247737","0.0-3.0-1.147","trabalhar","s","v","noncog","word","S","exp","9"
"","null","html-keyboard-response","312","248239","0.0-3.0-0.148","+","null","","","","","",""
"","1098","html-keyboard-response","313","249337","0.0-3.0-1.148","euorpa","s","null","noncog","pseudo","N","exp","null"
"","null","html-keyboard-response","314","249839","0.0-3.0-0.149","+","null","","","","","",""
"","650","html-keyboard-response","315","250489","0.0-3.0-1.149","civil","s","a","cog","word","S","exp","5"
"","null","html-keyboard-response","316","250991","0.0-3.0-0.150","+","null","","","","","",""
"","618","html-keyboard-response","317","251609","0.0-3.0-1.150","carro","s","n","noncog","word","S","exp","5"
"","null","html-keyboard-response","318","252110","0.0-3.0-0.151","+","null","","","","","",""
"","619","html-keyboard-response","319","252730","0.0-3.0-1.151","chorão","s","a","noncog","word","S","exp","6"
"","null","html-keyboard-response","320","253230","0.0-3.0-0.152","+","null","","","","","",""
"","394","html-keyboard-response","321","253625","0.0-3.0-1.152","ideisa","s","null","noncog","pseudo","N","exp","null"
"","null","html-keyboard-response","322","254126","0.0-3.0-0.153","+","null","","","","","",""
"","411","html-keyboard-response","323","254537","0.0-3.0-1.153","fofo","s","a","noncog","word","S","exp","4"
"","null","html-keyboard-response","324","255039","0.0-3.0-0.154","+","null","","","","","",""
"","442","html-keyboard-response","325","255481","0.0-3.0-1.154","motros","s","null","noncog","pseudo","N","exp","null"
"","null","html-keyboard-response","326","255982","0.0-3.0-0.155","+","null","","","","","",""
"","475","html-keyboard-response","327","256457","0.0-3.0-1.155","macras","s","null","noncog","pseudo","N","exp","null"
"","null","html-keyboard-response","328","256958","0.0-3.0-0.156","+","null","","","","","",""
"","475","html-keyboard-response","329","257433","0.0-3.0-1.156","aperor","s","null","noncog","pseudo","N","exp","null"
"","null","html-keyboard-response","330","257935","0.0-3.0-0.157","+","null","","","","","",""
"","362","html-keyboard-response","331","258297","0.0-3.0-1.157","grave","s","a","cog","word","S","exp","5"
"","null","html-keyboard-response","332","258798","0.0-3.0-0.158","+","null","","","","","",""
"","299","html-keyboard-response","333","259097","0.0-3.0-1.158","tinta","s","n","cog","word","S","exp","5"
"","null","html-keyboard-response","334","259597","0.0-3.0-0.159","+","null","","","","","",""
"","186","html-keyboard-response","335","259784","0.0-3.0-1.159","carona","s","n","noncog","word","S","exp","6"
"","null","html-keyboard-response","336","260285","0.0-3.0-0.160","+","null","","","","","",""
"","378","html-keyboard-response","337","260664","0.0-3.0-1.160","pedaço","s","n","noncog","word","S","exp","6"
"","null","html-keyboard-response","338","261165","0.0-3.0-0.161","+","null","","","","","",""
"","74","html-keyboard-response","339","261240","0.0-3.0-1.161","bachir","s","null","noncog","pseudo","N","exp","null"
"","null","html-keyboard-response","340","261741","0.0-3.0-0.162","+","null","","","","","",""
"","251","html-keyboard-response","341","261992","0.0-3.0-1.162","filme","s","n","cog","word","S","exp","5"
"","null","html-keyboard-response","342","262493","0.0-3.0-0.163","+","null","","","","","",""
"","219","html-keyboard-response","343","262712","0.0-3.0-1.163","filosofia","s","n","cog","word","S","exp","9"
"","null","html-keyboard-response","344","263221","0.0-3.0-0.164","+","null","","","","","",""
"","291","html-keyboard-response","345","263512","0.0-3.0-1.164","sanque","s","null","noncog","pseudo","N","exp","null"
"","null","html-keyboard-response","346","264014","0.0-3.0-0.165","+","null","","","","","",""
"","314","html-keyboard-response","347","264328","0.0-3.0-1.165","delirar","s","v","noncog","word","S","exp","7"
"","null","html-keyboard-response","348","264829","0.0-3.0-0.166","+","null","","","","","",""
"","235","html-keyboard-response","349","265064","0.0-3.0-1.166","ronronar","s","v","cog","word","S","exp","8"
"","null","html-keyboard-response","350","265566","0.0-3.0-0.167","+","null","","","","","",""
"","202","html-keyboard-response","351","265768","0.0-3.0-1.167","liberal","s","a","cog","word","S","exp","7"
"","null","html-keyboard-response","352","266271","0.0-3.0-0.168","+","null","","","","","",""
"","281","html-keyboard-response","353","266552","0.0-3.0-1.168","alfabeto","s","n","cog","word","S","exp","8"
"","null","html-keyboard-response","354","267054","0.0-3.0-0.169","+","null","","","","","",""
"","234","html-keyboard-response","355","267288","0.0-3.0-1.169","podilo","s","null","noncog","pseudo","N","exp","null"
"","null","html-keyboard-response","356","267789","0.0-3.0-0.170","+","null","","","","","",""
"","250","html-keyboard-response","357","268040","0.0-3.0-1.170","revista","s","n","cog","word","S","exp","7"
"","null","html-keyboard-response","358","268541","0.0-3.0-0.171","+","null","","","","","",""
"","250","html-keyboard-response","359","268792","0.0-3.0-1.171","bancada","s","n","noncog","word","S","exp","7"
"","null","html-keyboard-response","360","269293","0.0-3.0-0.172","+","null","","","","","",""
"","219","html-keyboard-response","361","269513","0.0-3.0-1.172","extravagante","s","a","cog","word","S","exp","12"
"","null","html-keyboard-response","362","270013","0.0-3.0-0.173","+","null","","","","","",""
"","266","html-keyboard-response","363","270280","0.0-3.0-1.173","bandido","s","n","cog","word","S","exp","7"
"","null","html-keyboard-response","364","270782","0.0-3.0-0.174","+","null","","","","","",""
"","266","html-keyboard-response","365","271048","0.0-3.0-1.174","manfa","s","null","noncog","pseudo","N","exp","null"
"","null","html-keyboard-response","366","271550","0.0-3.0-0.175","+","null","","","","","",""
"","154","html-keyboard-response","367","271704","0.0-3.0-1.175","esfoce","s","null","noncog","pseudo","N","exp","null"
"","null","html-keyboard-response","368","272206","0.0-3.0-0.176","+","null","","","","","",""
"","250","html-keyboard-response","369","272456","0.0-3.0-1.176","ótimo","s","a","noncog","word","S","exp","5"
"","null","html-keyboard-response","370","272957","0.0-3.0-0.177","+","null","","","","","",""
"","154","html-keyboard-response","371","273112","0.0-3.0-1.177","garastia","s","null","noncog","pseudo","N","exp","null"
"","null","html-keyboard-response","372","273614","0.0-3.0-0.178","+","null","","","","","",""
"","234","html-keyboard-response","373","273848","0.0-3.0-1.178","mua","s","null","noncog","pseudo","N","exp","null"
"","null","html-keyboard-response","374","274350","0.0-3.0-0.179","+","null","","","","","",""
"","138","html-keyboard-response","375","274488","0.0-3.0-1.179","dia","s","n","noncog","word","S","exp","3"
"","null","html-keyboard-response","376","274989","0.0-3.0-0.180","+","null","","","","","",""
"","107","html-keyboard-response","377","275096","0.0-3.0-1.180","esprotiar","s","null","noncog","pseudo","N","exp","null"
"","null","html-keyboard-response","378","275597","0.0-3.0-0.181","+","null","","","","","",""
"","347","html-keyboard-response","379","275944","0.0-3.0-1.181","costra","s","null","noncog","pseudo","N","exp","null"
"","null","html-keyboard-response","380","276445","0.0-3.0-0.182","+","null","","","","","",""
"","187","html-keyboard-response","381","276632","0.0-3.0-1.182","taberia","s","null","noncog","pseudo","N","exp","null"
"","null","html-keyboard-response","382","277134","0.0-3.0-0.183","+","null","","","","","",""
"","314","html-keyboard-response","383","277448","0.0-3.0-1.183","nevela","s","null","noncog","pseudo","N","exp","null"
"","null","html-keyboard-response","384","277949","0.0-3.0-0.184","+","null","","","","","",""
"","267","html-keyboard-response","385","278216","0.0-3.0-1.184","enxerido","s","a","noncog","word","S","exp","8"
"","null","html-keyboard-response","386","278717","0.0-3.0-0.185","+","null","","","","","",""
"","123","html-keyboard-response","387","278840","0.0-3.0-1.185","candifência","s","null","noncog","pseudo","N","exp","null"
"","null","html-keyboard-response","388","279342","0.0-3.0-0.186","+","null","","","","","",""
"","138","html-keyboard-response","389","279480","0.0-3.0-1.186","trair","s","v","cog","word","S","exp","5"
"","null","html-keyboard-response","390","279982","0.0-3.0-0.187","+","null","","","","","",""
"","138","html-keyboard-response","391","280120","0.0-3.0-1.187","lagras","s","null","noncog","pseudo","N","exp","null"
"","null","html-keyboard-response","392","280621","0.0-3.0-0.188","+","null","","","","","",""
"","107","html-keyboard-response","393","280728","0.0-3.0-1.188","preferir","s","v","cog","word","S","exp","8"
"","null","html-keyboard-response","394","281229","0.0-3.0-0.189","+","null","","","","","",""
"","107","html-keyboard-response","395","281336","0.0-3.0-1.189","manais","s","null","noncog","pseudo","N","exp","null"
"","null","html-keyboard-response","396","281838","0.0-3.0-0.190","+","null","","","","","",""
"","58","html-keyboard-response","397","281896","0.0-3.0-1.190","gordo","s","a","noncog","word","S","exp","5"
"","null","html-keyboard-response","398","282398","0.0-3.0-0.191","+","null","","","","","",""
"","314","html-keyboard-response","399","282712","0.0-3.0-1.191","sustentar","s","v","noncog","word","S","exp","9"
"","null","html-keyboard-response","400","283214","0.0-3.0-0.192","+","null","","","","","",""
"","250","html-keyboard-response","401","283464","0.0-3.0-1.192","promessa","s","n","noncog","word","S","exp","8"
"","null","html-keyboard-response","402","283965","0.0-3.0-0.193","+","null","","","","","",""
"","155","html-keyboard-response","403","284120","0.0-3.0-1.193","gertas","s","null","noncog","pseudo","N","exp","null"
"","null","html-keyboard-response","404","284621","0.0-3.0-0.194","+","null","","","","","",""
"","266","html-keyboard-response","405","284888","0.0-3.0-1.194","especial","s","a","cog","word","S","exp","8"
"","null","html-keyboard-response","406","285390","0.0-3.0-0.195","+","null","","","","","",""
"","154","html-keyboard-response","407","285544","0.0-3.0-1.195","pulmão","s","n","noncog","word","S","exp","6"
"","null","html-keyboard-response","408","286045","0.0-3.0-0.196","+","null","","","","","",""
"","298","html-keyboard-response","409","286344","0.0-3.0-1.196","motre","s","null","noncog","pseudo","N","exp","null"
"","null","html-keyboard-response","410","286845","0.0-3.0-0.197","+","null","","","","","",""
"","330","html-keyboard-response","411","287176","0.0-3.0-1.197","açúcar","s","n","noncog","word","S","exp","6"
"","null","html-keyboard-response","412","287678","0.0-3.0-0.198","+","null","","","","","",""
"","282","html-keyboard-response","413","287960","0.0-3.0-1.198","lagoa","s","n","cog","word","S","exp","5"
"","null","html-keyboard-response","414","288462","0.0-3.0-0.199","+","null","","","","","",""
"","218","html-keyboard-response","415","288680","0.0-3.0-1.199","fratos","s","null","noncog","pseudo","N","exp","null"
"","null","html-keyboard-response","416","289181","0.0-3.0-0.200","+","null","","","","","",""
"","282","html-keyboard-response","417","289464","0.0-3.0-1.200","nome","s","n","cog","word","S","exp","4"
"","null","html-keyboard-response","418","289965","0.0-3.0-0.201","+","null","","","","","",""
"","170","html-keyboard-response","419","290136","0.0-3.0-1.201","nivelado","s","a","cog","word","S","exp","8"
"","null","html-keyboard-response","420","290637","0.0-3.0-0.202","+","null","","","","","",""
"","202","html-keyboard-response","421","290840","0.0-3.0-1.202","braras","s","null","noncog","pseudo","N","exp","null"
"","null","html-keyboard-response","422","291341","0.0-3.0-0.203","+","null","","","","","",""
"","283","html-keyboard-response","423","291624","0.0-3.0-1.203","prantal","s","null","noncog","pseudo","N","exp","null"
"","null","html-keyboard-response","424","292125","0.0-3.0-0.204","+","null","","","","","",""
"","267","html-keyboard-response","425","292392","0.0-3.0-1.204","suipestar","s","null","noncog","pseudo","N","exp","null"
"","null","html-keyboard-response","426","292893","0.0-3.0-0.205","+","null","","","","","",""
"","203","html-keyboard-response","427","293096","0.0-3.0-1.205","bibarconato","s","null","noncog","pseudo","N","exp","null"
"","null","html-keyboard-response","428","293598","0.0-3.0-0.206","+","null","","","","","",""
"","298","html-keyboard-response","429","293896","0.0-3.0-1.206","convidado","s","n","noncog","word","S","exp","9"
"","null","html-keyboard-response","430","294397","0.0-3.0-0.207","+","null","","","","","",""
"","330","html-keyboard-response","431","294728","0.0-3.0-1.207","agressivo","s","a","cog","word","S","exp","9"
"","null","html-keyboard-response","432","295229","0.0-3.0-0.208","+","null","","","","","",""
"","203","html-keyboard-response","433","295432","0.0-3.0-1.208","árovre","s","null","noncog","pseudo","N","exp","null"
"","null","html-keyboard-response","434","295935","0.0-3.0-0.209","+","null","","","","","",""
"","360","html-keyboard-response","435","296296","0.0-3.0-1.209","fasdas","s","null","noncog","pseudo","N","exp","null"
"","null","html-keyboard-response","436","296798","0.0-3.0-0.210","+","null","","","","","",""
"","218","html-keyboard-response","437","297016","0.0-3.0-1.210","afonher","s","null","noncog","pseudo","N","exp","null"
"","null","html-keyboard-response","438","297518","0.0-3.0-0.211","+","null","","","","","",""
"","314","html-keyboard-response","439","297832","0.0-3.0-1.211","beima","s","null","noncog","pseudo","N","exp","null"
"","null","html-keyboard-response","440","298333","0.0-3.0-0.212","+","null","","","","","",""
"","282","html-keyboard-response","441","298616","0.0-3.0-1.212","melão","s","n","cog","word","S","exp","5"
"","null","html-keyboard-response","442","299118","0.0-3.0-0.213","+","null","","","","","",""
"","362","html-keyboard-response","443","299480","0.0-3.0-1.213","planalto","s","n","cog","word","S","exp","8"
"","null","html-keyboard-response","444","299981","0.0-3.0-0.214","+","null","","","","","",""
"","282","html-keyboard-response","445","300264","0.0-3.0-1.214","franda","s","null","noncog","pseudo","N","exp","null"
"","null","html-keyboard-response","446","300766","0.0-3.0-0.215","+","null","","","","","",""
"","346","html-keyboard-response","447","301112","0.0-3.0-1.215","dacada","s","null","noncog","pseudo","N","exp","null"
"","null","html-keyboard-response","448","301613","0.0-3.0-0.216","+","null","","","","","",""
"","507","html-keyboard-response","449","302120","0.0-3.0-1.216","socorro","s","n","noncog","word","S","exp","7"
"","null","html-keyboard-response","450","302621","0.0-3.0-0.217","+","null","","","","","",""
"","555","html-keyboard-response","451","303176","0.0-3.0-1.217","livro","s","n","cog","word","S","exp","5"
"","null","html-keyboard-response","452","303677","0.0-3.0-0.218","+","null","","","","","",""
"","1882","html-keyboard-response","453","305560","0.0-3.0-1.218","esperar","s","v","cog","word","S","exp","7"
"","null","html-keyboard-response","454","306061","0.0-3.0-0.219","+","null","","","","","",""
"","618","html-keyboard-response","455","306680","0.0-3.0-1.219","aivões","s","null","noncog","pseudo","N","exp","null"
"","null","html-keyboard-response","456","307181","0.0-3.0-0.220","+","null","","","","","",""
"","331","html-keyboard-response","457","307512","0.0-3.0-1.220","independente","s","a","noncog","word","S","exp","12"
"","null","html-keyboard-response","458","308014","0.0-3.0-0.221","+","null","","","","","",""
"","362","html-keyboard-response","459","308376","0.0-3.0-1.221","avenas","s","null","noncog","pseudo","N","exp","null"
"","null","html-keyboard-response","460","308877","0.0-3.0-0.222","+","null","","","","","",""
"","362","html-keyboard-response","461","309240","0.0-3.0-1.222","quenzina","s","null","noncog","pseudo","N","exp","null"
"","null","html-keyboard-response","462","309741","0.0-3.0-0.223","+","null","","","","","",""
"","139","html-keyboard-response","463","309880","0.0-3.0-1.223","dencosto","s","null","noncog","pseudo","N","exp","null"
"","null","html-keyboard-response","464","310381","0.0-3.0-0.224","+","null","","","","","",""
"","251","html-keyboard-response","465","310632","0.0-3.0-1.224","undivídio","s","null","noncog","pseudo","N","exp","null"
"","null","html-keyboard-response","466","311133","0.0-3.0-0.225","+","null","","","","","",""
"","202","html-keyboard-response","467","311336","0.0-3.0-1.225","glória","s","n","cog","word","S","exp","6"
"","null","html-keyboard-response","468","311837","0.0-3.0-0.226","+","null","","","","","",""
"","186","html-keyboard-response","469","312024","0.0-3.0-1.226","cravo","s","n","noncog","word","S","exp","5"
"","null","html-keyboard-response","470","312525","0.0-3.0-0.227","+","null","","","","","",""
"","219","html-keyboard-response","471","312744","0.0-3.0-1.227","tímido","s","a","cog","word","S","exp","6"
"","null","html-keyboard-response","472","313245","0.0-3.0-0.228","+","null","","","","","",""
"","138","html-keyboard-response","473","313384","0.0-3.0-1.228","cinema","s","n","cog","word","S","exp","6"
"","null","html-keyboard-response","474","313886","0.0-3.0-0.229","+","null","","","","","",""
"","250","html-keyboard-response","475","314136","0.0-3.0-1.229","medalha","s","n","cog","word","S","exp","7"
"","null","html-keyboard-response","476","314637","0.0-3.0-0.230","+","null","","","","","",""
"","138","html-keyboard-response","477","314776","0.0-3.0-1.230","uchães","s","null","noncog","pseudo","N","exp","null"
"","null","html-keyboard-response","478","315285","0.0-3.0-0.231","+","null","","","","","",""
"","291","html-keyboard-response","479","315576","0.0-3.0-1.231","pangos","s","null","noncog","pseudo","N","exp","null"
"","null","html-keyboard-response","480","316077","0.0-3.0-0.232","+","null","","","","","",""
"","251","html-keyboard-response","481","316328","0.0-3.0-1.232","enedro","s","null","noncog","pseudo","N","exp","null"
"","null","html-keyboard-response","482","316829","0.0-3.0-0.233","+","null","","","","","",""
"","811","html-keyboard-response","483","317640","0.0-3.0-1.233","aletiê","s","null","noncog","pseudo","N","exp","null"
"","null","html-keyboard-response","484","318142","0.0-3.0-0.234","+","null","","","","","",""
"","410","html-keyboard-response","485","318552","0.0-3.0-1.234","tartos","s","null","noncog","pseudo","N","exp","null"
"","null","html-keyboard-response","486","319053","0.0-3.0-0.235","+","null","","","","","",""
"","2539","html-keyboard-response","487","321591","0.0-3.0-1.235","salpicado","n","a","noncog","word","S","exp","9"
"","null","html-keyboard-response","488","322093","0.0-3.0-0.236","+","null","","","","","",""
"","378","html-keyboard-response","489","322471","0.0-3.0-1.236","traduzir","s","v","cog","word","S","exp","8"
"","null","html-keyboard-response","490","322972","0.0-3.0-0.237","+","null","","","","","",""
"","331","html-keyboard-response","491","323303","0.0-3.0-1.237","rédesa","s","null","noncog","pseudo","N","exp","null"
"","null","html-keyboard-response","492","323805","0.0-3.0-0.238","+","null","","","","","",""
"","1290","html-keyboard-response","493","325095","0.0-3.0-1.238","cenada","s","null","noncog","pseudo","N","exp","null"
"","null","html-keyboard-response","494","325596","0.0-3.0-0.239","+","null","","","","","",""
"","1114","html-keyboard-response","495","326711","0.0-3.0-1.239","instruído","s","a","noncog","word","S","exp","9"
