[
	{
		"view_history": [
			{
				"page_index": 0,
				"viewing_time": 5641
			}
		],
		"rt": 5642,
		"trial_type": "instructions",
		"trial_index": 0,
		"time_elapsed": 5643,
		"internal_node_id": "0.0-0.0"
	},
	{
		"rt": 92512,
		"response": {
			"reading_habits_printed_magazines": "Todos os dias",
			"reading_habits_printed_newspapers": "Todos os dias",
			"reading_habits_books": "Uma vez por semana",
			"reading_habits_printed_socialmedias": "Todos os dias"
		},
		"question_order": [
			0,
			1,
			2,
			3
		],
		"trial_type": "survey-multi-choice",
		"trial_index": 1,
		"time_elapsed": 98264,
		"internal_node_id": "0.0-1.0"
	},
	{
		"rt": 41273,
		"response": {
			"reading_habits_virtual_magazines": "Todos os dias",
			"reading_habits_virtual_newspapers": "Todos os dias",
			"reading_habits_books": "Uma vez por semana",
			"reading_habits_virtual_socialmedias": "Todos os dias"
		},
		"question_order": [
			0,
			1,
			2,
			3
		],
		"trial_type": "survey-multi-choice",
		"trial_index": 2,
		"time_elapsed": 139640,
		"internal_node_id": "0.0-2.0"
	},
	{
		"rt": 126505,
		"response": {
			"reading_habits_other_which": "livro",
			"reading_habits_other_frequency": "2x"
		},
		"trial_type": "survey-text",
		"trial_index": 3,
		"time_elapsed": 266246,
		"internal_node_id": "0.0-3.0"
	}
]