[
	{
		"view_history": [
			{
				"page_index": 0,
				"viewing_time": 54587
			},
			{
				"page_index": 1,
				"viewing_time": 9016
			}
		],
		"rt": 63604,
		"trial_type": "instructions",
		"trial_index": 0,
		"time_elapsed": 63605,
		"internal_node_id": "0.0-0.0"
	},
	{
		"rt": null,
		"stimulus": "<span style= \"font-size:30px; font-family: monospace\">+</span>",
		"response": null,
		"trial_part": "fixation",
		"trial_type": "html-keyboard-response",
		"trial_index": 1,
		"time_elapsed": 64709,
		"internal_node_id": "0.0-1.0-0.0-0.0"
	},
	{
		"rt": 18120,
		"stimulus": "../audio/prac-question-1-1.mp3",
		"response": " ",
		"word": "O",
		"trial_type": "audio-keyboard-response",
		"trial_index": 2,
		"time_elapsed": 83392,
		"internal_node_id": "0.0-1.0-1.0"
	},
	{
		"rt": 9288,
		"stimulus": "../audio/prac-question-1-2.mp3",
		"response": " ",
		"word": "dia",
		"trial_type": "audio-keyboard-response",
		"trial_index": 3,
		"time_elapsed": 93062,
		"internal_node_id": "0.0-1.0-1.1"
	},
	{
		"rt": 2480,
		"stimulus": "../audio/prac-question-1-3.mp3",
		"response": " ",
		"word": "estará",
		"trial_type": "audio-keyboard-response",
		"trial_index": 4,
		"time_elapsed": 95926,
		"internal_node_id": "0.0-1.0-1.2"
	},
	{
		"rt": 2419,
		"stimulus": "../audio/prac-question-1-4.mp3",
		"response": " ",
		"word": "cheio",
		"trial_type": "audio-keyboard-response",
		"trial_index": 5,
		"time_elapsed": 98710,
		"internal_node_id": "0.0-1.0-1.3"
	},
	{
		"rt": 1381,
		"stimulus": "../audio/prac-question-1-5.mp3",
		"response": " ",
		"word": "de",
		"trial_type": "audio-keyboard-response",
		"trial_index": 6,
		"time_elapsed": 100446,
		"internal_node_id": "0.0-1.0-1.4"
	},
	{
		"rt": 1629,
		"stimulus": "../audio/prac-question-1-6.mp3",
		"response": " ",
		"word": "nuvens",
		"trial_type": "audio-keyboard-response",
		"trial_index": 7,
		"time_elapsed": 102414,
		"internal_node_id": "0.0-1.0-1.5"
	},
	{
		"rt": 1299,
		"stimulus": "../audio/prac-question-1-7.mp3",
		"response": " ",
		"word": "hoje.",
		"trial_type": "audio-keyboard-response",
		"trial_index": 8,
		"time_elapsed": 104014,
		"internal_node_id": "0.0-1.0-1.6"
	},
	{
		"rt": null,
		"stimulus": "<span style= \"font-size:30px; font-family: monospace\">+</span>",
		"response": null,
		"trial_part": "fixation",
		"trial_type": "html-keyboard-response",
		"trial_index": 9,
		"time_elapsed": 105284,
		"internal_node_id": "0.0-1.0-0.7-0.7"
	},
	{
		"rt": 5669,
		"stimulus": "../audio/prac-question-2-1.mp3",
		"response": " ",
		"word": "A",
		"trial_type": "audio-keyboard-response",
		"trial_index": 10,
		"time_elapsed": 111318,
		"internal_node_id": "0.0-1.0-1.7"
	},
	{
		"rt": 1899,
		"stimulus": "../audio/prac-question-2-2.mp3",
		"response": " ",
		"word": "caneca",
		"trial_type": "audio-keyboard-response",
		"trial_index": 11,
		"time_elapsed": 113622,
		"internal_node_id": "0.0-1.0-1.8"
	},
	{
		"rt": 1440,
		"stimulus": "../audio/prac-question-2-3.mp3",
		"response": " ",
		"word": "colorida",
		"trial_type": "audio-keyboard-response",
		"trial_index": 12,
		"time_elapsed": 115462,
		"internal_node_id": "0.0-1.0-1.9"
	},
	{
		"rt": 1229,
		"stimulus": "../audio/prac-question-2-4.mp3",
		"response": " ",
		"word": "caiu",
		"trial_type": "audio-keyboard-response",
		"trial_index": 13,
		"time_elapsed": 116998,
		"internal_node_id": "0.0-1.0-1.10"
	},
	{
		"rt": 861,
		"stimulus": "../audio/prac-question-2-5.mp3",
		"response": " ",
		"word": "da",
		"trial_type": "audio-keyboard-response",
		"trial_index": 14,
		"time_elapsed": 118158,
		"internal_node_id": "0.0-1.0-1.11"
	},
	{
		"rt": 960,
		"stimulus": "../audio/prac-question-2-6.mp3",
		"response": " ",
		"word": "mesa",
		"trial_type": "audio-keyboard-response",
		"trial_index": 15,
		"time_elapsed": 119414,
		"internal_node_id": "0.0-1.0-1.12"
	},
	{
		"rt": 808,
		"stimulus": "../audio/prac-question-2-7.mp3",
		"response": " ",
		"word": "de",
		"trial_type": "audio-keyboard-response",
		"trial_index": 16,
		"time_elapsed": 120534,
		"internal_node_id": "0.0-1.0-1.13"
	},
	{
		"rt": 909,
		"stimulus": "../audio/prac-question-2-8.mp3",
		"response": " ",
		"word": "jantar.",
		"trial_type": "audio-keyboard-response",
		"trial_index": 17,
		"time_elapsed": 121774,
		"internal_node_id": "0.0-1.0-1.14"
	},
	{
		"rt": 13717,
		"stimulus": "<span style=\"font-size:25px; font-family: monospace\">A caneca era colorida?</span>",
		"response": "s",
		"question": "A caneca era colorida?",
		"answer": "null",
		"trial": "prac-sent",
		"trial_type": "html-keyboard-response",
		"trial_index": 18,
		"time_elapsed": 135751,
		"internal_node_id": "0.0-1.0-2.14-0.14",
		"accuracy": false
	},
	{
		"view_history": [
			{
				"page_index": 0,
				"viewing_time": 31616
			}
		],
		"rt": 31616,
		"trial_type": "instructions",
		"trial_index": 19,
		"time_elapsed": 167880,
		"internal_node_id": "0.0-2.0"
	},
	{
		"rt": null,
		"stimulus": "<span style= \"font-size:30px; font-family: monospace\">+</span>",
		"response": null,
		"trial_part": "fixation",
		"trial_type": "html-keyboard-response",
		"trial_index": 20,
		"time_elapsed": 168984,
		"internal_node_id": "0.0-3.0-0.0-0.0"
	},
	{
		"rt": 181,
		"stimulus": "../audio/23-1-masc.mp3",
		"response": " ",
		"word": "Português",
		"trial_type": "audio-keyboard-response",
		"trial_index": 21,
		"time_elapsed": 169615,
		"internal_node_id": "0.0-3.0-1.0"
	},
	{
		"rt": 1339,
		"stimulus": "../audio/23-2-masc.mp3",
		"response": " ",
		"word": "é",
		"trial_type": "audio-keyboard-response",
		"trial_index": 22,
		"time_elapsed": 171263,
		"internal_node_id": "0.0-3.0-1.1"
	},
	{
		"rt": 1080,
		"stimulus": "../audio/23-3-masc.mp3",
		"response": " ",
		"word": "um",
		"trial_type": "audio-keyboard-response",
		"trial_index": 23,
		"time_elapsed": 172639,
		"internal_node_id": "0.0-3.0-1.2"
	},
	{
		"rt": 1301,
		"stimulus": "../audio/23-4-masc.mp3",
		"response": " ",
		"word": "assunto",
		"trial_type": "audio-keyboard-response",
		"trial_index": 24,
		"time_elapsed": 174248,
		"internal_node_id": "0.0-3.0-1.3"
	},
	{
		"rt": 1552,
		"stimulus": "../audio/23-5-masc.mp3",
		"response": " ",
		"word": "elementar",
		"trial_type": "audio-keyboard-response",
		"trial_index": 25,
		"time_elapsed": 176128,
		"internal_node_id": "0.0-3.0-1.4"
	},
	{
		"rt": 1011,
		"stimulus": "../audio/23-6-masc.mp3",
		"response": " ",
		"word": "para",
		"trial_type": "audio-keyboard-response",
		"trial_index": 26,
		"time_elapsed": 177440,
		"internal_node_id": "0.0-3.0-1.5"
	},
	{
		"rt": 931,
		"stimulus": "../audio/23-7-masc.mp3",
		"response": " ",
		"word": "os",
		"trial_type": "audio-keyboard-response",
		"trial_index": 27,
		"time_elapsed": 178680,
		"internal_node_id": "0.0-3.0-1.6"
	},
	{
		"rt": 1720,
		"stimulus": "../audio/23-8-masc.mp3",
		"response": " ",
		"word": "alunos.",
		"trial_type": "audio-keyboard-response",
		"trial_index": 28,
		"time_elapsed": 180712,
		"internal_node_id": "0.0-3.0-1.7"
	},
	{
		"rt": null,
		"stimulus": "<span style= \"font-size:30px; font-family: monospace\">+</span>",
		"response": null,
		"trial_part": "fixation",
		"trial_type": "html-keyboard-response",
		"trial_index": 29,
		"time_elapsed": 181968,
		"internal_node_id": "0.0-3.0-0.8-0.8"
	},
	{
		"rt": 2520,
		"stimulus": "../audio/21-1-fem.mp3",
		"response": " ",
		"word": "Precisamos",
		"trial_type": "audio-keyboard-response",
		"trial_index": 30,
		"time_elapsed": 184888,
		"internal_node_id": "0.0-3.0-1.8"
	},
	{
		"rt": 1000,
		"stimulus": "../audio/21-2-fem.mp3",
		"response": " ",
		"word": "de",
		"trial_type": "audio-keyboard-response",
		"trial_index": 31,
		"time_elapsed": 186256,
		"internal_node_id": "0.0-3.0-1.9"
	},
	{
		"rt": 1691,
		"stimulus": "../audio/21-3-fem.mp3",
		"response": " ",
		"word": "paciência",
		"trial_type": "audio-keyboard-response",
		"trial_index": 32,
		"time_elapsed": 188280,
		"internal_node_id": "0.0-3.0-1.10"
	},
	{
		"rt": 880,
		"stimulus": "../audio/21-4-fem.mp3",
		"response": " ",
		"word": "e",
		"trial_type": "audio-keyboard-response",
		"trial_index": 33,
		"time_elapsed": 189464,
		"internal_node_id": "0.0-3.0-1.11"
	},
	{
		"rt": 1251,
		"stimulus": "../audio/21-5-fem.mp3",
		"response": " ",
		"word": "bondade",
		"trial_type": "audio-keyboard-response",
		"trial_index": 34,
		"time_elapsed": 191056,
		"internal_node_id": "0.0-3.0-1.12"
	},
	{
		"rt": 1160,
		"stimulus": "../audio/21-6-fem.mp3",
		"response": " ",
		"word": "para",
		"trial_type": "audio-keyboard-response",
		"trial_index": 35,
		"time_elapsed": 192528,
		"internal_node_id": "0.0-3.0-1.13"
	},
	{
		"rt": 1040,
		"stimulus": "../audio/21-7-fem.mp3",
		"response": " ",
		"word": "um",
		"trial_type": "audio-keyboard-response",
		"trial_index": 36,
		"time_elapsed": 193872,
		"internal_node_id": "0.0-3.0-1.14"
	},
	{
		"rt": 1280,
		"stimulus": "../audio/21-8-fem.mp3",
		"response": " ",
		"word": "mundo",
		"trial_type": "audio-keyboard-response",
		"trial_index": 37,
		"time_elapsed": 195464,
		"internal_node_id": "0.0-3.0-1.15"
	},
	{
		"rt": 1141,
		"stimulus": "../audio/21-9-fem.mp3",
		"response": " ",
		"word": "melhor.",
		"trial_type": "audio-keyboard-response",
		"trial_index": 38,
		"time_elapsed": 196936,
		"internal_node_id": "0.0-3.0-1.16"
	},
	{
		"rt": null,
		"stimulus": "<span style= \"font-size:30px; font-family: monospace\">+</span>",
		"response": null,
		"trial_part": "fixation",
		"trial_type": "html-keyboard-response",
		"trial_index": 39,
		"time_elapsed": 198206,
		"internal_node_id": "0.0-3.0-0.17-0.17"
	},
	{
		"rt": 1139,
		"stimulus": "../audio/24-1-fem.mp3",
		"response": " ",
		"word": "As",
		"trial_type": "audio-keyboard-response",
		"trial_index": 40,
		"time_elapsed": 199704,
		"internal_node_id": "0.0-3.0-1.17"
	},
	{
		"rt": 1171,
		"stimulus": "../audio/24-2-fem.mp3",
		"response": " ",
		"word": "crianças",
		"trial_type": "audio-keyboard-response",
		"trial_index": 41,
		"time_elapsed": 201200,
		"internal_node_id": "0.0-3.0-1.18"
	},
	{
		"rt": 891,
		"stimulus": "../audio/24-3-fem.mp3",
		"response": " ",
		"word": "vão",
		"trial_type": "audio-keyboard-response",
		"trial_index": 42,
		"time_elapsed": 202432,
		"internal_node_id": "0.0-3.0-1.19"
	},
	{
		"rt": 1088,
		"stimulus": "../audio/24-4-fem.mp3",
		"response": " ",
		"word": "ao",
		"trial_type": "audio-keyboard-response",
		"trial_index": 43,
		"time_elapsed": 203824,
		"internal_node_id": "0.0-3.0-1.20"
	},
	{
		"rt": 4960,
		"stimulus": "../audio/24-5-fem.mp3",
		"response": " ",
		"word": "cinema",
		"trial_type": "audio-keyboard-response",
		"trial_index": 44,
		"time_elapsed": 209121,
		"internal_node_id": "0.0-3.0-1.21"
	},
	{
		"rt": 2208,
		"stimulus": "../audio/24-6-fem.mp3",
		"response": " ",
		"word": "mais",
		"trial_type": "audio-keyboard-response",
		"trial_index": 45,
		"time_elapsed": 211745,
		"internal_node_id": "0.0-3.0-1.22"
	},
	{
		"rt": 2371,
		"stimulus": "../audio/24-7-fem.mp3",
		"response": " ",
		"word": "tarde.",
		"trial_type": "audio-keyboard-response",
		"trial_index": 46,
		"time_elapsed": 214489,
		"internal_node_id": "0.0-3.0-1.23"
	},
	{
		"rt": null,
		"stimulus": "<span style= \"font-size:30px; font-family: monospace\">+</span>",
		"response": null,
		"trial_part": "fixation",
		"trial_type": "html-keyboard-response",
		"trial_index": 47,
		"time_elapsed": 215750,
		"internal_node_id": "0.0-3.0-0.24-0.24"
	},
	{
		"rt": 1461,
		"stimulus": "../audio/22-1-fem.mp3",
		"response": " ",
		"word": "Eu",
		"trial_type": "audio-keyboard-response",
		"trial_index": 48,
		"time_elapsed": 217577,
		"internal_node_id": "0.0-3.0-1.24"
	},
	{
		"rt": 1360,
		"stimulus": "../audio/22-2-fem.mp3",
		"response": " ",
		"word": "detesto",
		"trial_type": "audio-keyboard-response",
		"trial_index": 49,
		"time_elapsed": 219297,
		"internal_node_id": "0.0-3.0-1.25"
	},
	{
		"rt": 1131,
		"stimulus": "../audio/22-3-fem.mp3",
		"response": " ",
		"word": "fumaça",
		"trial_type": "audio-keyboard-response",
		"trial_index": 50,
		"time_elapsed": 220761,
		"internal_node_id": "0.0-3.0-1.26"
	},
	{
		"rt": 661,
		"stimulus": "../audio/22-4-fem.mp3",
		"response": " ",
		"word": "de",
		"trial_type": "audio-keyboard-response",
		"trial_index": 51,
		"time_elapsed": 221777,
		"internal_node_id": "0.0-3.0-1.27"
	},
	{
		"rt": 949,
		"stimulus": "../audio/22-5-fem.mp3",
		"response": " ",
		"word": "cachimbo",
		"trial_type": "audio-keyboard-response",
		"trial_index": 52,
		"time_elapsed": 223065,
		"internal_node_id": "0.0-3.0-1.28"
	},
	{
		"rt": 1069,
		"stimulus": "../audio/22-6-fem.mp3",
		"response": " ",
		"word": "e",
		"trial_type": "audio-keyboard-response",
		"trial_index": 53,
		"time_elapsed": 224441,
		"internal_node_id": "0.0-3.0-1.29"
	},
	{
		"rt": 752,
		"stimulus": "../audio/22-7-fem.mp3",
		"response": " ",
		"word": "de",
		"trial_type": "audio-keyboard-response",
		"trial_index": 54,
		"time_elapsed": 225489,
		"internal_node_id": "0.0-3.0-1.30"
	},
	{
		"rt": 1491,
		"stimulus": "../audio/22-8-fem.mp3",
		"response": " ",
		"word": "cigarro.",
		"trial_type": "audio-keyboard-response",
		"trial_index": 55,
		"time_elapsed": 227337,
		"internal_node_id": "0.0-3.0-1.31"
	},
	{
		"rt": null,
		"stimulus": "<span style= \"font-size:30px; font-family: monospace\">+</span>",
		"response": null,
		"trial_part": "fixation",
		"trial_type": "html-keyboard-response",
		"trial_index": 56,
		"time_elapsed": 228608,
		"internal_node_id": "0.0-3.0-0.32-0.32"
	},
	{
		"rt": 1589,
		"stimulus": "../audio/25-1-fem.mp3",
		"response": " ",
		"word": "Ela",
		"trial_type": "audio-keyboard-response",
		"trial_index": 57,
		"time_elapsed": 230562,
		"internal_node_id": "0.0-3.0-1.32"
	},
	{
		"rt": 1091,
		"stimulus": "../audio/25-2-fem.mp3",
		"response": " ",
		"word": "faz",
		"trial_type": "audio-keyboard-response",
		"trial_index": 58,
		"time_elapsed": 232010,
		"internal_node_id": "0.0-3.0-1.33"
	},
	{
		"rt": 931,
		"stimulus": "../audio/25-3-fem.mp3",
		"response": " ",
		"word": "tanto",
		"trial_type": "audio-keyboard-response",
		"trial_index": 59,
		"time_elapsed": 233282,
		"internal_node_id": "0.0-3.0-1.34"
	},
	{
		"rt": 1112,
		"stimulus": "../audio/25-4-fem.mp3",
		"response": " ",
		"word": "cabelo",
		"trial_type": "audio-keyboard-response",
		"trial_index": 60,
		"time_elapsed": 234698,
		"internal_node_id": "0.0-3.0-1.35"
	},
	{
		"rt": 1131,
		"stimulus": "../audio/25-5-fem.mp3",
		"response": " ",
		"word": "liso",
		"trial_type": "audio-keyboard-response",
		"trial_index": 61,
		"time_elapsed": 236170,
		"internal_node_id": "0.0-3.0-1.36"
	},
	{
		"rt": 1011,
		"stimulus": "../audio/25-6-fem.mp3",
		"response": " ",
		"word": "quanto",
		"trial_type": "audio-keyboard-response",
		"trial_index": 62,
		"time_elapsed": 237498,
		"internal_node_id": "0.0-3.0-1.37"
	},
	{
		"rt": 1320,
		"stimulus": "../audio/25-7-fem.mp3",
		"response": " ",
		"word": "cacheado.",
		"trial_type": "audio-keyboard-response",
		"trial_index": 63,
		"time_elapsed": 239154,
		"internal_node_id": "0.0-3.0-1.38"
	},
	{
		"rt": 95995,
		"stimulus": "<span style=\"font-size:25px; font-family: monospace\">Ela só faz cabelo cacheado?</span>",
		"response": "s",
		"question": "Ela só faz cabelo cacheado?",
		"answer": "null",
		"trial": "exp-sent",
		"trial_type": "html-keyboard-response",
		"trial_index": 64,
		"time_elapsed": 335405,
		"internal_node_id": "0.0-3.0-2.38-0.38",
		"accuracy": false
	},
	{
		"rt": null,
		"stimulus": "<span style= \"font-size:30px; font-family: monospace\">+</span>",
		"response": null,
		"trial_part": "fixation",
		"trial_type": "html-keyboard-response",
		"trial_index": 65,
		"time_elapsed": 336908,
		"internal_node_id": "0.0-3.0-0.39-0.39"
	},
	{
		"rt": 221,
		"stimulus": "../audio/11-1-masc.mp3",
		"response": " ",
		"word": "Elas",
		"trial_type": "audio-keyboard-response",
		"trial_index": 66,
		"time_elapsed": 337533,
		"internal_node_id": "0.0-3.0-1.39"
	},
	{
		"rt": 1251,
		"stimulus": "../audio/11-2-masc.mp3",
		"response": " ",
		"word": "gostam",
		"trial_type": "audio-keyboard-response",
		"trial_index": 67,
		"time_elapsed": 339085,
		"internal_node_id": "0.0-3.0-1.40"
	},
	{
		"rt": 2760,
		"stimulus": "../audio/11-3-masc.mp3",
		"response": " ",
		"word": "muito",
		"trial_type": "audio-keyboard-response",
		"trial_index": 68,
		"time_elapsed": 342173,
		"internal_node_id": "0.0-3.0-1.41"
	},
	{
		"rt": 1931,
		"stimulus": "../audio/11-4-masc.mp3",
		"response": " ",
		"word": "de",
		"trial_type": "audio-keyboard-response",
		"trial_index": 69,
		"time_elapsed": 344477,
		"internal_node_id": "0.0-3.0-1.42"
	},
	{
		"rt": 1589,
		"stimulus": "../audio/11-5-masc.mp3",
		"response": " ",
		"word": "aritmética",
		"trial_type": "audio-keyboard-response",
		"trial_index": 70,
		"time_elapsed": 346469,
		"internal_node_id": "0.0-3.0-1.43"
	},
	{
		"rt": 1869,
		"stimulus": "../audio/11-6-masc.mp3",
		"response": " ",
		"word": "e",
		"trial_type": "audio-keyboard-response",
		"trial_index": 71,
		"time_elapsed": 348646,
		"internal_node_id": "0.0-3.0-1.44"
	},
	{
		"rt": 3469,
		"stimulus": "../audio/11-7-masc.mp3",
		"response": " ",
		"word": "de",
		"trial_type": "audio-keyboard-response",
		"trial_index": 72,
		"time_elapsed": 352477,
		"internal_node_id": "0.0-3.0-1.45"
	},
	{
		"rt": 2552,
		"stimulus": "../audio/11-8-masc.mp3",
		"response": " ",
		"word": "leitura.",
		"trial_type": "audio-keyboard-response",
		"trial_index": 73,
		"time_elapsed": 355422,
		"internal_node_id": "0.0-3.0-1.46"
	},
	{
		"rt": null,
		"stimulus": "<span style= \"font-size:30px; font-family: monospace\">+</span>",
		"response": null,
		"trial_part": "fixation",
		"trial_type": "html-keyboard-response",
		"trial_index": 74,
		"time_elapsed": 356681,
		"internal_node_id": "0.0-3.0-0.47-0.47"
	},
	{
		"rt": 1800,
		"stimulus": "../audio/13-1-fem.mp3",
		"response": " ",
		"word": "Para",
		"trial_type": "audio-keyboard-response",
		"trial_index": 75,
		"time_elapsed": 358846,
		"internal_node_id": "0.0-3.0-1.47"
	},
	{
		"rt": 1141,
		"stimulus": "../audio/13-2-fem.mp3",
		"response": " ",
		"word": "mim",
		"trial_type": "audio-keyboard-response",
		"trial_index": 76,
		"time_elapsed": 360342,
		"internal_node_id": "0.0-3.0-1.48"
	},
	{
		"rt": 869,
		"stimulus": "../audio/13-3-fem.mp3",
		"response": " ",
		"word": "é",
		"trial_type": "audio-keyboard-response",
		"trial_index": 77,
		"time_elapsed": 361510,
		"internal_node_id": "0.0-3.0-1.49"
	},
	{
		"rt": 720,
		"stimulus": "../audio/13-4-fem.mp3",
		"response": " ",
		"word": "muito",
		"trial_type": "audio-keyboard-response",
		"trial_index": 78,
		"time_elapsed": 362542,
		"internal_node_id": "0.0-3.0-1.50"
	},
	{
		"rt": 1160,
		"stimulus": "../audio/13-5-fem.mp3",
		"response": " ",
		"word": "difícil",
		"trial_type": "audio-keyboard-response",
		"trial_index": 79,
		"time_elapsed": 364046,
		"internal_node_id": "0.0-3.0-1.51"
	},
	{
		"rt": 3880,
		"stimulus": "../audio/13-6-fem.mp3",
		"response": " ",
		"word": "acordar",
		"trial_type": "audio-keyboard-response",
		"trial_index": 80,
		"time_elapsed": 368262,
		"internal_node_id": "0.0-3.0-1.52"
	},
	{
		"rt": 4160,
		"stimulus": "../audio/13-7-fem.mp3",
		"response": " ",
		"word": "cedo.",
		"trial_type": "audio-keyboard-response",
		"trial_index": 81,
		"time_elapsed": 372830,
		"internal_node_id": "0.0-3.0-1.53"
	},
	{
		"rt": null,
		"stimulus": "<span style= \"font-size:30px; font-family: monospace\">+</span>",
		"response": null,
		"trial_part": "fixation",
		"trial_type": "html-keyboard-response",
		"trial_index": 82,
		"time_elapsed": 374103,
		"internal_node_id": "0.0-3.0-0.54-0.54"
	},
	{
		"rt": 1312,
		"stimulus": "../audio/14-1-masc.mp3",
		"response": " ",
		"word": "O",
		"trial_type": "audio-keyboard-response",
		"trial_index": 83,
		"time_elapsed": 375782,
		"internal_node_id": "0.0-3.0-1.54"
	},
	{
		"rt": 1200,
		"stimulus": "../audio/14-2-masc.mp3",
		"response": " ",
		"word": "cachorro",
		"trial_type": "audio-keyboard-response",
		"trial_index": 84,
		"time_elapsed": 377302,
		"internal_node_id": "0.0-3.0-1.55"
	},
	{
		"rt": 1539,
		"stimulus": "../audio/14-3-masc.mp3",
		"response": " ",
		"word": "é",
		"trial_type": "audio-keyboard-response",
		"trial_index": 85,
		"time_elapsed": 379150,
		"internal_node_id": "0.0-3.0-1.56"
	},
	{
		"rt": 1069,
		"stimulus": "../audio/14-4-masc.mp3",
		"response": " ",
		"word": "muito",
		"trial_type": "audio-keyboard-response",
		"trial_index": 86,
		"time_elapsed": 380526,
		"internal_node_id": "0.0-3.0-1.57"
	},
	{
		"rt": 1091,
		"stimulus": "../audio/14-5-masc.mp3",
		"response": " ",
		"word": "fiel",
		"trial_type": "audio-keyboard-response",
		"trial_index": 87,
		"time_elapsed": 381934,
		"internal_node_id": "0.0-3.0-1.58"
	},
	{
		"rt": 880,
		"stimulus": "../audio/14-6-masc.mp3",
		"response": " ",
		"word": "a",
		"trial_type": "audio-keyboard-response",
		"trial_index": 88,
		"time_elapsed": 383119,
		"internal_node_id": "0.0-3.0-1.59"
	},
	{
		"rt": 1069,
		"stimulus": "../audio/14-7-masc.mp3",
		"response": " ",
		"word": "seus",
		"trial_type": "audio-keyboard-response",
		"trial_index": 89,
		"time_elapsed": 384494,
		"internal_node_id": "0.0-3.0-1.60"
	},
	{
		"rt": 2469,
		"stimulus": "../audio/14-8-masc.mp3",
		"response": " ",
		"word": "donos.",
		"trial_type": "audio-keyboard-response",
		"trial_index": 90,
		"time_elapsed": 387270,
		"internal_node_id": "0.0-3.0-1.61"
	},
	{
		"rt": null,
		"stimulus": "<span style= \"font-size:30px; font-family: monospace\">+</span>",
		"response": null,
		"trial_part": "fixation",
		"trial_type": "html-keyboard-response",
		"trial_index": 91,
		"time_elapsed": 388542,
		"internal_node_id": "0.0-3.0-0.62-0.62"
	},
	{
		"rt": 1520,
		"stimulus": "../audio/12-1-fem.mp3",
		"response": " ",
		"word": "O",
		"trial_type": "audio-keyboard-response",
		"trial_index": 92,
		"time_elapsed": 390431,
		"internal_node_id": "0.0-3.0-1.62"
	},
	{
		"rt": 4440,
		"stimulus": "../audio/12-2-fem.mp3",
		"response": " ",
		"word": "dia",
		"trial_type": "audio-keyboard-response",
		"trial_index": 93,
		"time_elapsed": 395167,
		"internal_node_id": "0.0-3.0-1.63"
	},
	{
		"rt": 1829,
		"stimulus": "../audio/12-3-fem.mp3",
		"response": " ",
		"word": "estava",
		"trial_type": "audio-keyboard-response",
		"trial_index": 94,
		"time_elapsed": 397399,
		"internal_node_id": "0.0-3.0-1.64"
	},
	{
		"rt": 3461,
		"stimulus": "../audio/12-4-fem.mp3",
		"response": " ",
		"word": "quente,",
		"trial_type": "audio-keyboard-response",
		"trial_index": 95,
		"time_elapsed": 401223,
		"internal_node_id": "0.0-3.0-1.65"
	},
	{
		"rt": 1451,
		"stimulus": "../audio/12-5-fem.mp3",
		"response": " ",
		"word": "tranquilo",
		"trial_type": "audio-keyboard-response",
		"trial_index": 96,
		"time_elapsed": 403063,
		"internal_node_id": "0.0-3.0-1.66"
	},
	{
		"rt": 4789,
		"stimulus": "../audio/12-6-fem.mp3",
		"response": " ",
		"word": "e",
		"trial_type": "audio-keyboard-response",
		"trial_index": 97,
		"time_elapsed": 408151,
		"internal_node_id": "0.0-3.0-1.67"
	},
	{
		"rt": 4149,
		"stimulus": "../audio/12-7-fem.mp3",
		"response": " ",
		"word": "ensolarado.",
		"trial_type": "audio-keyboard-response",
		"trial_index": 98,
		"time_elapsed": 412710,
		"internal_node_id": "0.0-3.0-1.68"
	},
	{
		"rt": null,
		"stimulus": "<span style= \"font-size:30px; font-family: monospace\">+</span>",
		"response": null,
		"trial_part": "fixation",
		"trial_type": "html-keyboard-response",
		"trial_index": 99,
		"time_elapsed": 413976,
		"internal_node_id": "0.0-3.0-0.69-0.69"
	},
	{
		"rt": 2560,
		"stimulus": "../audio/15-1-fem.mp3",
		"response": " ",
		"word": "Meu",
		"trial_type": "audio-keyboard-response",
		"trial_index": 100,
		"time_elapsed": 416902,
		"internal_node_id": "0.0-3.0-1.69"
	},
	{
		"rt": 19371,
		"stimulus": "../audio/15-2-fem.mp3",
		"response": " ",
		"word": "primo",
		"trial_type": "audio-keyboard-response",
		"trial_index": 101,
		"time_elapsed": 436647,
		"internal_node_id": "0.0-3.0-1.70"
	},
	{
		"rt": 1909,
		"stimulus": "../audio/15-3-fem.mp3",
		"response": " ",
		"word": "é",
		"trial_type": "audio-keyboard-response",
		"trial_index": 102,
		"time_elapsed": 438919,
		"internal_node_id": "0.0-3.0-1.71"
	},
	{
		"rt": 7211,
		"stimulus": "../audio/15-4-fem.mp3",
		"response": " ",
		"word": "um",
		"trial_type": "audio-keyboard-response",
		"trial_index": 103,
		"time_elapsed": 446487,
		"internal_node_id": "0.0-3.0-1.72"
	},
	{
		"rt": 1920,
		"stimulus": "../audio/15-5-fem.mp3",
		"response": " ",
		"word": "grande",
		"trial_type": "audio-keyboard-response",
		"trial_index": 104,
		"time_elapsed": 448816,
		"internal_node_id": "0.0-3.0-1.73"
	},
	{
		"rt": 1571,
		"stimulus": "../audio/15-6-fem.mp3",
		"response": " ",
		"word": "vendedor",
		"trial_type": "audio-keyboard-response",
		"trial_index": 105,
		"time_elapsed": 450768,
		"internal_node_id": "0.0-3.0-1.74"
	},
	{
		"rt": 18120,
		"stimulus": "../audio/15-7-fem.mp3",
		"response": " ",
		"word": "de",
		"trial_type": "audio-keyboard-response",
		"trial_index": 106,
		"time_elapsed": 469192,
		"internal_node_id": "0.0-3.0-1.75"
	},
	{
		"rt": 1371,
		"stimulus": "../audio/15-8-fem.mp3",
		"response": " ",
		"word": "carros.",
		"trial_type": "audio-keyboard-response",
		"trial_index": 107,
		"time_elapsed": 471016,
		"internal_node_id": "0.0-3.0-1.76"
	},
	{
		"rt": 5990,
		"stimulus": "<span style=\"font-size:25px; font-family: monospace\">O primo é um vendedor de carros?</span>",
		"response": "s",
		"question": "O primo é um vendedor de carros?",
		"answer": "null",
		"trial": "exp-sent",
		"trial_type": "html-keyboard-response",
		"trial_index": 108,
		"time_elapsed": 477273,
		"internal_node_id": "0.0-3.0-2.76-0.76",
		"accuracy": false
	},
	{
		"rt": null,
		"stimulus": "<span style= \"font-size:30px; font-family: monospace\">+</span>",
		"response": null,
		"trial_part": "fixation",
		"trial_type": "html-keyboard-response",
		"trial_index": 109,
		"time_elapsed": 478788,
		"internal_node_id": "0.0-3.0-0.77-0.77"
	},
	{
		"rt": 1139,
		"stimulus": "../audio/63-1-masc.mp3",
		"response": " ",
		"word": "A",
		"trial_type": "audio-keyboard-response",
		"trial_index": 110,
		"time_elapsed": 480313,
		"internal_node_id": "0.0-3.0-1.77"
	},
	{
		"rt": 1469,
		"stimulus": "../audio/63-2-masc.mp3",
		"response": " ",
		"word": "chuva",
		"trial_type": "audio-keyboard-response",
		"trial_index": 111,
		"time_elapsed": 482097,
		"internal_node_id": "0.0-3.0-1.78"
	},
	{
		"rt": 1680,
		"stimulus": "../audio/63-3-masc.mp3",
		"response": " ",
		"word": "entrou",
		"trial_type": "audio-keyboard-response",
		"trial_index": 112,
		"time_elapsed": 484081,
		"internal_node_id": "0.0-3.0-1.79"
	},
	{
		"rt": 1371,
		"stimulus": "../audio/63-4-masc.mp3",
		"response": " ",
		"word": "pela",
		"trial_type": "audio-keyboard-response",
		"trial_index": 113,
		"time_elapsed": 485769,
		"internal_node_id": "0.0-3.0-1.80"
	},
	{
		"rt": 1608,
		"stimulus": "../audio/63-5-masc.mp3",
		"response": " ",
		"word": "abertura",
		"trial_type": "audio-keyboard-response",
		"trial_index": 114,
		"time_elapsed": 487713,
		"internal_node_id": "0.0-3.0-1.81"
	},
	{
		"rt": 1120,
		"stimulus": "../audio/63-6-masc.mp3",
		"response": " ",
		"word": "na",
		"trial_type": "audio-keyboard-response",
		"trial_index": 115,
		"time_elapsed": 489145,
		"internal_node_id": "0.0-3.0-1.82"
	},
	{
		"rt": 2128,
		"stimulus": "../audio/63-7-masc.mp3",
		"response": " ",
		"word": "janela.",
		"trial_type": "audio-keyboard-response",
		"trial_index": 116,
		"time_elapsed": 491594,
		"internal_node_id": "0.0-3.0-1.83"
	},
	{
		"rt": null,
		"stimulus": "<span style= \"font-size:30px; font-family: monospace\">+</span>",
		"response": null,
		"trial_part": "fixation",
		"trial_type": "html-keyboard-response",
		"trial_index": 117,
		"time_elapsed": 492857,
		"internal_node_id": "0.0-3.0-0.84-0.84"
	},
	{
		"rt": 1541,
		"stimulus": "../audio/64-1-masc.mp3",
		"response": " ",
		"word": "O",
		"trial_type": "audio-keyboard-response",
		"trial_index": 118,
		"time_elapsed": 494777,
		"internal_node_id": "0.0-3.0-1.84"
	},
	{
		"rt": 1301,
		"stimulus": "../audio/64-2-masc.mp3",
		"response": " ",
		"word": "dia",
		"trial_type": "audio-keyboard-response",
		"trial_index": 119,
		"time_elapsed": 496369,
		"internal_node_id": "0.0-3.0-1.85"
	},
	{
		"rt": 1299,
		"stimulus": "../audio/64-3-masc.mp3",
		"response": " ",
		"word": "começou",
		"trial_type": "audio-keyboard-response",
		"trial_index": 120,
		"time_elapsed": 497993,
		"internal_node_id": "0.0-3.0-1.86"
	},
	{
		"rt": 4360,
		"stimulus": "../audio/64-4-masc.mp3",
		"response": " ",
		"word": "com",
		"trial_type": "audio-keyboard-response",
		"trial_index": 121,
		"time_elapsed": 502666,
		"internal_node_id": "0.0-3.0-1.87"
	},
	{
		"rt": 15149,
		"stimulus": "../audio/64-5-masc.mp3",
		"response": " ",
		"word": "garoa",
		"trial_type": "audio-keyboard-response",
		"trial_index": 122,
		"time_elapsed": 518211,
		"internal_node_id": "0.0-3.0-1.88"
	},
	{
		"rt": 5000,
		"stimulus": "../audio/64-6-masc.mp3",
		"response": " ",
		"word": "gelada",
		"trial_type": "audio-keyboard-response",
		"trial_index": 123,
		"time_elapsed": 523594,
		"internal_node_id": "0.0-3.0-1.89"
	},
	{
		"rt": 2651,
		"stimulus": "../audio/64-7-masc.mp3",
		"response": " ",
		"word": "e",
		"trial_type": "audio-keyboard-response",
		"trial_index": 124,
		"time_elapsed": 526602,
		"internal_node_id": "0.0-3.0-1.90"
	},
	{
		"rt": 3251,
		"stimulus": "../audio/64-8-masc.mp3",
		"response": " ",
		"word": "leve.",
		"trial_type": "audio-keyboard-response",
		"trial_index": 125,
		"time_elapsed": 530219,
		"internal_node_id": "0.0-3.0-1.91"
	},
	{
		"rt": null,
		"stimulus": "<span style= \"font-size:30px; font-family: monospace\">+</span>",
		"response": null,
		"trial_part": "fixation",
		"trial_type": "html-keyboard-response",
		"trial_index": 126,
		"time_elapsed": 531481,
		"internal_node_id": "0.0-3.0-0.92-0.92"
	},
	{
		"rt": 1901,
		"stimulus": "../audio/61-1-masc.mp3",
		"response": " ",
		"word": "Aquele",
		"trial_type": "audio-keyboard-response",
		"trial_index": 127,
		"time_elapsed": 533811,
		"internal_node_id": "0.0-3.0-1.92"
	},
	{
		"rt": 2091,
		"stimulus": "../audio/61-2-masc.mp3",
		"response": " ",
		"word": "senhor",
		"trial_type": "audio-keyboard-response",
		"trial_index": 128,
		"time_elapsed": 536251,
		"internal_node_id": "0.0-3.0-1.93"
	},
	{
		"rt": 4149,
		"stimulus": "../audio/61-3-masc.mp3",
		"response": " ",
		"word": "é",
		"trial_type": "audio-keyboard-response",
		"trial_index": 129,
		"time_elapsed": 540755,
		"internal_node_id": "0.0-3.0-1.94"
	},
	{
		"rt": 949,
		"stimulus": "../audio/61-4-masc.mp3",
		"response": " ",
		"word": "muito",
		"trial_type": "audio-keyboard-response",
		"trial_index": 130,
		"time_elapsed": 542083,
		"internal_node_id": "0.0-3.0-1.95"
	},
	{
		"rt": 1059,
		"stimulus": "../audio/61-5-masc.mp3",
		"response": " ",
		"word": "sovina",
		"trial_type": "audio-keyboard-response",
		"trial_index": 131,
		"time_elapsed": 543483,
		"internal_node_id": "0.0-3.0-1.96"
	},
	{
		"rt": 651,
		"stimulus": "../audio/61-6-masc.mp3",
		"response": " ",
		"word": "e",
		"trial_type": "audio-keyboard-response",
		"trial_index": 132,
		"time_elapsed": 544443,
		"internal_node_id": "0.0-3.0-1.97"
	},
	{
		"rt": 2229,
		"stimulus": "../audio/61-7-masc.mp3",
		"response": " ",
		"word": "inflexível.",
		"trial_type": "audio-keyboard-response",
		"trial_index": 133,
		"time_elapsed": 547019,
		"internal_node_id": "0.0-3.0-1.98"
	},
	{
		"rt": null,
		"stimulus": "<span style= \"font-size:30px; font-family: monospace\">+</span>",
		"response": null,
		"trial_part": "fixation",
		"trial_type": "html-keyboard-response",
		"trial_index": 134,
		"time_elapsed": 548281,
		"internal_node_id": "0.0-3.0-0.99-0.99"
	},
	{
		"rt": 7571,
		"stimulus": "../audio/62-1-masc.mp3",
		"response": " ",
		"word": "As",
		"trial_type": "audio-keyboard-response",
		"trial_index": 135,
		"time_elapsed": 556204,
		"internal_node_id": "0.0-3.0-1.99"
	},
	{
		"rt": 1440,
		"stimulus": "../audio/62-2-masc.mp3",
		"response": " ",
		"word": "artesãs",
		"trial_type": "audio-keyboard-response",
		"trial_index": 136,
		"time_elapsed": 558036,
		"internal_node_id": "0.0-3.0-1.100"
	},
	{
		"rt": 1091,
		"stimulus": "../audio/62-3-masc.mp3",
		"response": " ",
		"word": "gostam",
		"trial_type": "audio-keyboard-response",
		"trial_index": 137,
		"time_elapsed": 559428,
		"internal_node_id": "0.0-3.0-1.101"
	},
	{
		"rt": 771,
		"stimulus": "../audio/62-4-masc.mp3",
		"response": " ",
		"word": "de",
		"trial_type": "audio-keyboard-response",
		"trial_index": 138,
		"time_elapsed": 560508,
		"internal_node_id": "0.0-3.0-1.102"
	},
	{
		"rt": 2051,
		"stimulus": "../audio/62-5-masc.mp3",
		"response": " ",
		"word": "maquiagem",
		"trial_type": "audio-keyboard-response",
		"trial_index": 139,
		"time_elapsed": 562908,
		"internal_node_id": "0.0-3.0-1.103"
	},
	{
		"rt": 1560,
		"stimulus": "../audio/62-6-masc.mp3",
		"response": " ",
		"word": "e",
		"trial_type": "audio-keyboard-response",
		"trial_index": 140,
		"time_elapsed": 564844,
		"internal_node_id": "0.0-3.0-1.104"
	},
	{
		"rt": 1109,
		"stimulus": "../audio/62-7-masc.mp3",
		"response": " ",
		"word": "de",
		"trial_type": "audio-keyboard-response",
		"trial_index": 141,
		"time_elapsed": 566252,
		"internal_node_id": "0.0-3.0-1.105"
	},
	{
		"rt": 1400,
		"stimulus": "../audio/62-8-masc.mp3",
		"response": " ",
		"word": "crochê.",
		"trial_type": "audio-keyboard-response",
		"trial_index": 142,
		"time_elapsed": 567988,
		"internal_node_id": "0.0-3.0-1.106"
	},
	{
		"rt": null,
		"stimulus": "<span style= \"font-size:30px; font-family: monospace\">+</span>",
		"response": null,
		"trial_part": "fixation",
		"trial_type": "html-keyboard-response",
		"trial_index": 143,
		"time_elapsed": 569258,
		"internal_node_id": "0.0-3.0-0.107-0.107"
	},
	{
		"rt": 4491,
		"stimulus": "../audio/65-1-masc.mp3",
		"response": " ",
		"word": "O",
		"trial_type": "audio-keyboard-response",
		"trial_index": 144,
		"time_elapsed": 574124,
		"internal_node_id": "0.0-3.0-1.107"
	},
	{
		"rt": 1421,
		"stimulus": "../audio/65-2-masc.mp3",
		"response": " ",
		"word": "fantasma",
		"trial_type": "audio-keyboard-response",
		"trial_index": 145,
		"time_elapsed": 575932,
		"internal_node_id": "0.0-3.0-1.108"
	},
	{
		"rt": 829,
		"stimulus": "../audio/65-3-masc.mp3",
		"response": " ",
		"word": "veio",
		"trial_type": "audio-keyboard-response",
		"trial_index": 146,
		"time_elapsed": 577076,
		"internal_node_id": "0.0-3.0-1.109"
	},
	{
		"rt": 2381,
		"stimulus": "../audio/65-4-masc.mp3",
		"response": " ",
		"word": "da",
		"trial_type": "audio-keyboard-response",
		"trial_index": 147,
		"time_elapsed": 579748,
		"internal_node_id": "0.0-3.0-1.110"
	},
	{
		"rt": 1291,
		"stimulus": "../audio/65-5-masc.mp3",
		"response": " ",
		"word": "escuridão",
		"trial_type": "audio-keyboard-response",
		"trial_index": 148,
		"time_elapsed": 581468,
		"internal_node_id": "0.0-3.0-1.111"
	},
	{
		"rt": 739,
		"stimulus": "../audio/65-6-masc.mp3",
		"response": " ",
		"word": "do",
		"trial_type": "audio-keyboard-response",
		"trial_index": 149,
		"time_elapsed": 582516,
		"internal_node_id": "0.0-3.0-1.112"
	},
	{
		"rt": 979,
		"stimulus": "../audio/65-7-masc.mp3",
		"response": " ",
		"word": "armário.",
		"trial_type": "audio-keyboard-response",
		"trial_index": 150,
		"time_elapsed": 583836,
		"internal_node_id": "0.0-3.0-1.113"
	},
	{
		"rt": 9527,
		"stimulus": "<span style=\"font-size:25px; font-family: monospace\">O fantasma veio da escuridão do armário?</span>",
		"response": "s",
		"question": "O fantasma veio da escuridão do armário?",
		"answer": "null",
		"trial": "exp-sent",
		"trial_type": "html-keyboard-response",
		"trial_index": 151,
		"time_elapsed": 593621,
		"internal_node_id": "0.0-3.0-2.113-0.113",
		"accuracy": false
	},
	{
		"rt": null,
		"stimulus": "<span style= \"font-size:30px; font-family: monospace\">+</span>",
		"response": null,
		"trial_part": "fixation",
		"trial_type": "html-keyboard-response",
		"trial_index": 152,
		"time_elapsed": 595143,
		"internal_node_id": "0.0-3.0-0.114-0.114"
	},
	{
		"rt": 1749,
		"stimulus": "../audio/44-1-fem.mp3",
		"response": " ",
		"word": "Meus",
		"trial_type": "audio-keyboard-response",
		"trial_index": 153,
		"time_elapsed": 597317,
		"internal_node_id": "0.0-3.0-1.114"
	},
	{
		"rt": 989,
		"stimulus": "../audio/44-2-fem.mp3",
		"response": " ",
		"word": "irmãos",
		"trial_type": "audio-keyboard-response",
		"trial_index": 154,
		"time_elapsed": 598701,
		"internal_node_id": "0.0-3.0-1.115"
	},
	{
		"rt": 891,
		"stimulus": "../audio/44-3-fem.mp3",
		"response": " ",
		"word": "brigam",
		"trial_type": "audio-keyboard-response",
		"trial_index": 155,
		"time_elapsed": 599901,
		"internal_node_id": "0.0-3.0-1.116"
	},
	{
		"rt": 781,
		"stimulus": "../audio/44-4-fem.mp3",
		"response": " ",
		"word": "por",
		"trial_type": "audio-keyboard-response",
		"trial_index": 156,
		"time_elapsed": 600973,
		"internal_node_id": "0.0-3.0-1.117"
	},
	{
		"rt": 1099,
		"stimulus": "../audio/44-5-fem.mp3",
		"response": " ",
		"word": "bobagem",
		"trial_type": "audio-keyboard-response",
		"trial_index": 157,
		"time_elapsed": 602405,
		"internal_node_id": "0.0-3.0-1.118"
	},
	{
		"rt": 939,
		"stimulus": "../audio/44-6-fem.mp3",
		"response": " ",
		"word": "todos",
		"trial_type": "audio-keyboard-response",
		"trial_index": 158,
		"time_elapsed": 603645,
		"internal_node_id": "0.0-3.0-1.119"
	},
	{
		"rt": 760,
		"stimulus": "../audio/44-7-fem.mp3",
		"response": " ",
		"word": "os",
		"trial_type": "audio-keyboard-response",
		"trial_index": 159,
		"time_elapsed": 604717,
		"internal_node_id": "0.0-3.0-1.120"
	},
	{
		"rt": 800,
		"stimulus": "../audio/44-8-fem.mp3",
		"response": " ",
		"word": "dias.",
		"trial_type": "audio-keyboard-response",
		"trial_index": 160,
		"time_elapsed": 605821,
		"internal_node_id": "0.0-3.0-1.121"
	},
	{
		"rt": null,
		"stimulus": "<span style= \"font-size:30px; font-family: monospace\">+</span>",
		"response": null,
		"trial_part": "fixation",
		"trial_type": "html-keyboard-response",
		"trial_index": 161,
		"time_elapsed": 607082,
		"internal_node_id": "0.0-3.0-0.122-0.122"
	},
	{
		"rt": 851,
		"stimulus": "../audio/43-1-fem.mp3",
		"response": " ",
		"word": "Eu",
		"trial_type": "audio-keyboard-response",
		"trial_index": 162,
		"time_elapsed": 608285,
		"internal_node_id": "0.0-3.0-1.122"
	},
	{
		"rt": 1029,
		"stimulus": "../audio/43-2-fem.mp3",
		"response": " ",
		"word": "achei",
		"trial_type": "audio-keyboard-response",
		"trial_index": 163,
		"time_elapsed": 609661,
		"internal_node_id": "0.0-3.0-1.123"
	},
	{
		"rt": 800,
		"stimulus": "../audio/43-3-fem.mp3",
		"response": " ",
		"word": "um",
		"trial_type": "audio-keyboard-response",
		"trial_index": 164,
		"time_elapsed": 610765,
		"internal_node_id": "0.0-3.0-1.124"
	},
	{
		"rt": 1112,
		"stimulus": "../audio/43-4-fem.mp3",
		"response": " ",
		"word": "colchão",
		"trial_type": "audio-keyboard-response",
		"trial_index": 165,
		"time_elapsed": 612189,
		"internal_node_id": "0.0-3.0-1.125"
	},
	{
		"rt": 1861,
		"stimulus": "../audio/43-5-fem.mp3",
		"response": " ",
		"word": "velho",
		"trial_type": "audio-keyboard-response",
		"trial_index": 166,
		"time_elapsed": 614350,
		"internal_node_id": "0.0-3.0-1.126"
	},
	{
		"rt": 5880,
		"stimulus": "../audio/43-6-fem.mp3",
		"response": " ",
		"word": "e",
		"trial_type": "audio-keyboard-response",
		"trial_index": 167,
		"time_elapsed": 620597,
		"internal_node_id": "0.0-3.0-1.127"
	},
	{
		"rt": 1811,
		"stimulus": "../audio/43-7-fem.mp3",
		"response": " ",
		"word": "imundo",
		"trial_type": "audio-keyboard-response",
		"trial_index": 168,
		"time_elapsed": 622781,
		"internal_node_id": "0.0-3.0-1.128"
	},
	{
		"rt": 45869,
		"stimulus": "../audio/43-8-fem.mp3",
		"response": " ",
		"word": "na",
		"trial_type": "audio-keyboard-response",
		"trial_index": 169,
		"time_elapsed": 669008,
		"internal_node_id": "0.0-3.0-1.129"
	},
	{
		"rt": 549,
		"stimulus": "../audio/43-9-fem.mp3",
		"response": " ",
		"word": "casa.",
		"trial_type": "audio-keyboard-response",
		"trial_index": 170,
		"time_elapsed": 669975,
		"internal_node_id": "0.0-3.0-1.130"
	},
	{
		"rt": null,
		"stimulus": "<span style= \"font-size:30px; font-family: monospace\">+</span>",
		"response": null,
		"trial_part": "fixation",
		"trial_type": "html-keyboard-response",
		"trial_index": 171,
		"time_elapsed": 671234,
		"internal_node_id": "0.0-3.0-0.131-0.131"
	},
	{
		"rt": 1389,
		"stimulus": "../audio/42-1-fem.mp3",
		"response": " ",
		"word": "Eu",
		"trial_type": "audio-keyboard-response",
		"trial_index": 172,
		"time_elapsed": 672999,
		"internal_node_id": "0.0-3.0-1.131"
	},
	{
		"rt": 1059,
		"stimulus": "../audio/42-2-fem.mp3",
		"response": " ",
		"word": "fui",
		"trial_type": "audio-keyboard-response",
		"trial_index": 173,
		"time_elapsed": 674367,
		"internal_node_id": "0.0-3.0-1.132"
	},
	{
		"rt": 669,
		"stimulus": "../audio/42-3-fem.mp3",
		"response": " ",
		"word": "a",
		"trial_type": "audio-keyboard-response",
		"trial_index": 174,
		"time_elapsed": 675343,
		"internal_node_id": "0.0-3.0-1.133"
	},
	{
		"rt": 821,
		"stimulus": "../audio/42-4-fem.mp3",
		"response": " ",
		"word": "uma",
		"trial_type": "audio-keyboard-response",
		"trial_index": 175,
		"time_elapsed": 676463,
		"internal_node_id": "0.0-3.0-1.134"
	},
	{
		"rt": 1141,
		"stimulus": "../audio/42-5-fem.mp3",
		"response": " ",
		"word": "loja",
		"trial_type": "audio-keyboard-response",
		"trial_index": 176,
		"time_elapsed": 677911,
		"internal_node_id": "0.0-3.0-1.135"
	},
	{
		"rt": 600,
		"stimulus": "../audio/42-6-fem.mp3",
		"response": " ",
		"word": "de",
		"trial_type": "audio-keyboard-response",
		"trial_index": 177,
		"time_elapsed": 678823,
		"internal_node_id": "0.0-3.0-1.136"
	},
	{
		"rt": 421,
		"stimulus": "../audio/42-7-fem.mp3",
		"response": " ",
		"word": "móveis",
		"trial_type": "audio-keyboard-response",
		"trial_index": 178,
		"time_elapsed": 679584,
		"internal_node_id": "0.0-3.0-1.137"
	},
	{
		"rt": 680,
		"stimulus": "../audio/42-8-fem.mp3",
		"response": " ",
		"word": "no",
		"trial_type": "audio-keyboard-response",
		"trial_index": 179,
		"time_elapsed": 680567,
		"internal_node_id": "0.0-3.0-1.138"
	},
	{
		"rt": 488,
		"stimulus": "../audio/42-9-fem.mp3",
		"response": " ",
		"word": "bairro.",
		"trial_type": "audio-keyboard-response",
		"trial_index": 180,
		"time_elapsed": 681359,
		"internal_node_id": "0.0-3.0-1.139"
	},
	{
		"rt": null,
		"stimulus": "<span style= \"font-size:30px; font-family: monospace\">+</span>",
		"response": null,
		"trial_part": "fixation",
		"trial_type": "html-keyboard-response",
		"trial_index": 181,
		"time_elapsed": 682622,
		"internal_node_id": "0.0-3.0-0.140-0.140"
	},
	{
		"rt": 992,
		"stimulus": "../audio/41-1-masc.mp3",
		"response": " ",
		"word": "A",
		"trial_type": "audio-keyboard-response",
		"trial_index": 182,
		"time_elapsed": 683991,
		"internal_node_id": "0.0-3.0-1.140"
	},
	{
		"rt": 1021,
		"stimulus": "../audio/41-2-masc.mp3",
		"response": " ",
		"word": "novela",
		"trial_type": "audio-keyboard-response",
		"trial_index": 183,
		"time_elapsed": 685344,
		"internal_node_id": "0.0-3.0-1.141"
	},
	{
		"rt": 680,
		"stimulus": "../audio/41-3-masc.mp3",
		"response": " ",
		"word": "falava",
		"trial_type": "audio-keyboard-response",
		"trial_index": 184,
		"time_elapsed": 686344,
		"internal_node_id": "0.0-3.0-1.142"
	},
	{
		"rt": 720,
		"stimulus": "../audio/41-4-masc.mp3",
		"response": " ",
		"word": "de",
		"trial_type": "audio-keyboard-response",
		"trial_index": 185,
		"time_elapsed": 687360,
		"internal_node_id": "0.0-3.0-1.143"
	},
	{
		"rt": 989,
		"stimulus": "../audio/41-5-masc.mp3",
		"response": " ",
		"word": "paixão",
		"trial_type": "audio-keyboard-response",
		"trial_index": 186,
		"time_elapsed": 688656,
		"internal_node_id": "0.0-3.0-1.144"
	},
	{
		"rt": 771,
		"stimulus": "../audio/41-6-masc.mp3",
		"response": " ",
		"word": "e",
		"trial_type": "audio-keyboard-response",
		"trial_index": 187,
		"time_elapsed": 689728,
		"internal_node_id": "0.0-3.0-1.145"
	},
	{
		"rt": 752,
		"stimulus": "../audio/41-7-masc.mp3",
		"response": " ",
		"word": "comédia.",
		"trial_type": "audio-keyboard-response",
		"trial_index": 188,
		"time_elapsed": 690792,
		"internal_node_id": "0.0-3.0-1.146"
	},
	{
		"rt": null,
		"stimulus": "<span style= \"font-size:30px; font-family: monospace\">+</span>",
		"response": null,
		"trial_part": "fixation",
		"trial_type": "html-keyboard-response",
		"trial_index": 189,
		"time_elapsed": 692063,
		"internal_node_id": "0.0-3.0-0.147-0.147"
	},
	{
		"rt": 779,
		"stimulus": "../audio/45-1-masc.mp3",
		"response": " ",
		"word": "O",
		"trial_type": "audio-keyboard-response",
		"trial_index": 190,
		"time_elapsed": 693216,
		"internal_node_id": "0.0-3.0-1.147"
	},
	{
		"rt": 832,
		"stimulus": "../audio/45-2-masc.mp3",
		"response": " ",
		"word": "homem",
		"trial_type": "audio-keyboard-response",
		"trial_index": 191,
		"time_elapsed": 694352,
		"internal_node_id": "0.0-3.0-1.148"
	},
	{
		"rt": 869,
		"stimulus": "../audio/45-3-masc.mp3",
		"response": " ",
		"word": "pagou",
		"trial_type": "audio-keyboard-response",
		"trial_index": 192,
		"time_elapsed": 695528,
		"internal_node_id": "0.0-3.0-1.149"
	},
	{
		"rt": 749,
		"stimulus": "../audio/45-4-masc.mp3",
		"response": " ",
		"word": "o",
		"trial_type": "audio-keyboard-response",
		"trial_index": 193,
		"time_elapsed": 696584,
		"internal_node_id": "0.0-3.0-1.150"
	},
	{
		"rt": 869,
		"stimulus": "../audio/45-5-masc.mp3",
		"response": " ",
		"word": "aluguel",
		"trial_type": "audio-keyboard-response",
		"trial_index": 194,
		"time_elapsed": 697760,
		"internal_node_id": "0.0-3.0-1.151"
	},
	{
		"rt": 800,
		"stimulus": "../audio/45-6-masc.mp3",
		"response": " ",
		"word": "com",
		"trial_type": "audio-keyboard-response",
		"trial_index": 195,
		"time_elapsed": 698864,
		"internal_node_id": "0.0-3.0-1.152"
	},
	{
		"rt": 1131,
		"stimulus": "../audio/45-7-masc.mp3",
		"response": " ",
		"word": "atraso.",
		"trial_type": "audio-keyboard-response",
		"trial_index": 196,
		"time_elapsed": 700304,
		"internal_node_id": "0.0-3.0-1.153"
	},
	{
		"rt": 8657,
		"stimulus": "<span style=\"font-size:25px; font-family: monospace\">O homem pagou o aluguel em dia?</span>",
		"response": "s",
		"question": "O homem pagou o aluguel em dia?",
		"answer": "null",
		"trial": "exp-sent",
		"trial_type": "html-keyboard-response",
		"trial_index": 197,
		"time_elapsed": 709224,
		"internal_node_id": "0.0-3.0-2.153-0.153",
		"accuracy": false
	},
	{
		"rt": null,
		"stimulus": "<span style= \"font-size:30px; font-family: monospace\">+</span>",
		"response": null,
		"trial_part": "fixation",
		"trial_type": "html-keyboard-response",
		"trial_index": 198,
		"time_elapsed": 710729,
		"internal_node_id": "0.0-3.0-0.154-0.154"
	},
	{
		"rt": 621,
		"stimulus": "../audio/78-1-fem.mp3",
		"response": " ",
		"word": "Eles",
		"trial_type": "audio-keyboard-response",
		"trial_index": 199,
		"time_elapsed": 711712,
		"internal_node_id": "0.0-3.0-1.154"
	},
	{
		"rt": 909,
		"stimulus": "../audio/78-2-fem.mp3",
		"response": " ",
		"word": "trazem",
		"trial_type": "audio-keyboard-response",
		"trial_index": 200,
		"time_elapsed": 712936,
		"internal_node_id": "0.0-3.0-1.155"
	},
	{
		"rt": 752,
		"stimulus": "../audio/78-3-fem.mp3",
		"response": " ",
		"word": "um",
		"trial_type": "audio-keyboard-response",
		"trial_index": 201,
		"time_elapsed": 713992,
		"internal_node_id": "0.0-3.0-1.156"
	},
	{
		"rt": 829,
		"stimulus": "../audio/78-4-fem.mp3",
		"response": " ",
		"word": "fato",
		"trial_type": "audio-keyboard-response",
		"trial_index": 202,
		"time_elapsed": 715136,
		"internal_node_id": "0.0-3.0-1.157"
	},
	{
		"rt": 3200,
		"stimulus": "../audio/78-5-fem.mp3",
		"response": " ",
		"word": "urgente",
		"trial_type": "audio-keyboard-response",
		"trial_index": 203,
		"time_elapsed": 718680,
		"internal_node_id": "0.0-3.0-1.158"
	},
	{
		"rt": 941,
		"stimulus": "../audio/78-6-fem.mp3",
		"response": " ",
		"word": "todos",
		"trial_type": "audio-keyboard-response",
		"trial_index": 204,
		"time_elapsed": 719992,
		"internal_node_id": "0.0-3.0-1.159"
	},
	{
		"rt": 851,
		"stimulus": "../audio/78-7-fem.mp3",
		"response": " ",
		"word": "os",
		"trial_type": "audio-keyboard-response",
		"trial_index": 205,
		"time_elapsed": 721144,
		"internal_node_id": "0.0-3.0-1.160"
	},
	{
		"rt": 1029,
		"stimulus": "../audio/78-8-fem.mp3",
		"response": " ",
		"word": "dias.",
		"trial_type": "audio-keyboard-response",
		"trial_index": 206,
		"time_elapsed": 722520,
		"internal_node_id": "0.0-3.0-1.161"
	},
	{
		"rt": null,
		"stimulus": "<span style= \"font-size:30px; font-family: monospace\">+</span>",
		"response": null,
		"trial_part": "fixation",
		"trial_type": "html-keyboard-response",
		"trial_index": 207,
		"time_elapsed": 723785,
		"internal_node_id": "0.0-3.0-0.162-0.162"
	},
	{
		"rt": 219,
		"stimulus": "../audio/77-1-fem.mp3",
		"response": " ",
		"word": "A",
		"trial_type": "audio-keyboard-response",
		"trial_index": 208,
		"time_elapsed": 724376,
		"internal_node_id": "0.0-3.0-1.162"
	},
	{
		"rt": 1448,
		"stimulus": "../audio/77-2-fem.mp3",
		"response": " ",
		"word": "criança",
		"trial_type": "audio-keyboard-response",
		"trial_index": 209,
		"time_elapsed": 726160,
		"internal_node_id": "0.0-3.0-1.163"
	},
	{
		"rt": 1189,
		"stimulus": "../audio/77-3-fem.mp3",
		"response": " ",
		"word": "ficou",
		"trial_type": "audio-keyboard-response",
		"trial_index": 210,
		"time_elapsed": 727656,
		"internal_node_id": "0.0-3.0-1.164"
	},
	{
		"rt": 2851,
		"stimulus": "../audio/77-4-fem.mp3",
		"response": " ",
		"word": "muito",
		"trial_type": "audio-keyboard-response",
		"trial_index": 211,
		"time_elapsed": 730808,
		"internal_node_id": "0.0-3.0-1.165"
	},
	{
		"rt": 2029,
		"stimulus": "../audio/77-5-fem.mp3",
		"response": " ",
		"word": "feliz",
		"trial_type": "audio-keyboard-response",
		"trial_index": 212,
		"time_elapsed": 733264,
		"internal_node_id": "0.0-3.0-1.166"
	},
	{
		"rt": 4219,
		"stimulus": "../audio/77-6-fem.mp3",
		"response": " ",
		"word": "com",
		"trial_type": "audio-keyboard-response",
		"trial_index": 213,
		"time_elapsed": 737848,
		"internal_node_id": "0.0-3.0-1.167"
	},
	{
		"rt": 811,
		"stimulus": "../audio/77-7-fem.mp3",
		"response": " ",
		"word": "o",
		"trial_type": "audio-keyboard-response",
		"trial_index": 214,
		"time_elapsed": 739024,
		"internal_node_id": "0.0-3.0-1.168"
	},
	{
		"rt": 1021,
		"stimulus": "../audio/77-8-fem.mp3",
		"response": " ",
		"word": "brinquedo.",
		"trial_type": "audio-keyboard-response",
		"trial_index": 215,
		"time_elapsed": 740392,
		"internal_node_id": "0.0-3.0-1.169"
	},
	{
		"rt": null,
		"stimulus": "<span style= \"font-size:30px; font-family: monospace\">+</span>",
		"response": null,
		"trial_part": "fixation",
		"trial_type": "html-keyboard-response",
		"trial_index": 216,
		"time_elapsed": 741658,
		"internal_node_id": "0.0-3.0-0.170-0.170"
	},
	{
		"rt": 1269,
		"stimulus": "../audio/79-1-fem.mp3",
		"response": " ",
		"word": "A",
		"trial_type": "audio-keyboard-response",
		"trial_index": 217,
		"time_elapsed": 743289,
		"internal_node_id": "0.0-3.0-1.170"
	},
	{
		"rt": 1229,
		"stimulus": "../audio/79-2-fem.mp3",
		"response": " ",
		"word": "médica",
		"trial_type": "audio-keyboard-response",
		"trial_index": 218,
		"time_elapsed": 744848,
		"internal_node_id": "0.0-3.0-1.171"
	},
	{
		"rt": 1299,
		"stimulus": "../audio/79-3-fem.mp3",
		"response": " ",
		"word": "verificou",
		"trial_type": "audio-keyboard-response",
		"trial_index": 219,
		"time_elapsed": 746480,
		"internal_node_id": "0.0-3.0-1.172"
	},
	{
		"rt": 629,
		"stimulus": "../audio/79-4-fem.mp3",
		"response": " ",
		"word": "a",
		"trial_type": "audio-keyboard-response",
		"trial_index": 220,
		"time_elapsed": 747417,
		"internal_node_id": "0.0-3.0-1.173"
	},
	{
		"rt": 731,
		"stimulus": "../audio/79-5-fem.mp3",
		"response": " ",
		"word": "gengiva",
		"trial_type": "audio-keyboard-response",
		"trial_index": 221,
		"time_elapsed": 748473,
		"internal_node_id": "0.0-3.0-1.174"
	},
	{
		"rt": 800,
		"stimulus": "../audio/79-6-fem.mp3",
		"response": " ",
		"word": "por",
		"trial_type": "audio-keyboard-response",
		"trial_index": 222,
		"time_elapsed": 749569,
		"internal_node_id": "0.0-3.0-1.175"
	},
	{
		"rt": 9389,
		"stimulus": "../audio/79-7-fem.mp3",
		"response": " ",
		"word": "último.",
		"trial_type": "audio-keyboard-response",
		"trial_index": 223,
		"time_elapsed": 759249,
		"internal_node_id": "0.0-3.0-1.176"
	},
	{
		"rt": null,
		"stimulus": "<span style= \"font-size:30px; font-family: monospace\">+</span>",
		"response": null,
		"trial_part": "fixation",
		"trial_type": "html-keyboard-response",
		"trial_index": 224,
		"time_elapsed": 760506,
		"internal_node_id": "0.0-3.0-0.177-0.177"
	},
	{
		"rt": 2448,
		"stimulus": "../audio/76-1-masc.mp3",
		"response": " ",
		"word": "O",
		"trial_type": "audio-keyboard-response",
		"trial_index": 225,
		"time_elapsed": 763321,
		"internal_node_id": "0.0-3.0-1.177"
	},
	{
		"rt": 1189,
		"stimulus": "../audio/76-2-masc.mp3",
		"response": " ",
		"word": "bisavô",
		"trial_type": "audio-keyboard-response",
		"trial_index": 226,
		"time_elapsed": 764897,
		"internal_node_id": "0.0-3.0-1.178"
	},
	{
		"rt": 1808,
		"stimulus": "../audio/76-3-masc.mp3",
		"response": " ",
		"word": "comprou",
		"trial_type": "audio-keyboard-response",
		"trial_index": 227,
		"time_elapsed": 767001,
		"internal_node_id": "0.0-3.0-1.179"
	},
	{
		"rt": 19909,
		"stimulus": "../audio/76-4-masc.mp3",
		"response": " ",
		"word": "um",
		"trial_type": "audio-keyboard-response",
		"trial_index": 228,
		"time_elapsed": 787267,
		"internal_node_id": "0.0-3.0-1.180"
	},
	{
		"rt": 22989,
		"stimulus": "../audio/76-5-masc.mp3",
		"response": " ",
		"word": "ralador",
		"trial_type": "audio-keyboard-response",
		"trial_index": 229,
		"time_elapsed": 810652,
		"internal_node_id": "0.0-3.0-1.181"
	},
	{
		"rt": 680,
		"stimulus": "../audio/76-6-masc.mp3",
		"response": " ",
		"word": "de",
		"trial_type": "audio-keyboard-response",
		"trial_index": 230,
		"time_elapsed": 811723,
		"internal_node_id": "0.0-3.0-1.182"
	},
	{
		"rt": 691,
		"stimulus": "../audio/76-7-masc.mp3",
		"response": " ",
		"word": "queijo.",
		"trial_type": "audio-keyboard-response",
		"trial_index": 231,
		"time_elapsed": 812715,
		"internal_node_id": "0.0-3.0-1.183"
	},
	{
		"rt": null,
		"stimulus": "<span style= \"font-size:30px; font-family: monospace\">+</span>",
		"response": null,
		"trial_part": "fixation",
		"trial_type": "html-keyboard-response",
		"trial_index": 232,
		"time_elapsed": 813986,
		"internal_node_id": "0.0-3.0-0.184-0.184"
	},
	{
		"rt": 2629,
		"stimulus": "../audio/80-1-fem.mp3",
		"response": " ",
		"word": "Meu",
		"trial_type": "audio-keyboard-response",
		"trial_index": 233,
		"time_elapsed": 816979,
		"internal_node_id": "0.0-3.0-1.184"
	},
	{
		"rt": 851,
		"stimulus": "../audio/80-2-fem.mp3",
		"response": " ",
		"word": "primo",
		"trial_type": "audio-keyboard-response",
		"trial_index": 234,
		"time_elapsed": 818195,
		"internal_node_id": "0.0-3.0-1.185"
	},
	{
		"rt": 1051,
		"stimulus": "../audio/80-3-fem.mp3",
		"response": " ",
		"word": "conheceu",
		"trial_type": "audio-keyboard-response",
		"trial_index": 235,
		"time_elapsed": 819571,
		"internal_node_id": "0.0-3.0-1.186"
	},
	{
		"rt": 781,
		"stimulus": "../audio/80-4-fem.mp3",
		"response": " ",
		"word": "um",
		"trial_type": "audio-keyboard-response",
		"trial_index": 236,
		"time_elapsed": 820667,
		"internal_node_id": "0.0-3.0-1.187"
	},
	{
		"rt": 1192,
		"stimulus": "../audio/80-5-fem.mp3",
		"response": " ",
		"word": "jovem",
		"trial_type": "audio-keyboard-response",
		"trial_index": 237,
		"time_elapsed": 822196,
		"internal_node_id": "0.0-3.0-1.188"
	},
	{
		"rt": 1280,
		"stimulus": "../audio/80-6-fem.mp3",
		"response": " ",
		"word": "amável",
		"trial_type": "audio-keyboard-response",
		"trial_index": 238,
		"time_elapsed": 823819,
		"internal_node_id": "0.0-3.0-1.189"
	},
	{
		"rt": 1461,
		"stimulus": "../audio/80-7-fem.mp3",
		"response": " ",
		"word": "e",
		"trial_type": "audio-keyboard-response",
		"trial_index": 239,
		"time_elapsed": 825588,
		"internal_node_id": "0.0-3.0-1.190"
	},
	{
		"rt": 840,
		"stimulus": "../audio/80-8-fem.mp3",
		"response": " ",
		"word": "confiante.",
		"trial_type": "audio-keyboard-response",
		"trial_index": 240,
		"time_elapsed": 826772,
		"internal_node_id": "0.0-3.0-1.191"
	},
	{
		"rt": 87087,
		"stimulus": "<span style=\"font-size:25px; font-family: monospace\">O primo conheceu um jovem irritante?</span>",
		"response": "s",
		"question": "O primo conheceu um jovem irritante?",
		"answer": "null",
		"trial": "exp-sent",
		"trial_type": "html-keyboard-response",
		"trial_index": 241,
		"time_elapsed": 914119,
		"internal_node_id": "0.0-3.0-2.191-0.191",
		"accuracy": false
	},
	{
		"rt": null,
		"stimulus": "<span style= \"font-size:30px; font-family: monospace\">+</span>",
		"response": null,
		"trial_part": "fixation",
		"trial_type": "html-keyboard-response",
		"trial_index": 242,
		"time_elapsed": 915620,
		"internal_node_id": "0.0-3.0-0.192-0.192"
	},
	{
		"rt": 840,
		"stimulus": "../audio/04-1-fem.mp3",
		"response": " ",
		"word": "Duzentos",
		"trial_type": "audio-keyboard-response",
		"trial_index": 243,
		"time_elapsed": 916870,
		"internal_node_id": "0.0-3.0-1.192"
	},
	{
		"rt": 1036891,
		"stimulus": "../audio/04-2-fem.mp3",
		"response": " ",
		"word": "carros",
		"trial_type": "audio-keyboard-response",
		"trial_index": 244,
		"time_elapsed": 1955350,
		"internal_node_id": "0.0-3.0-1.193"
	},
	{
		"rt": 560,
		"stimulus": "../audio/04-3-fem.mp3",
		"response": " ",
		"word": "passaram",
		"trial_type": "audio-keyboard-response",
		"trial_index": 245,
		"time_elapsed": 1956518,
		"internal_node_id": "0.0-3.0-1.194"
	},
	{
		"rt": 789,
		"stimulus": "../audio/04-4-fem.mp3",
		"response": " ",
		"word": "pela",
		"trial_type": "audio-keyboard-response",
		"trial_index": 246,
		"time_elapsed": 1957614,
		"internal_node_id": "0.0-3.0-1.195"
	},
	{
		"rt": 992,
		"stimulus": "../audio/04-5-fem.mp3",
		"response": " ",
		"word": "ponte",
		"trial_type": "audio-keyboard-response",
		"trial_index": 247,
		"time_elapsed": 1958927,
		"internal_node_id": "0.0-3.0-1.196"
	},
	{
		"rt": 949,
		"stimulus": "../audio/04-6-fem.mp3",
		"response": " ",
		"word": "hoje",
		"trial_type": "audio-keyboard-response",
		"trial_index": 248,
		"time_elapsed": 1960190,
		"internal_node_id": "0.0-3.0-1.197"
	},
	{
		"rt": 781,
		"stimulus": "../audio/04-7-fem.mp3",
		"response": " ",
		"word": "de",
		"trial_type": "audio-keyboard-response",
		"trial_index": 249,
		"time_elapsed": 1961278,
		"internal_node_id": "0.0-3.0-1.198"
	},
	{
		"rt": 1171,
		"stimulus": "../audio/04-8-fem.mp3",
		"response": " ",
		"word": "tarde.",
		"trial_type": "audio-keyboard-response",
		"trial_index": 250,
		"time_elapsed": 1962750,
		"internal_node_id": "0.0-3.0-1.199"
	},
	{
		"rt": null,
		"stimulus": "<span style= \"font-size:30px; font-family: monospace\">+</span>",
		"response": null,
		"trial_part": "fixation",
		"trial_type": "html-keyboard-response",
		"trial_index": 251,
		"time_elapsed": 1964021,
		"internal_node_id": "0.0-3.0-0.200-0.200"
	},
	{
		"rt": 701,
		"stimulus": "../audio/03-1-masc.mp3",
		"response": " ",
		"word": "O",
		"trial_type": "audio-keyboard-response",
		"trial_index": 252,
		"time_elapsed": 1965079,
		"internal_node_id": "0.0-3.0-1.200"
	},
	{
		"rt": 952,
		"stimulus": "../audio/03-2-masc.mp3",
		"response": " ",
		"word": "coelho",
		"trial_type": "audio-keyboard-response",
		"trial_index": 253,
		"time_elapsed": 1966327,
		"internal_node_id": "0.0-3.0-1.201"
	},
	{
		"rt": 779,
		"stimulus": "../audio/03-3-masc.mp3",
		"response": " ",
		"word": "foi",
		"trial_type": "audio-keyboard-response",
		"trial_index": 254,
		"time_elapsed": 1967415,
		"internal_node_id": "0.0-3.0-1.202"
	},
	{
		"rt": 1000,
		"stimulus": "../audio/03-4-masc.mp3",
		"response": " ",
		"word": "bastante",
		"trial_type": "audio-keyboard-response",
		"trial_index": 255,
		"time_elapsed": 1968743,
		"internal_node_id": "0.0-3.0-1.203"
	},
	{
		"rt": 899,
		"stimulus": "../audio/03-5-masc.mp3",
		"response": " ",
		"word": "dócil",
		"trial_type": "audio-keyboard-response",
		"trial_index": 256,
		"time_elapsed": 1969943,
		"internal_node_id": "0.0-3.0-1.204"
	},
	{
		"rt": 749,
		"stimulus": "../audio/03-6-masc.mp3",
		"response": " ",
		"word": "com",
		"trial_type": "audio-keyboard-response",
		"trial_index": 257,
		"time_elapsed": 1970991,
		"internal_node_id": "0.0-3.0-1.205"
	},
	{
		"rt": 771,
		"stimulus": "../audio/03-7-masc.mp3",
		"response": " ",
		"word": "as",
		"trial_type": "audio-keyboard-response",
		"trial_index": 258,
		"time_elapsed": 1972063,
		"internal_node_id": "0.0-3.0-1.206"
	},
	{
		"rt": 941,
		"stimulus": "../audio/03-8-masc.mp3",
		"response": " ",
		"word": "crianças.",
		"trial_type": "audio-keyboard-response",
		"trial_index": 259,
		"time_elapsed": 1973327,
		"internal_node_id": "0.0-3.0-1.207"
	},
	{
		"rt": null,
		"stimulus": "<span style= \"font-size:30px; font-family: monospace\">+</span>",
		"response": null,
		"trial_part": "fixation",
		"trial_type": "html-keyboard-response",
		"trial_index": 260,
		"time_elapsed": 1974587,
		"internal_node_id": "0.0-3.0-0.208-0.208"
	},
	{
		"rt": 651,
		"stimulus": "../audio/02-2-fem.mp3",
		"response": " ",
		"word": "Havia",
		"trial_type": "audio-keyboard-response",
		"trial_index": 261,
		"time_elapsed": 1975591,
		"internal_node_id": "0.0-3.0-1.208"
	},
	{
		"rt": 629,
		"stimulus": "../audio/02-2-fem.mp3",
		"response": " ",
		"word": "um",
		"trial_type": "audio-keyboard-response",
		"trial_index": 262,
		"time_elapsed": 1976479,
		"internal_node_id": "0.0-3.0-1.209"
	},
	{
		"rt": 611,
		"stimulus": "../audio/02-3-fem.mp3",
		"response": " ",
		"word": "cheiro",
		"trial_type": "audio-keyboard-response",
		"trial_index": 263,
		"time_elapsed": 1977399,
		"internal_node_id": "0.0-3.0-1.210"
	},
	{
		"rt": 669,
		"stimulus": "../audio/02-4-fem.mp3",
		"response": " ",
		"word": "de",
		"trial_type": "audio-keyboard-response",
		"trial_index": 264,
		"time_elapsed": 1978375,
		"internal_node_id": "0.0-3.0-1.211"
	},
	{
		"rt": 699,
		"stimulus": "../audio/02-5-fem.mp3",
		"response": " ",
		"word": "gasolina",
		"trial_type": "audio-keyboard-response",
		"trial_index": 265,
		"time_elapsed": 1979415,
		"internal_node_id": "0.0-3.0-1.212"
	},
	{
		"rt": 1579,
		"stimulus": "../audio/02-6-fem.mp3",
		"response": " ",
		"word": "na",
		"trial_type": "audio-keyboard-response",
		"trial_index": 266,
		"time_elapsed": 1981295,
		"internal_node_id": "0.0-3.0-1.213"
	},
	{
		"rt": 1291,
		"stimulus": "../audio/02-7-fem.mp3",
		"response": " ",
		"word": "garagem.",
		"trial_type": "audio-keyboard-response",
		"trial_index": 267,
		"time_elapsed": 1982911,
		"internal_node_id": "0.0-3.0-1.214"
	},
	{
		"rt": null,
		"stimulus": "<span style= \"font-size:30px; font-family: monospace\">+</span>",
		"response": null,
		"trial_part": "fixation",
		"trial_type": "html-keyboard-response",
		"trial_index": 268,
		"time_elapsed": 1984169,
		"internal_node_id": "0.0-3.0-0.215-0.215"
	},
	{
		"rt": 80,
		"stimulus": "../audio/01-1-fem.mp3",
		"response": " ",
		"word": "O",
		"trial_type": "audio-keyboard-response",
		"trial_index": 269,
		"time_elapsed": 1984615,
		"internal_node_id": "0.0-3.0-1.215"
	},
	{
		"rt": 1059,
		"stimulus": "../audio/01-2-fem.mp3",
		"response": " ",
		"word": "menino",
		"trial_type": "audio-keyboard-response",
		"trial_index": 270,
		"time_elapsed": 1985983,
		"internal_node_id": "0.0-3.0-1.216"
	},
	{
		"rt": 1112,
		"stimulus": "../audio/01-3-fem.mp3",
		"response": " ",
		"word": "derrubou",
		"trial_type": "audio-keyboard-response",
		"trial_index": 271,
		"time_elapsed": 1987407,
		"internal_node_id": "0.0-3.0-1.217"
	},
	{
		"rt": 680,
		"stimulus": "../audio/01-4-fem.mp3",
		"response": " ",
		"word": "a",
		"trial_type": "audio-keyboard-response",
		"trial_index": 272,
		"time_elapsed": 1988383,
		"internal_node_id": "0.0-3.0-1.218"
	},
	{
		"rt": 1051,
		"stimulus": "../audio/01-5-fem.mp3",
		"response": " ",
		"word": "guitarra",
		"trial_type": "audio-keyboard-response",
		"trial_index": 273,
		"time_elapsed": 1989767,
		"internal_node_id": "0.0-3.0-1.219"
	},
	{
		"rt": 899,
		"stimulus": "../audio/01-6-fem.mp3",
		"response": " ",
		"word": "no",
		"trial_type": "audio-keyboard-response",
		"trial_index": 274,
		"time_elapsed": 1990975,
		"internal_node_id": "0.0-3.0-1.220"
	},
	{
		"rt": 1008,
		"stimulus": "../audio/01-7-fem.mp3",
		"response": " ",
		"word": "chão.",
		"trial_type": "audio-keyboard-response",
		"trial_index": 275,
		"time_elapsed": 1992296,
		"internal_node_id": "0.0-3.0-1.221"
	},
	{
		"rt": null,
		"stimulus": "<span style= \"font-size:30px; font-family: monospace\">+</span>",
		"response": null,
		"trial_part": "fixation",
		"trial_type": "html-keyboard-response",
		"trial_index": 276,
		"time_elapsed": 1993567,
		"internal_node_id": "0.0-3.0-0.222-0.222"
	},
	{
		"rt": 1131,
		"stimulus": "../audio/05-1-fem.mp3",
		"response": " ",
		"word": "A",
		"trial_type": "audio-keyboard-response",
		"trial_index": 277,
		"time_elapsed": 1995071,
		"internal_node_id": "0.0-3.0-1.222"
	},
	{
		"rt": 2232,
		"stimulus": "../audio/05-2-fem.mp3",
		"response": " ",
		"word": "vendedora",
		"trial_type": "audio-keyboard-response",
		"trial_index": 278,
		"time_elapsed": 1997647,
		"internal_node_id": "0.0-3.0-1.223"
	},
	{
		"rt": 1091,
		"stimulus": "../audio/05-3-fem.mp3",
		"response": " ",
		"word": "ajudou",
		"trial_type": "audio-keyboard-response",
		"trial_index": 279,
		"time_elapsed": 1999159,
		"internal_node_id": "0.0-3.0-1.224"
	},
	{
		"rt": 851,
		"stimulus": "../audio/05-4-fem.mp3",
		"response": " ",
		"word": "um",
		"trial_type": "audio-keyboard-response",
		"trial_index": 280,
		"time_elapsed": 2000327,
		"internal_node_id": "0.0-3.0-1.225"
	},
	{
		"rt": 1019,
		"stimulus": "../audio/05-5-fem.mp3",
		"response": " ",
		"word": "turista",
		"trial_type": "audio-keyboard-response",
		"trial_index": 281,
		"time_elapsed": 2001703,
		"internal_node_id": "0.0-3.0-1.226"
	},
	{
		"rt": 912,
		"stimulus": "../audio/05-6-fem.mp3",
		"response": " ",
		"word": "na",
		"trial_type": "audio-keyboard-response",
		"trial_index": 282,
		"time_elapsed": 2002927,
		"internal_node_id": "0.0-3.0-1.227"
	},
	{
		"rt": 1149,
		"stimulus": "../audio/05-7-fem.mp3",
		"response": " ",
		"word": "loja.",
		"trial_type": "audio-keyboard-response",
		"trial_index": 283,
		"time_elapsed": 2004399,
		"internal_node_id": "0.0-3.0-1.228"
	},
	{
		"rt": 5658,
		"stimulus": "<span style=\"font-size:25px; font-family: monospace\">A vendedora ajudou um turista?</span>",
		"response": "s",
		"question": "A vendedora ajudou um turista?",
		"answer": "null",
		"trial": "exp-sent",
		"trial_type": "html-keyboard-response",
		"trial_index": 284,
		"time_elapsed": 2010311,
		"internal_node_id": "0.0-3.0-2.228-0.228",
		"accuracy": false
	},
	{
		"rt": null,
		"stimulus": "<span style= \"font-size:30px; font-family: monospace\">+</span>",
		"response": null,
		"trial_part": "fixation",
		"trial_type": "html-keyboard-response",
		"trial_index": 285,
		"time_elapsed": 2011824,
		"internal_node_id": "0.0-3.0-0.229-0.229"
	},
	{
		"rt": 1480,
		"stimulus": "../audio/34-1-fem.mp3",
		"response": " ",
		"word": "Cobrança",
		"trial_type": "audio-keyboard-response",
		"trial_index": 286,
		"time_elapsed": 2013704,
		"internal_node_id": "0.0-3.0-1.229"
	},
	{
		"rt": 1568,
		"stimulus": "../audio/34-2-fem.mp3",
		"response": " ",
		"word": "excessiva",
		"trial_type": "audio-keyboard-response",
		"trial_index": 287,
		"time_elapsed": 2015615,
		"internal_node_id": "0.0-3.0-1.230"
	},
	{
		"rt": 749,
		"stimulus": "../audio/34-3-fem.mp3",
		"response": " ",
		"word": "é",
		"trial_type": "audio-keyboard-response",
		"trial_index": 288,
		"time_elapsed": 2016671,
		"internal_node_id": "0.0-3.0-1.231"
	},
	{
		"rt": 741,
		"stimulus": "../audio/34-4-fem.mp3",
		"response": " ",
		"word": "um",
		"trial_type": "audio-keyboard-response",
		"trial_index": 289,
		"time_elapsed": 2017751,
		"internal_node_id": "0.0-3.0-1.232"
	},
	{
		"rt": 1021,
		"stimulus": "../audio/34-5-fem.mp3",
		"response": " ",
		"word": "fardo",
		"trial_type": "audio-keyboard-response",
		"trial_index": 290,
		"time_elapsed": 2019088,
		"internal_node_id": "0.0-3.0-1.233"
	},
	{
		"rt": 800,
		"stimulus": "../audio/34-6-fem.mp3",
		"response": " ",
		"word": "para",
		"trial_type": "audio-keyboard-response",
		"trial_index": 291,
		"time_elapsed": 2020191,
		"internal_node_id": "0.0-3.0-1.234"
	},
	{
		"rt": 640,
		"stimulus": "../audio/34-7-fem.mp3",
		"response": " ",
		"word": "a",
		"trial_type": "audio-keyboard-response",
		"trial_index": 292,
		"time_elapsed": 2021144,
		"internal_node_id": "0.0-3.0-1.235"
	},
	{
		"rt": 1789,
		"stimulus": "../audio/34-8-fem.mp3",
		"response": " ",
		"word": "cabeça.",
		"trial_type": "audio-keyboard-response",
		"trial_index": 293,
		"time_elapsed": 2023272,
		"internal_node_id": "0.0-3.0-1.236"
	},
	{
		"rt": null,
		"stimulus": "<span style= \"font-size:30px; font-family: monospace\">+</span>",
		"response": null,
		"trial_part": "fixation",
		"trial_type": "html-keyboard-response",
		"trial_index": 294,
		"time_elapsed": 2024543,
		"internal_node_id": "0.0-3.0-0.237-0.237"
	},
	{
		"rt": 931,
		"stimulus": "../audio/32-1-masc.mp3",
		"response": " ",
		"word": "A",
		"trial_type": "audio-keyboard-response",
		"trial_index": 295,
		"time_elapsed": 2025848,
		"internal_node_id": "0.0-3.0-1.237"
	},
	{
		"rt": 960,
		"stimulus": "../audio/32-2-masc.mp3",
		"response": " ",
		"word": "tia",
		"trial_type": "audio-keyboard-response",
		"trial_index": 296,
		"time_elapsed": 2027112,
		"internal_node_id": "0.0-3.0-1.238"
	},
	{
		"rt": 931,
		"stimulus": "../audio/32-3-masc.mp3",
		"response": " ",
		"word": "comprou",
		"trial_type": "audio-keyboard-response",
		"trial_index": 297,
		"time_elapsed": 2028344,
		"internal_node_id": "0.0-3.0-1.239"
	},
	{
		"rt": 749,
		"stimulus": "../audio/32-4-masc.mp3",
		"response": " ",
		"word": "um",
		"trial_type": "audio-keyboard-response",
		"trial_index": 298,
		"time_elapsed": 2029392,
		"internal_node_id": "0.0-3.0-1.240"
	},
	{
		"rt": 971,
		"stimulus": "../audio/32-5-masc.mp3",
		"response": " ",
		"word": "pilão",
		"trial_type": "audio-keyboard-response",
		"trial_index": 299,
		"time_elapsed": 2030672,
		"internal_node_id": "0.0-3.0-1.241"
	},
	{
		"rt": 952,
		"stimulus": "../audio/32-6-masc.mp3",
		"response": " ",
		"word": "para",
		"trial_type": "audio-keyboard-response",
		"trial_index": 300,
		"time_elapsed": 2031928,
		"internal_node_id": "0.0-3.0-1.242"
	},
	{
		"rt": 819,
		"stimulus": "../audio/32-7-masc.mp3",
		"response": " ",
		"word": "a",
		"trial_type": "audio-keyboard-response",
		"trial_index": 301,
		"time_elapsed": 2033056,
		"internal_node_id": "0.0-3.0-1.243"
	},
	{
		"rt": 1019,
		"stimulus": "../audio/32-8-masc.mp3",
		"response": " ",
		"word": "cozinha.",
		"trial_type": "audio-keyboard-response",
		"trial_index": 302,
		"time_elapsed": 2034376,
		"internal_node_id": "0.0-3.0-1.244"
	},
	{
		"rt": null,
		"stimulus": "<span style= \"font-size:30px; font-family: monospace\">+</span>",
		"response": null,
		"trial_part": "fixation",
		"trial_type": "html-keyboard-response",
		"trial_index": 303,
		"time_elapsed": 2035639,
		"internal_node_id": "0.0-3.0-0.245-0.245"
	},
	{
		"rt": 859,
		"stimulus": "../audio/33-1-fem.mp3",
		"response": " ",
		"word": "Eles",
		"trial_type": "audio-keyboard-response",
		"trial_index": 304,
		"time_elapsed": 2036896,
		"internal_node_id": "0.0-3.0-1.245"
	},
	{
		"rt": 1059,
		"stimulus": "../audio/33-2-fem.mp3",
		"response": " ",
		"word": "sabem",
		"trial_type": "audio-keyboard-response",
		"trial_index": 305,
		"time_elapsed": 2038296,
		"internal_node_id": "0.0-3.0-1.246"
	},
	{
		"rt": 800,
		"stimulus": "../audio/33-3-fem.mp3",
		"response": " ",
		"word": "do",
		"trial_type": "audio-keyboard-response",
		"trial_index": 306,
		"time_elapsed": 2039408,
		"internal_node_id": "0.0-3.0-1.247"
	},
	{
		"rt": 931,
		"stimulus": "../audio/33-4-fem.mp3",
		"response": " ",
		"word": "seu",
		"trial_type": "audio-keyboard-response",
		"trial_index": 307,
		"time_elapsed": 2040640,
		"internal_node_id": "0.0-3.0-1.248"
	},
	{
		"rt": 1600,
		"stimulus": "../audio/33-5-fem.mp3",
		"response": " ",
		"word": "privilégio",
		"trial_type": "audio-keyboard-response",
		"trial_index": 308,
		"time_elapsed": 2042584,
		"internal_node_id": "0.0-3.0-1.249"
	},
	{
		"rt": 1000,
		"stimulus": "../audio/33-6-fem.mp3",
		"response": " ",
		"word": "nessa",
		"trial_type": "audio-keyboard-response",
		"trial_index": 309,
		"time_elapsed": 2043912,
		"internal_node_id": "0.0-3.0-1.250"
	},
	{
		"rt": 1128,
		"stimulus": "../audio/33-7-fem.mp3",
		"response": " ",
		"word": "confusão.",
		"trial_type": "audio-keyboard-response",
		"trial_index": 310,
		"time_elapsed": 2045376,
		"internal_node_id": "0.0-3.0-1.251"
	},
	{
		"rt": null,
		"stimulus": "<span style= \"font-size:30px; font-family: monospace\">+</span>",
		"response": null,
		"trial_part": "fixation",
		"trial_type": "html-keyboard-response",
		"trial_index": 311,
		"time_elapsed": 2046641,
		"internal_node_id": "0.0-3.0-0.252-0.252"
	},
	{
		"rt": 768,
		"stimulus": "../audio/31-1-masc.mp3",
		"response": " ",
		"word": "O",
		"trial_type": "audio-keyboard-response",
		"trial_index": 312,
		"time_elapsed": 2047777,
		"internal_node_id": "0.0-3.0-1.252"
	},
	{
		"rt": 771,
		"stimulus": "../audio/31-2-masc.mp3",
		"response": " ",
		"word": "padeiro",
		"trial_type": "audio-keyboard-response",
		"trial_index": 313,
		"time_elapsed": 2048872,
		"internal_node_id": "0.0-3.0-1.253"
	},
	{
		"rt": 880,
		"stimulus": "../audio/31-3-masc.mp3",
		"response": " ",
		"word": "usou",
		"trial_type": "audio-keyboard-response",
		"trial_index": 314,
		"time_elapsed": 2050056,
		"internal_node_id": "0.0-3.0-1.254"
	},
	{
		"rt": 808,
		"stimulus": "../audio/31-4-masc.mp3",
		"response": " ",
		"word": "a",
		"trial_type": "audio-keyboard-response",
		"trial_index": 315,
		"time_elapsed": 2051176,
		"internal_node_id": "0.0-3.0-1.255"
	},
	{
		"rt": 1120,
		"stimulus": "../audio/31-5-masc.mp3",
		"response": " ",
		"word": "balança",
		"trial_type": "audio-keyboard-response",
		"trial_index": 316,
		"time_elapsed": 2052624,
		"internal_node_id": "0.0-3.0-1.256"
	},
	{
		"rt": 869,
		"stimulus": "../audio/31-6-masc.mp3",
		"response": " ",
		"word": "o",
		"trial_type": "audio-keyboard-response",
		"trial_index": 317,
		"time_elapsed": 2053800,
		"internal_node_id": "0.0-3.0-1.257"
	},
	{
		"rt": 1051,
		"stimulus": "../audio/31-7-masc.mp3",
		"response": " ",
		"word": "dia",
		"trial_type": "audio-keyboard-response",
		"trial_index": 318,
		"time_elapsed": 2055153,
		"internal_node_id": "0.0-3.0-1.258"
	},
	{
		"rt": 1069,
		"stimulus": "../audio/31-8-masc.mp3",
		"response": " ",
		"word": "inteiro.",
		"trial_type": "audio-keyboard-response",
		"trial_index": 319,
		"time_elapsed": 2056537,
		"internal_node_id": "0.0-3.0-1.259"
	},
	{
		"rt": null,
		"stimulus": "<span style= \"font-size:30px; font-family: monospace\">+</span>",
		"response": null,
		"trial_part": "fixation",
		"trial_type": "html-keyboard-response",
		"trial_index": 320,
		"time_elapsed": 2057795,
		"internal_node_id": "0.0-3.0-0.260-0.260"
	},
	{
		"rt": 691,
		"stimulus": "../audio/35-1-masc.mp3",
		"response": " ",
		"word": "A",
		"trial_type": "audio-keyboard-response",
		"trial_index": 321,
		"time_elapsed": 2058841,
		"internal_node_id": "0.0-3.0-1.260"
	},
	{
		"rt": 1032,
		"stimulus": "../audio/35-2-masc.mp3",
		"response": " ",
		"word": "receita",
		"trial_type": "audio-keyboard-response",
		"trial_index": 322,
		"time_elapsed": 2060209,
		"internal_node_id": "0.0-3.0-1.261"
	},
	{
		"rt": 920,
		"stimulus": "../audio/35-3-masc.mp3",
		"response": " ",
		"word": "para",
		"trial_type": "audio-keyboard-response",
		"trial_index": 323,
		"time_elapsed": 2061433,
		"internal_node_id": "0.0-3.0-1.262"
	},
	{
		"rt": 760,
		"stimulus": "../audio/35-4-masc.mp3",
		"response": " ",
		"word": "a",
		"trial_type": "audio-keyboard-response",
		"trial_index": 324,
		"time_elapsed": 2062489,
		"internal_node_id": "0.0-3.0-1.263"
	},
	{
		"rt": 1080,
		"stimulus": "../audio/35-5-masc.mp3",
		"response": " ",
		"word": "preparação",
		"trial_type": "audio-keyboard-response",
		"trial_index": 325,
		"time_elapsed": 2063905,
		"internal_node_id": "0.0-3.0-1.264"
	},
	{
		"rt": 789,
		"stimulus": "../audio/35-6-masc.mp3",
		"response": " ",
		"word": "do",
		"trial_type": "audio-keyboard-response",
		"trial_index": 326,
		"time_elapsed": 2065001,
		"internal_node_id": "0.0-3.0-1.265"
	},
	{
		"rt": 960,
		"stimulus": "../audio/35-7-masc.mp3",
		"response": " ",
		"word": "bolo",
		"trial_type": "audio-keyboard-response",
		"trial_index": 327,
		"time_elapsed": 2066265,
		"internal_node_id": "0.0-3.0-1.266"
	},
	{
		"rt": 749,
		"stimulus": "../audio/35-8-masc.mp3",
		"response": " ",
		"word": "é",
		"trial_type": "audio-keyboard-response",
		"trial_index": 328,
		"time_elapsed": 2067321,
		"internal_node_id": "0.0-3.0-1.267"
	},
	{
		"rt": 920,
		"stimulus": "../audio/35-9-masc.mp3",
		"response": " ",
		"word": "leve.",
		"trial_type": "audio-keyboard-response",
		"trial_index": 329,
		"time_elapsed": 2068537,
		"internal_node_id": "0.0-3.0-1.268"
	},
	{
		"rt": 6155,
		"stimulus": "<span style=\"font-size:25px; font-family: monospace\">A receita do bolo é pesada?</span>",
		"response": "s",
		"question": "A receita do bolo é pesada?",
		"answer": "null",
		"trial": "exp-sent",
		"trial_type": "html-keyboard-response",
		"trial_index": 330,
		"time_elapsed": 2074954,
		"internal_node_id": "0.0-3.0-2.268-0.268",
		"accuracy": false
	},
	{
		"rt": null,
		"stimulus": "<span style= \"font-size:30px; font-family: monospace\">+</span>",
		"response": null,
		"trial_part": "fixation",
		"trial_type": "html-keyboard-response",
		"trial_index": 331,
		"time_elapsed": 2076463,
		"internal_node_id": "0.0-3.0-0.269-0.269"
	},
	{
		"rt": 851,
		"stimulus": "../audio/56-1-masc.mp3",
		"response": " ",
		"word": "A",
		"trial_type": "audio-keyboard-response",
		"trial_index": 332,
		"time_elapsed": 2077674,
		"internal_node_id": "0.0-3.0-1.269"
	},
	{
		"rt": 861,
		"stimulus": "../audio/56-2-masc.mp3",
		"response": " ",
		"word": "moça",
		"trial_type": "audio-keyboard-response",
		"trial_index": 333,
		"time_elapsed": 2078842,
		"internal_node_id": "0.0-3.0-1.270"
	},
	{
		"rt": 771,
		"stimulus": "../audio/56-3-masc.mp3",
		"response": " ",
		"word": "foi",
		"trial_type": "audio-keyboard-response",
		"trial_index": 334,
		"time_elapsed": 2079914,
		"internal_node_id": "0.0-3.0-1.271"
	},
	{
		"rt": 701,
		"stimulus": "../audio/56-4-masc.mp3",
		"response": " ",
		"word": "à",
		"trial_type": "audio-keyboard-response",
		"trial_index": 335,
		"time_elapsed": 2080922,
		"internal_node_id": "0.0-3.0-1.272"
	},
	{
		"rt": 1101,
		"stimulus": "../audio/56-5-masc.mp3",
		"response": " ",
		"word": "agência",
		"trial_type": "audio-keyboard-response",
		"trial_index": 336,
		"time_elapsed": 2082362,
		"internal_node_id": "0.0-3.0-1.273"
	},
	{
		"rt": 1021,
		"stimulus": "../audio/56-6-masc.mp3",
		"response": " ",
		"word": "bancária",
		"trial_type": "audio-keyboard-response",
		"trial_index": 337,
		"time_elapsed": 2083722,
		"internal_node_id": "0.0-3.0-1.274"
	},
	{
		"rt": 821,
		"stimulus": "../audio/56-7-masc.mp3",
		"response": " ",
		"word": "ontem",
		"trial_type": "audio-keyboard-response",
		"trial_index": 338,
		"time_elapsed": 2084850,
		"internal_node_id": "0.0-3.0-1.275"
	},
	{
		"rt": 829,
		"stimulus": "../audio/56-8-masc.mp3",
		"response": " ",
		"word": "de",
		"trial_type": "audio-keyboard-response",
		"trial_index": 339,
		"time_elapsed": 2085986,
		"internal_node_id": "0.0-3.0-1.276"
	},
	{
		"rt": 960,
		"stimulus": "../audio/56-9-masc.mp3",
		"response": " ",
		"word": "tarde.",
		"trial_type": "audio-keyboard-response",
		"trial_index": 340,
		"time_elapsed": 2087258,
		"internal_node_id": "0.0-3.0-1.277"
	},
	{
		"rt": null,
		"stimulus": "<span style= \"font-size:30px; font-family: monospace\">+</span>",
		"response": null,
		"trial_part": "fixation",
		"trial_type": "html-keyboard-response",
		"trial_index": 341,
		"time_elapsed": 2088529,
		"internal_node_id": "0.0-3.0-0.278-0.278"
	},
	{
		"rt": 2189,
		"stimulus": "../audio/59-1-masc.mp3",
		"response": " ",
		"word": "O",
		"trial_type": "audio-keyboard-response",
		"trial_index": 342,
		"time_elapsed": 2091122,
		"internal_node_id": "0.0-3.0-1.278"
	},
	{
		"rt": 848,
		"stimulus": "../audio/59-2-masc.mp3",
		"response": " ",
		"word": "carteiro",
		"trial_type": "audio-keyboard-response",
		"trial_index": 343,
		"time_elapsed": 2092378,
		"internal_node_id": "0.0-3.0-1.279"
	},
	{
		"rt": 781,
		"stimulus": "../audio/59-3-masc.mp3",
		"response": " ",
		"word": "fez",
		"trial_type": "audio-keyboard-response",
		"trial_index": 344,
		"time_elapsed": 2093482,
		"internal_node_id": "0.0-3.0-1.280"
	},
	{
		"rt": 781,
		"stimulus": "../audio/59-4-masc.mp3",
		"response": " ",
		"word": "uma",
		"trial_type": "audio-keyboard-response",
		"trial_index": 345,
		"time_elapsed": 2094570,
		"internal_node_id": "0.0-3.0-1.281"
	},
	{
		"rt": 1200,
		"stimulus": "../audio/59-5-masc.mp3",
		"response": " ",
		"word": "tentativa",
		"trial_type": "audio-keyboard-response",
		"trial_index": 346,
		"time_elapsed": 2096107,
		"internal_node_id": "0.0-3.0-1.282"
	},
	{
		"rt": 789,
		"stimulus": "../audio/59-6-masc.mp3",
		"response": " ",
		"word": "de",
		"trial_type": "audio-keyboard-response",
		"trial_index": 347,
		"time_elapsed": 2097202,
		"internal_node_id": "0.0-3.0-1.283"
	},
	{
		"rt": 2931,
		"stimulus": "../audio/59-7-masc.mp3",
		"response": " ",
		"word": "entrega.",
		"trial_type": "audio-keyboard-response",
		"trial_index": 348,
		"time_elapsed": 2100434,
		"internal_node_id": "0.0-3.0-1.284"
	},
	{
		"rt": null,
		"stimulus": "<span style= \"font-size:30px; font-family: monospace\">+</span>",
		"response": null,
		"trial_part": "fixation",
		"trial_type": "html-keyboard-response",
		"trial_index": 349,
		"time_elapsed": 2101703,
		"internal_node_id": "0.0-3.0-0.285-0.285"
	},
	{
		"rt": 1291,
		"stimulus": "../audio/58-1-fem.mp3",
		"response": " ",
		"word": "Havia",
		"trial_type": "audio-keyboard-response",
		"trial_index": 350,
		"time_elapsed": 2103627,
		"internal_node_id": "0.0-3.0-1.285"
	},
	{
		"rt": 920,
		"stimulus": "../audio/58-2-fem.mp3",
		"response": " ",
		"word": "apenas",
		"trial_type": "audio-keyboard-response",
		"trial_index": 351,
		"time_elapsed": 2104875,
		"internal_node_id": "0.0-3.0-1.286"
	},
	{
		"rt": 680,
		"stimulus": "../audio/58-3-fem.mp3",
		"response": " ",
		"word": "um",
		"trial_type": "audio-keyboard-response",
		"trial_index": 352,
		"time_elapsed": 2105859,
		"internal_node_id": "0.0-3.0-1.287"
	},
	{
		"rt": 648,
		"stimulus": "../audio/58-4-fem.mp3",
		"response": " ",
		"word": "último",
		"trial_type": "audio-keyboard-response",
		"trial_index": 353,
		"time_elapsed": 2106819,
		"internal_node_id": "0.0-3.0-1.288"
	},
	{
		"rt": 1011,
		"stimulus": "../audio/58-5-fem.mp3",
		"response": " ",
		"word": "herdeiro",
		"trial_type": "audio-keyboard-response",
		"trial_index": 354,
		"time_elapsed": 2108131,
		"internal_node_id": "0.0-3.0-1.289"
	},
	{
		"rt": 741,
		"stimulus": "../audio/58-6-fem.mp3",
		"response": " ",
		"word": "do",
		"trial_type": "audio-keyboard-response",
		"trial_index": 355,
		"time_elapsed": 2109171,
		"internal_node_id": "0.0-3.0-1.290"
	},
	{
		"rt": 771,
		"stimulus": "../audio/58-7-fem.mp3",
		"response": " ",
		"word": "dinheiro.",
		"trial_type": "audio-keyboard-response",
		"trial_index": 356,
		"time_elapsed": 2110275,
		"internal_node_id": "0.0-3.0-1.291"
	},
	{
		"rt": null,
		"stimulus": "<span style= \"font-size:30px; font-family: monospace\">+</span>",
		"response": null,
		"trial_part": "fixation",
		"trial_type": "html-keyboard-response",
		"trial_index": 357,
		"time_elapsed": 2111528,
		"internal_node_id": "0.0-3.0-0.292-0.292"
	},
	{
		"rt": 672,
		"stimulus": "../audio/57-1-masc.mp3",
		"response": " ",
		"word": "O",
		"trial_type": "audio-keyboard-response",
		"trial_index": 358,
		"time_elapsed": 2112571,
		"internal_node_id": "0.0-3.0-1.292"
	},
	{
		"rt": 949,
		"stimulus": "../audio/57-2-masc.mp3",
		"response": " ",
		"word": "capitão",
		"trial_type": "audio-keyboard-response",
		"trial_index": 359,
		"time_elapsed": 2113827,
		"internal_node_id": "0.0-3.0-1.293"
	},
	{
		"rt": 731,
		"stimulus": "../audio/57-3-masc.mp3",
		"response": " ",
		"word": "deu",
		"trial_type": "audio-keyboard-response",
		"trial_index": 360,
		"time_elapsed": 2114867,
		"internal_node_id": "0.0-3.0-1.294"
	},
	{
		"rt": 720,
		"stimulus": "../audio/57-4-masc.mp3",
		"response": " ",
		"word": "uma",
		"trial_type": "audio-keyboard-response",
		"trial_index": 361,
		"time_elapsed": 2115891,
		"internal_node_id": "0.0-3.0-1.295"
	},
	{
		"rt": 661,
		"stimulus": "../audio/57-5-masc.mp3",
		"response": " ",
		"word": "instrução",
		"trial_type": "audio-keyboard-response",
		"trial_index": 362,
		"time_elapsed": 2116883,
		"internal_node_id": "0.0-3.0-1.296"
	},
	{
		"rt": 691,
		"stimulus": "../audio/57-6-masc.mp3",
		"response": " ",
		"word": "para",
		"trial_type": "audio-keyboard-response",
		"trial_index": 363,
		"time_elapsed": 2117891,
		"internal_node_id": "0.0-3.0-1.297"
	},
	{
		"rt": 840,
		"stimulus": "../audio/57-7-masc.mp3",
		"response": " ",
		"word": "as",
		"trial_type": "audio-keyboard-response",
		"trial_index": 364,
		"time_elapsed": 2119043,
		"internal_node_id": "0.0-3.0-1.298"
	},
	{
		"rt": 1811,
		"stimulus": "../audio/57-8-masc.mp3",
		"response": " ",
		"word": "pessoas.",
		"trial_type": "audio-keyboard-response",
		"trial_index": 365,
		"time_elapsed": 2121187,
		"internal_node_id": "0.0-3.0-1.299"
	},
	{
		"rt": null,
		"stimulus": "<span style= \"font-size:30px; font-family: monospace\">+</span>",
		"response": null,
		"trial_part": "fixation",
		"trial_type": "html-keyboard-response",
		"trial_index": 366,
		"time_elapsed": 2122455,
		"internal_node_id": "0.0-3.0-0.300-0.300"
	},
	{
		"rt": 1040,
		"stimulus": "../audio/60-1-masc.mp3",
		"response": " ",
		"word": "Ondas",
		"trial_type": "audio-keyboard-response",
		"trial_index": 367,
		"time_elapsed": 2123851,
		"internal_node_id": "0.0-3.0-1.300"
	},
	{
		"rt": 739,
		"stimulus": "../audio/60-2-masc.mp3",
		"response": " ",
		"word": "têm",
		"trial_type": "audio-keyboard-response",
		"trial_index": 368,
		"time_elapsed": 2124899,
		"internal_node_id": "0.0-3.0-1.301"
	},
	{
		"rt": 688,
		"stimulus": "../audio/60-3-masc.mp3",
		"response": " ",
		"word": "um",
		"trial_type": "audio-keyboard-response",
		"trial_index": 369,
		"time_elapsed": 2125899,
		"internal_node_id": "0.0-3.0-1.302"
	},
	{
		"rt": 680,
		"stimulus": "../audio/60-4-masc.mp3",
		"response": " ",
		"word": "impacto",
		"trial_type": "audio-keyboard-response",
		"trial_index": 370,
		"time_elapsed": 2126907,
		"internal_node_id": "0.0-3.0-1.303"
	},
	{
		"rt": 901,
		"stimulus": "../audio/60-5-masc.mp3",
		"response": " ",
		"word": "destrutivo",
		"trial_type": "audio-keyboard-response",
		"trial_index": 371,
		"time_elapsed": 2128131,
		"internal_node_id": "0.0-3.0-1.304"
	},
	{
		"rt": 811,
		"stimulus": "../audio/60-6-masc.mp3",
		"response": " ",
		"word": "no",
		"trial_type": "audio-keyboard-response",
		"trial_index": 372,
		"time_elapsed": 2129251,
		"internal_node_id": "0.0-3.0-1.305"
	},
	{
		"rt": 571,
		"stimulus": "../audio/60-7-masc.mp3",
		"response": " ",
		"word": "litoral.",
		"trial_type": "audio-keyboard-response",
		"trial_index": 373,
		"time_elapsed": 2130147,
		"internal_node_id": "0.0-3.0-1.306"
	},
	{
		"rt": 19669,
		"stimulus": "<span style=\"font-size:25px; font-family: monospace\">Ondas têm um impacto destrutivo?</span>",
		"response": "s",
		"question": "Ondas têm um impacto destrutivo?",
		"answer": "null",
		"trial": "exp-sent",
		"trial_type": "html-keyboard-response",
		"trial_index": 374,
		"time_elapsed": 2150068,
		"internal_node_id": "0.0-3.0-2.306-0.306",
		"accuracy": false
	},
	{
		"rt": null,
		"stimulus": "<span style= \"font-size:30px; font-family: monospace\">+</span>",
		"response": null,
		"trial_part": "fixation",
		"trial_type": "html-keyboard-response",
		"trial_index": 375,
		"time_elapsed": 2151576,
		"internal_node_id": "0.0-3.0-0.307-0.307"
	},
	{
		"rt": 1120,
		"stimulus": "../audio/06-1-fem.mp3",
		"response": " ",
		"word": "Ouvimos",
		"trial_type": "audio-keyboard-response",
		"trial_index": 376,
		"time_elapsed": 2153132,
		"internal_node_id": "0.0-3.0-1.307"
	},
	{
		"rt": 579,
		"stimulus": "../audio/06-2-fem.mp3",
		"response": " ",
		"word": "a",
		"trial_type": "audio-keyboard-response",
		"trial_index": 377,
		"time_elapsed": 2154019,
		"internal_node_id": "0.0-3.0-1.308"
	},
	{
		"rt": 568,
		"stimulus": "../audio/06-3-fem.mp3",
		"response": " ",
		"word": "fala",
		"trial_type": "audio-keyboard-response",
		"trial_index": 378,
		"time_elapsed": 2154900,
		"internal_node_id": "0.0-3.0-1.309"
	},
	{
		"rt": 619,
		"stimulus": "../audio/06-4-fem.mp3",
		"response": " ",
		"word": "do",
		"trial_type": "audio-keyboard-response",
		"trial_index": 379,
		"time_elapsed": 2155820,
		"internal_node_id": "0.0-3.0-1.310"
	},
	{
		"rt": 1019,
		"stimulus": "../audio/06-5-fem.mp3",
		"response": " ",
		"word": "profeta",
		"trial_type": "audio-keyboard-response",
		"trial_index": 380,
		"time_elapsed": 2157180,
		"internal_node_id": "0.0-3.0-1.311"
	},
	{
		"rt": 1891,
		"stimulus": "../audio/06-6-fem.mp3",
		"response": " ",
		"word": "no",
		"trial_type": "audio-keyboard-response",
		"trial_index": 381,
		"time_elapsed": 2159372,
		"internal_node_id": "0.0-3.0-1.312"
	},
	{
		"rt": 872,
		"stimulus": "../audio/06-7-fem.mp3",
		"response": " ",
		"word": "púlpito",
		"trial_type": "audio-keyboard-response",
		"trial_index": 382,
		"time_elapsed": 2160612,
		"internal_node_id": "0.0-3.0-1.313"
	},
	{
		"rt": 709,
		"stimulus": "../audio/06-8-fem.mp3",
		"response": " ",
		"word": "da",
		"trial_type": "audio-keyboard-response",
		"trial_index": 383,
		"time_elapsed": 2161628,
		"internal_node_id": "0.0-3.0-1.314"
	},
	{
		"rt": 568,
		"stimulus": "../audio/06-9-fem.mp3",
		"response": " ",
		"word": "igreja.",
		"trial_type": "audio-keyboard-response",
		"trial_index": 384,
		"time_elapsed": 2162540,
		"internal_node_id": "0.0-3.0-1.315"
	},
	{
		"rt": null,
		"stimulus": "<span style= \"font-size:30px; font-family: monospace\">+</span>",
		"response": null,
		"trial_part": "fixation",
		"trial_type": "html-keyboard-response",
		"trial_index": 385,
		"time_elapsed": 2163808,
		"internal_node_id": "0.0-3.0-0.316-0.316"
	},
	{
		"rt": 659,
		"stimulus": "../audio/09-1-fem.mp3",
		"response": " ",
		"word": "O",
		"trial_type": "audio-keyboard-response",
		"trial_index": 386,
		"time_elapsed": 2164828,
		"internal_node_id": "0.0-3.0-1.316"
	},
	{
		"rt": 1080,
		"stimulus": "../audio/09-2-fem.mp3",
		"response": " ",
		"word": "rapaz",
		"trial_type": "audio-keyboard-response",
		"trial_index": 387,
		"time_elapsed": 2166252,
		"internal_node_id": "0.0-3.0-1.317"
	},
	{
		"rt": 891,
		"stimulus": "../audio/09-3-fem.mp3",
		"response": " ",
		"word": "limpou",
		"trial_type": "audio-keyboard-response",
		"trial_index": 388,
		"time_elapsed": 2167444,
		"internal_node_id": "0.0-3.0-1.318"
	},
	{
		"rt": 560,
		"stimulus": "../audio/09-4-fem.mp3",
		"response": " ",
		"word": "o",
		"trial_type": "audio-keyboard-response",
		"trial_index": 389,
		"time_elapsed": 2168308,
		"internal_node_id": "0.0-3.0-1.319"
	},
	{
		"rt": 1029,
		"stimulus": "../audio/09-5-fem.mp3",
		"response": " ",
		"word": "terreno",
		"trial_type": "audio-keyboard-response",
		"trial_index": 390,
		"time_elapsed": 2169644,
		"internal_node_id": "0.0-3.0-1.320"
	},
	{
		"rt": 611,
		"stimulus": "../audio/09-6-fem.mp3",
		"response": " ",
		"word": "com",
		"trial_type": "audio-keyboard-response",
		"trial_index": 391,
		"time_elapsed": 2170564,
		"internal_node_id": "0.0-3.0-1.321"
	},
	{
		"rt": 560,
		"stimulus": "../audio/09-7-fem.mp3",
		"response": " ",
		"word": "uma",
		"trial_type": "audio-keyboard-response",
		"trial_index": 392,
		"time_elapsed": 2171436,
		"internal_node_id": "0.0-3.0-1.322"
	},
	{
		"rt": 920,
		"stimulus": "../audio/09-8-fem.mp3",
		"response": " ",
		"word": "pá.",
		"trial_type": "audio-keyboard-response",
		"trial_index": 393,
		"time_elapsed": 2172660,
		"internal_node_id": "0.0-3.0-1.323"
	},
	{
		"rt": null,
		"stimulus": "<span style= \"font-size:30px; font-family: monospace\">+</span>",
		"response": null,
		"trial_part": "fixation",
		"trial_type": "html-keyboard-response",
		"trial_index": 394,
		"time_elapsed": 2173926,
		"internal_node_id": "0.0-3.0-0.324-0.324"
	},
	{
		"rt": 589,
		"stimulus": "../audio/08-1-fem.mp3",
		"response": " ",
		"word": "A",
		"trial_type": "audio-keyboard-response",
		"trial_index": 395,
		"time_elapsed": 2174884,
		"internal_node_id": "0.0-3.0-1.324"
	},
	{
		"rt": 792,
		"stimulus": "../audio/08-2-fem.mp3",
		"response": " ",
		"word": "receita",
		"trial_type": "audio-keyboard-response",
		"trial_index": 396,
		"time_elapsed": 2176012,
		"internal_node_id": "0.0-3.0-1.325"
	},
	{
		"rt": 640,
		"stimulus": "../audio/08-3-fem.mp3",
		"response": " ",
		"word": "pede",
		"trial_type": "audio-keyboard-response",
		"trial_index": 397,
		"time_elapsed": 2176956,
		"internal_node_id": "0.0-3.0-1.326"
	},
	{
		"rt": 701,
		"stimulus": "../audio/08-4-fem.mp3",
		"response": " ",
		"word": "um",
		"trial_type": "audio-keyboard-response",
		"trial_index": 398,
		"time_elapsed": 2177965,
		"internal_node_id": "0.0-3.0-1.327"
	},
	{
		"rt": 741,
		"stimulus": "../audio/08-5-fem.mp3",
		"response": " ",
		"word": "litro",
		"trial_type": "audio-keyboard-response",
		"trial_index": 399,
		"time_elapsed": 2178997,
		"internal_node_id": "0.0-3.0-1.328"
	},
	{
		"rt": 672,
		"stimulus": "../audio/08-6-fem.mp3",
		"response": " ",
		"word": "de",
		"trial_type": "audio-keyboard-response",
		"trial_index": 400,
		"time_elapsed": 2179973,
		"internal_node_id": "0.0-3.0-1.329"
	},
	{
		"rt": 811,
		"stimulus": "../audio/08-7-fem.mp3",
		"response": " ",
		"word": "leite",
		"trial_type": "audio-keyboard-response",
		"trial_index": 401,
		"time_elapsed": 2181077,
		"internal_node_id": "0.0-3.0-1.330"
	},
	{
		"rt": 1221,
		"stimulus": "../audio/08-8-fem.mp3",
		"response": " ",
		"word": "integral.",
		"trial_type": "audio-keyboard-response",
		"trial_index": 402,
		"time_elapsed": 2182637,
		"internal_node_id": "0.0-3.0-1.331"
	},
	{
		"rt": null,
		"stimulus": "<span style= \"font-size:30px; font-family: monospace\">+</span>",
		"response": null,
		"trial_part": "fixation",
		"trial_type": "html-keyboard-response",
		"trial_index": 403,
		"time_elapsed": 2183906,
		"internal_node_id": "0.0-3.0-0.332-0.332"
	},
	{
		"rt": 949,
		"stimulus": "../audio/07-1-fem.mp3",
		"response": " ",
		"word": "Meu",
		"trial_type": "audio-keyboard-response",
		"trial_index": 404,
		"time_elapsed": 2185221,
		"internal_node_id": "0.0-3.0-1.332"
	},
	{
		"rt": 829,
		"stimulus": "../audio/07-2-fem.mp3",
		"response": " ",
		"word": "filho",
		"trial_type": "audio-keyboard-response",
		"trial_index": 405,
		"time_elapsed": 2186357,
		"internal_node_id": "0.0-3.0-1.333"
	},
	{
		"rt": 821,
		"stimulus": "../audio/07-3-fem.mp3",
		"response": " ",
		"word": "é",
		"trial_type": "audio-keyboard-response",
		"trial_index": 406,
		"time_elapsed": 2187485,
		"internal_node_id": "0.0-3.0-1.334"
	},
	{
		"rt": 880,
		"stimulus": "../audio/07-4-fem.mp3",
		"response": " ",
		"word": "muito",
		"trial_type": "audio-keyboard-response",
		"trial_index": 407,
		"time_elapsed": 2188669,
		"internal_node_id": "0.0-3.0-1.335"
	},
	{
		"rt": 1600,
		"stimulus": "../audio/07-5-fem.mp3",
		"response": " ",
		"word": "responsável",
		"trial_type": "audio-keyboard-response",
		"trial_index": 408,
		"time_elapsed": 2190621,
		"internal_node_id": "0.0-3.0-1.336"
	},
	{
		"rt": 1008,
		"stimulus": "../audio/07-6-fem.mp3",
		"response": " ",
		"word": "nos",
		"trial_type": "audio-keyboard-response",
		"trial_index": 409,
		"time_elapsed": 2191941,
		"internal_node_id": "0.0-3.0-1.337"
	},
	{
		"rt": 1251,
		"stimulus": "../audio/07-7-fem.mp3",
		"response": " ",
		"word": "estudos.",
		"trial_type": "audio-keyboard-response",
		"trial_index": 410,
		"time_elapsed": 2193533,
		"internal_node_id": "0.0-3.0-1.338"
	},
	{
		"rt": null,
		"stimulus": "<span style= \"font-size:30px; font-family: monospace\">+</span>",
		"response": null,
		"trial_part": "fixation",
		"trial_type": "html-keyboard-response",
		"trial_index": 411,
		"time_elapsed": 2194795,
		"internal_node_id": "0.0-3.0-0.339-0.339"
	},
	{
		"rt": 680,
		"stimulus": "../audio/10-1-fem.mp3",
		"response": " ",
		"word": "O",
		"trial_type": "audio-keyboard-response",
		"trial_index": 412,
		"time_elapsed": 2195845,
		"internal_node_id": "0.0-3.0-1.339"
	},
	{
		"rt": 851,
		"stimulus": "../audio/10-2-fem.mp3",
		"response": " ",
		"word": "pássaro",
		"trial_type": "audio-keyboard-response",
		"trial_index": 413,
		"time_elapsed": 2197029,
		"internal_node_id": "0.0-3.0-1.340"
	},
	{
		"rt": 901,
		"stimulus": "../audio/10-3-fem.mp3",
		"response": " ",
		"word": "azul",
		"trial_type": "audio-keyboard-response",
		"trial_index": 414,
		"time_elapsed": 2198237,
		"internal_node_id": "0.0-3.0-1.341"
	},
	{
		"rt": 829,
		"stimulus": "../audio/10-4-fem.mp3",
		"response": " ",
		"word": "estava",
		"trial_type": "audio-keyboard-response",
		"trial_index": 415,
		"time_elapsed": 2199397,
		"internal_node_id": "0.0-3.0-1.342"
	},
	{
		"rt": 1040,
		"stimulus": "../audio/10-5-fem.mp3",
		"response": " ",
		"word": "vivo",
		"trial_type": "audio-keyboard-response",
		"trial_index": 416,
		"time_elapsed": 2200741,
		"internal_node_id": "0.0-3.0-1.343"
	},
	{
		"rt": 848,
		"stimulus": "../audio/10-6-fem.mp3",
		"response": " ",
		"word": "e",
		"trial_type": "audio-keyboard-response",
		"trial_index": 417,
		"time_elapsed": 2201901,
		"internal_node_id": "0.0-3.0-1.344"
	},
	{
		"rt": 669,
		"stimulus": "../audio/10-7-fem.mp3",
		"response": " ",
		"word": "em",
		"trial_type": "audio-keyboard-response",
		"trial_index": 418,
		"time_elapsed": 2202885,
		"internal_node_id": "0.0-3.0-1.345"
	},
	{
		"rt": 989,
		"stimulus": "../audio/10-8-fem.mp3",
		"response": " ",
		"word": "segurança.",
		"trial_type": "audio-keyboard-response",
		"trial_index": 419,
		"time_elapsed": 2204221,
		"internal_node_id": "0.0-3.0-1.346"
	},
	{
		"rt": 7420,
		"stimulus": "<span style=\"font-size:25px; font-family: monospace\">O pássaro vermelho estava em segurança?</span>",
		"response": "s",
		"question": "O pássaro vermelho estava em segurança?",
		"answer": "null",
		"trial": "exp-sent",
		"trial_type": "html-keyboard-response",
		"trial_index": 420,
		"time_elapsed": 2211894,
		"internal_node_id": "0.0-3.0-2.346-0.346",
		"accuracy": false
	},
	{
		"rt": null,
		"stimulus": "<span style= \"font-size:30px; font-family: monospace\">+</span>",
