[
	{
		"view_history": [
			{
				"page_index": 0,
				"viewing_time": 3323
			},
			{
				"page_index": 1,
				"viewing_time": 3272
			}
		],
		"rt": 6596,
		"trial_type": "instructions",
		"trial_index": 0,
		"time_elapsed": 6599,
		"internal_node_id": "0.0-0.0"
	},
	{
		"rt": null,
		"stimulus": "<span style= \"font-size:30px; font-family: monospace\">+</span>",
		"response": null,
		"trial_part": "fixation",
		"trial_type": "html-keyboard-response",
		"trial_index": 1,
		"time_elapsed": 7715,
		"internal_node_id": "0.0-1.0-0.0-0.0"
	},
	{
		"rt": 2957,
		"stimulus": "<span style=\"font-size:30px; font-family: monospace\">O</span>",
		"response": " ",
		"trial": "prac-sent",
		"word": "O",
		"trial_type": "html-keyboard-response",
		"trial_index": 2,
		"time_elapsed": 10925,
		"internal_node_id": "0.0-1.0-1.0"
	},
	{
		"rt": 2774,
		"stimulus": "<span style=\"font-size:30px; font-family: monospace\">dia</span>",
		"response": " ",
		"trial": "prac-sent",
		"word": "dia",
		"trial_type": "html-keyboard-response",
		"trial_index": 3,
		"time_elapsed": 13963,
		"internal_node_id": "0.0-1.0-1.1"
	},
	{
		"rt": 1285,
		"stimulus": "<span style=\"font-size:30px; font-family: monospace\">estará</span>",
		"response": " ",
		"trial": "prac-sent",
		"word": "estará",
		"trial_type": "html-keyboard-response",
		"trial_index": 4,
		"time_elapsed": 15507,
		"internal_node_id": "0.0-1.0-1.2"
	},
	{
		"rt": 953,
		"stimulus": "<span style=\"font-size:30px; font-family: monospace\">cheio</span>",
		"response": " ",
		"trial": "prac-sent",
		"word": "cheio",
		"trial_type": "html-keyboard-response",
		"trial_index": 5,
		"time_elapsed": 16715,
		"internal_node_id": "0.0-1.0-1.3"
	},
	{
		"rt": 891,
		"stimulus": "<span style=\"font-size:30px; font-family: monospace\">de</span>",
		"response": " ",
		"trial": "prac-sent",
		"word": "de",
		"trial_type": "html-keyboard-response",
		"trial_index": 6,
		"time_elapsed": 17867,
		"internal_node_id": "0.0-1.0-1.4"
	},
	{
		"rt": 3063,
		"stimulus": "<span style=\"font-size:30px; font-family: monospace\">nuvens</span>",
		"response": " ",
		"trial": "prac-sent",
		"word": "nuvens",
		"trial_type": "html-keyboard-response",
		"trial_index": 7,
		"time_elapsed": 21188,
		"internal_node_id": "0.0-1.0-1.5"
	},
	{
		"rt": 1003,
		"stimulus": "<span style=\"font-size:30px; font-family: monospace\">hoje.</span>",
		"response": " ",
		"trial": "prac-sent",
		"word": "hoje.",
		"trial_type": "html-keyboard-response",
		"trial_index": 8,
		"time_elapsed": 22444,
		"internal_node_id": "0.0-1.0-1.6"
	},
	{
		"rt": null,
		"stimulus": "<span style= \"font-size:30px; font-family: monospace\">+</span>",
		"response": null,
		"trial_part": "fixation",
		"trial_type": "html-keyboard-response",
		"trial_index": 9,
		"time_elapsed": 23708,
		"internal_node_id": "0.0-1.0-0.7-0.7"
	},
	{
		"rt": 943,
		"stimulus": "<span style=\"font-size:30px; font-family: monospace\">A</span>",
		"response": " ",
		"trial": "prac-sent",
		"word": "A",
		"trial_type": "html-keyboard-response",
		"trial_index": 10,
		"time_elapsed": 24908,
		"internal_node_id": "0.0-1.0-1.7"
	},
	{
		"rt": 1339,
		"stimulus": "<span style=\"font-size:30px; font-family: monospace\">caneca</span>",
		"response": " ",
		"trial": "prac-sent",
		"word": "caneca",
		"trial_type": "html-keyboard-response",
		"trial_index": 11,
		"time_elapsed": 26500,
		"internal_node_id": "0.0-1.0-1.8"
	},
	{
		"rt": 910,
		"stimulus": "<span style=\"font-size:30px; font-family: monospace\">colorida</span>",
		"response": " ",
		"trial": "prac-sent",
		"word": "colorida",
		"trial_type": "html-keyboard-response",
		"trial_index": 12,
		"time_elapsed": 27668,
		"internal_node_id": "0.0-1.0-1.9"
	},
	{
		"rt": 1272,
		"stimulus": "<span style=\"font-size:30px; font-family: monospace\">caiu</span>",
		"response": " ",
		"trial": "prac-sent",
		"word": "caiu",
		"trial_type": "html-keyboard-response",
		"trial_index": 13,
		"time_elapsed": 29196,
		"internal_node_id": "0.0-1.0-1.10"
	},
	{
		"rt": 860,
		"stimulus": "<span style=\"font-size:30px; font-family: monospace\">da</span>",
		"response": " ",
		"trial": "prac-sent",
		"word": "da",
		"trial_type": "html-keyboard-response",
		"trial_index": 14,
		"time_elapsed": 30316,
		"internal_node_id": "0.0-1.0-1.11"
	},
	{
		"rt": 980,
		"stimulus": "<span style=\"font-size:30px; font-family: monospace\">mesa</span>",
		"response": " ",
		"trial": "prac-sent",
		"word": "mesa",
		"trial_type": "html-keyboard-response",
		"trial_index": 15,
		"time_elapsed": 31548,
		"internal_node_id": "0.0-1.0-1.12"
	},
	{
		"rt": 868,
		"stimulus": "<span style=\"font-size:30px; font-family: monospace\">de</span>",
		"response": " ",
		"trial": "prac-sent",
		"word": "de",
		"trial_type": "html-keyboard-response",
		"trial_index": 16,
		"time_elapsed": 32668,
		"internal_node_id": "0.0-1.0-1.13"
	},
	{
		"rt": 1084,
		"stimulus": "<span style=\"font-size:30px; font-family: monospace\">jantar.</span>",
		"response": " ",
		"trial": "prac-comp",
		"word": "jantar.",
		"trial_type": "html-keyboard-response",
		"trial_index": 17,
		"time_elapsed": 34004,
		"internal_node_id": "0.0-1.0-1.14"
	},
	{
		"rt": 8844,
		"stimulus": "<span style=\"font-size:30px; font-family: monospace\">A caneca permaneceu na mesa?</span>",
		"response": "s",
		"question": "A caneca permaneceu na mesa?",
		"answer": "não",
		"trial": "prac-comp",
		"trial_type": "html-keyboard-response",
		"trial_index": 18,
		"time_elapsed": 43100,
		"internal_node_id": "0.0-1.0-2.14-0.14",
		"accuracy": false
	},
	{
		"view_history": [
			{
				"page_index": 0,
				"viewing_time": 7261
			}
		],
		"rt": 7261,
		"trial_type": "instructions",
		"trial_index": 19,
		"time_elapsed": 50863,
		"internal_node_id": "0.0-2.0"
	},
	{
		"rt": null,
		"stimulus": "<span style= \"font-size:30px; font-family: monospace\">+</span>",
		"response": null,
		"trial_part": "fixation",
		"trial_type": "html-keyboard-response",
		"trial_index": 20,
		"time_elapsed": 51966,
		"internal_node_id": "0.0-3.0-0.0-0.0"
	},
	{
		"rt": 3531,
		"stimulus": "<span style=\"font-size:30px; font-family: monospace\">Eu</span>",
		"response": " ",
		"trial": "exp-sent",
		"word": "Eu",
		"trial_type": "html-keyboard-response",
		"trial_index": 21,
		"time_elapsed": 55749,
		"internal_node_id": "0.0-3.0-1.0"
	},
	{
		"rt": 596,
		"stimulus": "<span style=\"font-size:30px; font-family: monospace\">gosto</span>",
		"response": " ",
		"trial": "exp-sent",
		"word": "gosto",
		"trial_type": "html-keyboard-response",
		"trial_index": 22,
		"time_elapsed": 56597,
		"internal_node_id": "0.0-3.0-1.1"
	},
	{
		"rt": 596,
		"stimulus": "<span style=\"font-size:30px; font-family: monospace\">de</span>",
		"response": " ",
		"trial": "exp-sent",
		"word": "de",
		"trial_type": "html-keyboard-response",
		"trial_index": 23,
		"time_elapsed": 57445,
		"internal_node_id": "0.0-3.0-1.2"
	},
	{
		"rt": 979,
		"stimulus": "<span style=\"font-size:30px; font-family: monospace\">molho</span>",
		"response": " ",
		"trial": "exp-sent",
		"word": "molho",
		"trial_type": "html-keyboard-response",
		"trial_index": 24,
		"time_elapsed": 58677,
		"internal_node_id": "0.0-3.0-1.3"
	},
	{
		"rt": 852,
		"stimulus": "<span style=\"font-size:30px; font-family: monospace\">picante</span>",
		"response": " ",
		"trial": "exp-sent",
		"word": "picante",
		"trial_type": "html-keyboard-response",
		"trial_index": 25,
		"time_elapsed": 59781,
		"internal_node_id": "0.0-3.0-1.4"
	},
	{
		"rt": 884,
		"stimulus": "<span style=\"font-size:30px; font-family: monospace\">nas</span>",
		"response": " ",
		"trial": "exp-sent",
		"word": "nas",
		"trial_type": "html-keyboard-response",
		"trial_index": 26,
		"time_elapsed": 60917,
		"internal_node_id": "0.0-3.0-1.5"
	},
	{
		"rt": 1324,
		"stimulus": "<span style=\"font-size:30px; font-family: monospace\">batatas.</span>",
		"response": " ",
		"trial": "exp-sent",
		"word": "batatas.",
		"trial_type": "html-keyboard-response",
		"trial_index": 27,
		"time_elapsed": 62494,
		"internal_node_id": "0.0-3.0-1.6"
	},
	{
		"rt": null,
		"stimulus": "<span style= \"font-size:30px; font-family: monospace\">+</span>",
		"response": null,
		"trial_part": "fixation",
		"trial_type": "html-keyboard-response",
		"trial_index": 28,
		"time_elapsed": 63747,
		"internal_node_id": "0.0-3.0-0.7-0.7"
	},
	{
		"rt": 783,
		"stimulus": "<span style=\"font-size:30px; font-family: monospace\">As</span>",
		"response": " ",
		"trial": "exp-sent",
		"word": "As",
		"trial_type": "html-keyboard-response",
		"trial_index": 29,
		"time_elapsed": 64781,
		"internal_node_id": "0.0-3.0-1.7"
	},
	{
		"rt": 853,
		"stimulus": "<span style=\"font-size:30px; font-family: monospace\">pessoas</span>",
		"response": " ",
		"trial": "exp-sent",
		"word": "pessoas",
		"trial_type": "html-keyboard-response",
		"trial_index": 30,
		"time_elapsed": 65886,
		"internal_node_id": "0.0-3.0-1.8"
	},
	{
		"rt": 747,
		"stimulus": "<span style=\"font-size:30px; font-family: monospace\">têm</span>",
		"response": " ",
		"trial": "exp-sent",
		"word": "têm",
		"trial_type": "html-keyboard-response",
		"trial_index": 31,
		"time_elapsed": 66886,
		"internal_node_id": "0.0-3.0-1.9"
	},
	{
		"rt": 724,
		"stimulus": "<span style=\"font-size:30px; font-family: monospace\">sua</span>",
		"response": " ",
		"trial": "exp-sent",
		"word": "sua",
		"trial_type": "html-keyboard-response",
		"trial_index": 32,
		"time_elapsed": 67862,
		"internal_node_id": "0.0-3.0-1.10"
	},
	{
		"rt": 27261,
		"stimulus": "<span style=\"font-size:30px; font-family: monospace\">liberdade</span>",
		"response": " ",
		"trial": "exp-sent",
		"word": "liberdade",
		"trial_type": "html-keyboard-response",
		"trial_index": 33,
		"time_elapsed": 95375,
		"internal_node_id": "0.0-3.0-1.11"
	},
	{
		"rt": 1572,
		"stimulus": "<span style=\"font-size:30px; font-family: monospace\">até</span>",
		"response": " ",
		"trial": "exp-sent",
		"word": "até",
		"trial_type": "html-keyboard-response",
		"trial_index": 34,
		"time_elapsed": 97198,
		"internal_node_id": "0.0-3.0-1.12"
	},
	{
		"rt": 580,
		"stimulus": "<span style=\"font-size:30px; font-family: monospace\">certo</span>",
		"response": " ",
		"trial": "exp-sent",
		"word": "certo",
		"trial_type": "html-keyboard-response",
		"trial_index": 35,
		"time_elapsed": 98031,
		"internal_node_id": "0.0-3.0-1.13"
	},
	{
		"rt": 1019,
		"stimulus": "<span style=\"font-size:30px; font-family: monospace\">ponto.</span>",
		"response": " ",
		"trial": "exp-sent",
		"word": "ponto.",
		"trial_type": "html-keyboard-response",
		"trial_index": 36,
		"time_elapsed": 99302,
		"internal_node_id": "0.0-3.0-1.14"
	},
	{
		"rt": null,
		"stimulus": "<span style= \"font-size:30px; font-family: monospace\">+</span>",
		"response": null,
		"trial_part": "fixation",
		"trial_type": "html-keyboard-response",
		"trial_index": 37,
		"time_elapsed": 100556,
		"internal_node_id": "0.0-3.0-0.15-0.15"
	},
	{
		"rt": 559,
		"stimulus": "<span style=\"font-size:30px; font-family: monospace\">A</span>",
		"response": " ",
		"trial": "exp-sent",
		"word": "A",
		"trial_type": "html-keyboard-response",
		"trial_index": 38,
		"time_elapsed": 101367,
		"internal_node_id": "0.0-3.0-1.15"
	},
	{
		"rt": 765,
		"stimulus": "<span style=\"font-size:30px; font-family: monospace\">empresa</span>",
		"response": " ",
		"trial": "exp-sent",
		"word": "empresa",
		"trial_type": "html-keyboard-response",
		"trial_index": 39,
		"time_elapsed": 102383,
		"internal_node_id": "0.0-3.0-1.16"
	},
	{
		"rt": 669,
		"stimulus": "<span style=\"font-size:30px; font-family: monospace\">enviou</span>",
		"response": " ",
		"trial": "exp-sent",
		"word": "enviou",
		"trial_type": "html-keyboard-response",
		"trial_index": 40,
		"time_elapsed": 103303,
		"internal_node_id": "0.0-3.0-1.17"
	},
	{
		"rt": 763,
		"stimulus": "<span style=\"font-size:30px; font-family: monospace\">o</span>",
		"response": " ",
		"trial": "exp-sent",
		"word": "o",
		"trial_type": "html-keyboard-response",
		"trial_index": 41,
		"time_elapsed": 104319,
		"internal_node_id": "0.0-3.0-1.18"
	},
	{
		"rt": 683,
		"stimulus": "<span style=\"font-size:30px; font-family: monospace\">aviso</span>",
		"response": " ",
		"trial": "exp-sent",
		"word": "aviso",
		"trial_type": "html-keyboard-response",
		"trial_index": 42,
		"time_elapsed": 105255,
		"internal_node_id": "0.0-3.0-1.19"
	},
	{
		"rt": 701,
		"stimulus": "<span style=\"font-size:30px; font-family: monospace\">hoje</span>",
		"response": " ",
		"trial": "exp-sent",
		"word": "hoje",
		"trial_type": "html-keyboard-response",
		"trial_index": 43,
		"time_elapsed": 106207,
		"internal_node_id": "0.0-3.0-1.20"
	},
	{
		"rt": 596,
		"stimulus": "<span style=\"font-size:30px; font-family: monospace\">de</span>",
		"response": " ",
		"trial": "exp-sent",
		"word": "de",
		"trial_type": "html-keyboard-response",
		"trial_index": 44,
		"time_elapsed": 107055,
		"internal_node_id": "0.0-3.0-1.21"
	},
	{
		"rt": 812,
		"stimulus": "<span style=\"font-size:30px; font-family: monospace\">tarde.</span>",
		"response": " ",
		"trial": "exp-sent",
		"word": "tarde.",
		"trial_type": "html-keyboard-response",
		"trial_index": 45,
		"time_elapsed": 108119,
		"internal_node_id": "0.0-3.0-1.22"
	},
	{
		"rt": null,
		"stimulus": "<span style= \"font-size:30px; font-family: monospace\">+</span>",
		"response": null,
		"trial_part": "fixation",
		"trial_type": "html-keyboard-response",
		"trial_index": 46,
		"time_elapsed": 109372,
		"internal_node_id": "0.0-3.0-0.23-0.23"
	},
	{
		"rt": 647,
		"stimulus": "<span style=\"font-size:30px; font-family: monospace\">A</span>",
		"response": " ",
		"trial": "exp-sent",
		"word": "A",
		"trial_type": "html-keyboard-response",
		"trial_index": 47,
		"time_elapsed": 110271,
		"internal_node_id": "0.0-3.0-1.23"
	},
	{
		"rt": 708,
		"stimulus": "<span style=\"font-size:30px; font-family: monospace\">loja</span>",
		"response": " ",
		"trial": "exp-sent",
		"word": "loja",
		"trial_type": "html-keyboard-response",
		"trial_index": 48,
		"time_elapsed": 111231,
		"internal_node_id": "0.0-3.0-1.24"
	},
	{
		"rt": 581,
		"stimulus": "<span style=\"font-size:30px; font-family: monospace\">vende</span>",
		"response": " ",
		"trial": "exp-sent",
		"word": "vende",
		"trial_type": "html-keyboard-response",
		"trial_index": 49,
		"time_elapsed": 112063,
		"internal_node_id": "0.0-3.0-1.25"
	},
	{
		"rt": 1029,
		"stimulus": "<span style=\"font-size:30px; font-family: monospace\">tanto</span>",
		"response": " ",
		"trial": "exp-sent",
		"word": "tanto",
		"trial_type": "html-keyboard-response",
		"trial_index": 50,
		"time_elapsed": 113351,
		"internal_node_id": "0.0-3.0-1.26"
	},
	{
		"rt": 716,
		"stimulus": "<span style=\"font-size:30px; font-family: monospace\">frituras</span>",
		"response": " ",
		"trial": "exp-sent",
		"word": "frituras",
		"trial_type": "html-keyboard-response",
		"trial_index": 51,
		"time_elapsed": 114319,
		"internal_node_id": "0.0-3.0-1.27"
	},
	{
		"rt": 684,
		"stimulus": "<span style=\"font-size:30px; font-family: monospace\">quanto</span>",
		"response": " ",
		"trial": "exp-sent",
		"word": "quanto",
		"trial_type": "html-keyboard-response",
		"trial_index": 52,
		"time_elapsed": 115255,
		"internal_node_id": "0.0-3.0-1.28"
	},
	{
		"rt": 852,
		"stimulus": "<span style=\"font-size:30px; font-family: monospace\">comidas</span>",
		"response": " ",
		"trial": "exp-sent",
		"word": "comidas",
		"trial_type": "html-keyboard-response",
		"trial_index": 53,
		"time_elapsed": 116359,
		"internal_node_id": "0.0-3.0-1.29"
	},
	{
		"rt": 732,
		"stimulus": "<span style=\"font-size:30px; font-family: monospace\">leves.</span>",
		"response": " ",
		"trial": "exp-sent",
		"word": "leves.",
		"trial_type": "html-keyboard-response",
		"trial_index": 54,
		"time_elapsed": 117343,
		"internal_node_id": "0.0-3.0-1.30"
	},
	{
		"rt": null,
		"stimulus": "<span style= \"font-size:30px; font-family: monospace\">+</span>",
		"response": null,
		"trial_part": "fixation",
		"trial_type": "html-keyboard-response",
		"trial_index": 55,
		"time_elapsed": 118596,
		"internal_node_id": "0.0-3.0-0.31-0.31"
	},
	{
		"rt": 6088,
		"stimulus": "<span style=\"font-size:30px; font-family: monospace\">As</span>",
		"response": " ",
		"trial": "exp-sent",
		"word": "As",
		"trial_type": "html-keyboard-response",
		"trial_index": 56,
		"time_elapsed": 124935,
		"internal_node_id": "0.0-3.0-1.31"
	},
	{
		"rt": 716,
		"stimulus": "<span style=\"font-size:30px; font-family: monospace\">cadeiras</span>",
		"response": " ",
		"trial": "exp-sent",
		"word": "cadeiras",
		"trial_type": "html-keyboard-response",
		"trial_index": 57,
		"time_elapsed": 125903,
		"internal_node_id": "0.0-3.0-1.32"
	},
	{
		"rt": 589,
		"stimulus": "<span style=\"font-size:30px; font-family: monospace\">azuis</span>",
		"response": " ",
		"trial": "exp-sent",
		"word": "azuis",
		"trial_type": "html-keyboard-response",
		"trial_index": 58,
		"time_elapsed": 126744,
		"internal_node_id": "0.0-3.0-1.33"
	},
	{
		"rt": 661,
		"stimulus": "<span style=\"font-size:30px; font-family: monospace\">da</span>",
		"response": " ",
		"trial": "exp-sent",
		"word": "da",
		"trial_type": "html-keyboard-response",
		"trial_index": 59,
		"time_elapsed": 127656,
		"internal_node_id": "0.0-3.0-1.34"
	},
	{
		"rt": 531,
		"stimulus": "<span style=\"font-size:30px; font-family: monospace\">sala</span>",
		"response": " ",
		"trial": "exp-sent",
		"word": "sala",
		"trial_type": "html-keyboard-response",
		"trial_index": 60,
		"time_elapsed": 128439,
		"internal_node_id": "0.0-3.0-1.35"
	},
	{
		"rt": 685,
		"stimulus": "<span style=\"font-size:30px; font-family: monospace\">eram</span>",
		"response": " ",
		"trial": "exp-sent",
		"word": "eram",
		"trial_type": "html-keyboard-response",
		"trial_index": 61,
		"time_elapsed": 129376,
		"internal_node_id": "0.0-3.0-1.36"
	},
	{
		"rt": 9596,
		"stimulus": "<span style=\"font-size:30px; font-family: monospace\">da</span>",
		"response": " ",
		"trial": "exp-sent",
		"word": "da",
		"trial_type": "html-keyboard-response",
		"trial_index": 62,
		"time_elapsed": 139224,
		"internal_node_id": "0.0-3.0-1.37"
	},
	{
		"rt": 900,
		"stimulus": "<span style=\"font-size:30px; font-family: monospace\">minha</span>",
		"response": " ",
		"trial": "exp-sent",
		"word": "minha",
		"trial_type": "html-keyboard-response",
		"trial_index": 63,
		"time_elapsed": 140376,
		"internal_node_id": "0.0-3.0-1.38"
	},
	{
		"rt": 3132,
		"stimulus": "<span style=\"font-size:30px; font-family: monospace\">vó.</span>",
		"response": " ",
		"trial": "comp",
		"word": "vó.",
		"trial_type": "html-keyboard-response",
		"trial_index": 64,
		"time_elapsed": 143760,
		"internal_node_id": "0.0-3.0-1.39"
	},
	{
		"rt": 10495,
		"stimulus": "<span style=\"font-size:30px; font-family: monospace\">As cadeiras eram da avó?</span>",
		"response": "s",
		"question": "As cadeiras eram da avó?",
		"answer": "sim",
		"trial": "comp",
		"trial_type": "html-keyboard-response",
		"trial_index": 65,
		"time_elapsed": 154521,
		"internal_node_id": "0.0-3.0-2.39-0.39",
		"accuracy": false
	},
	{
		"rt": null,
		"stimulus": "<span style= \"font-size:30px; font-family: monospace\">+</span>",
		"response": null,
		"trial_part": "fixation",
		"trial_type": "html-keyboard-response",
		"trial_index": 66,
		"time_elapsed": 156023,
		"internal_node_id": "0.0-3.0-0.40-0.40"
	},
	{
		"rt": 797,
		"stimulus": "<span style=\"font-size:30px; font-family: monospace\">Este</span>",
		"response": " ",
		"trial": "exp-sent",
		"word": "Este",
		"trial_type": "html-keyboard-response",
		"trial_index": 67,
		"time_elapsed": 157072,
		"internal_node_id": "0.0-3.0-1.40"
	},
	{
		"rt": 612,
		"stimulus": "<span style=\"font-size:30px; font-family: monospace\">conto</span>",
		"response": " ",
		"trial": "exp-sent",
		"word": "conto",
		"trial_type": "html-keyboard-response",
		"trial_index": 68,
		"time_elapsed": 157936,
		"internal_node_id": "0.0-3.0-1.41"
	},
	{
		"rt": 572,
		"stimulus": "<span style=\"font-size:30px; font-family: monospace\">tem</span>",
		"response": " ",
		"trial": "exp-sent",
		"word": "tem",
		"trial_type": "html-keyboard-response",
		"trial_index": 69,
		"time_elapsed": 158760,
		"internal_node_id": "0.0-3.0-1.42"
	},
	{
		"rt": 549,
		"stimulus": "<span style=\"font-size:30px; font-family: monospace\">um</span>",
		"response": " ",
		"trial": "exp-sent",
		"word": "um",
		"trial_type": "html-keyboard-response",
		"trial_index": 70,
		"time_elapsed": 159560,
		"internal_node_id": "0.0-3.0-1.43"
	},
	{
		"rt": 388,
		"stimulus": "<span style=\"font-size:30px; font-family: monospace\">final</span>",
		"response": " ",
		"trial": "exp-sent",
		"word": "final",
		"trial_type": "html-keyboard-response",
		"trial_index": 71,
		"time_elapsed": 160200,
		"internal_node_id": "0.0-3.0-1.44"
	},
	{
		"rt": 428,
		"stimulus": "<span style=\"font-size:30px; font-family: monospace\">perfeito.</span>",
		"response": " ",
		"trial": "exp-sent",
		"word": "perfeito.",
		"trial_type": "html-keyboard-response",
		"trial_index": 72,
		"time_elapsed": 160880,
		"internal_node_id": "0.0-3.0-1.45"
	},
	{
		"rt": null,
		"stimulus": "<span style= \"font-size:30px; font-family: monospace\">+</span>",
		"response": null,
		"trial_part": "fixation",
		"trial_type": "html-keyboard-response",
		"trial_index": 73,
		"time_elapsed": 162134,
		"internal_node_id": "0.0-3.0-0.46-0.46"
	},
	{
		"rt": 632394,
		"stimulus": "<span style=\"font-size:30px; font-family: monospace\">Ele</span>",
		"response": " ",
		"trial": "exp-sent",
		"word": "Ele",
		"trial_type": "html-keyboard-response",
		"trial_index": 74,
		"time_elapsed": 794780,
		"internal_node_id": "0.0-3.0-1.46"
	},
	{
		"rt": 844,
		"stimulus": "<span style=\"font-size:30px; font-family: monospace\">precisa</span>",
		"response": " ",
		"trial": "exp-sent",
		"word": "precisa",
		"trial_type": "html-keyboard-response",
		"trial_index": 75,
		"time_elapsed": 795876,
		"internal_node_id": "0.0-3.0-1.47"
	},
	{
		"rt": 492,
		"stimulus": "<span style=\"font-size:30px; font-family: monospace\">de</span>",
		"response": " ",
		"trial": "exp-sent",
		"word": "de",
		"trial_type": "html-keyboard-response",
		"trial_index": 76,
		"time_elapsed": 796620,
		"internal_node_id": "0.0-3.0-1.48"
	},
	{
		"rt": 420,
		"stimulus": "<span style=\"font-size:30px; font-family: monospace\">um</span>",
		"response": " ",
		"trial": "exp-sent",
		"word": "um",
		"trial_type": "html-keyboard-response",
		"trial_index": 77,
		"time_elapsed": 797292,
		"internal_node_id": "0.0-3.0-1.49"
	},
	{
		"rt": 1132,
		"stimulus": "<span style=\"font-size:30px; font-family: monospace\">protetor</span>",
		"response": " ",
		"trial": "exp-sent",
		"word": "protetor",
		"trial_type": "html-keyboard-response",
		"trial_index": 78,
		"time_elapsed": 798676,
		"internal_node_id": "0.0-3.0-1.50"
	},
	{
		"rt": 484,
		"stimulus": "<span style=\"font-size:30px; font-family: monospace\">de</span>",
		"response": " ",
		"trial": "exp-sent",
		"word": "de",
		"trial_type": "html-keyboard-response",
		"trial_index": 79,
		"time_elapsed": 799412,
		"internal_node_id": "0.0-3.0-1.51"
	},
	{
		"rt": 524,
		"stimulus": "<span style=\"font-size:30px; font-family: monospace\">ouvido.</span>",
		"response": " ",
		"trial": "exp-sent",
		"word": "ouvido.",
		"trial_type": "html-keyboard-response",
		"trial_index": 80,
		"time_elapsed": 800188,
		"internal_node_id": "0.0-3.0-1.52"
	},
	{
		"rt": null,
		"stimulus": "<span style= \"font-size:30px; font-family: monospace\">+</span>",
		"response": null,
		"trial_part": "fixation",
		"trial_type": "html-keyboard-response",
		"trial_index": 81,
		"time_elapsed": 801441,
		"internal_node_id": "0.0-3.0-0.53-0.53"
	},
	{
		"rt": 638,
		"stimulus": "<span style=\"font-size:30px; font-family: monospace\">Os</span>",
		"response": " ",
		"trial": "exp-sent",
		"word": "Os",
		"trial_type": "html-keyboard-response",
		"trial_index": 82,
		"time_elapsed": 802332,
		"internal_node_id": "0.0-3.0-1.53"
	},
	{
		"rt": 596,
		"stimulus": "<span style=\"font-size:30px; font-family: monospace\">hábitos</span>",
		"response": " ",
		"trial": "exp-sent",
		"word": "hábitos",
		"trial_type": "html-keyboard-response",
		"trial_index": 83,
		"time_elapsed": 803180,
		"internal_node_id": "0.0-3.0-1.54"
	},
	{
		"rt": 524,
		"stimulus": "<span style=\"font-size:30px; font-family: monospace\">de</span>",
		"response": " ",
		"trial": "exp-sent",
		"word": "de",
		"trial_type": "html-keyboard-response",
		"trial_index": 84,
		"time_elapsed": 803956,
		"internal_node_id": "0.0-3.0-1.55"
	},
	{
		"rt": 420,
		"stimulus": "<span style=\"font-size:30px; font-family: monospace\">lugares</span>",
		"response": " ",
		"trial": "exp-sent",
		"word": "lugares",
		"trial_type": "html-keyboard-response",
		"trial_index": 85,
		"time_elapsed": 804628,
		"internal_node_id": "0.0-3.0-1.56"
	},
	{
		"rt": 508,
		"stimulus": "<span style=\"font-size:30px; font-family: monospace\">diferentes</span>",
		"response": " ",
		"trial": "exp-sent",
		"word": "diferentes",
		"trial_type": "html-keyboard-response",
		"trial_index": 86,
		"time_elapsed": 805388,
		"internal_node_id": "0.0-3.0-1.57"
	},
	{
		"rt": 621,
		"stimulus": "<span style=\"font-size:30px; font-family: monospace\">são</span>",
		"response": " ",
		"trial": "exp-sent",
		"word": "são",
		"trial_type": "html-keyboard-response",
		"trial_index": 87,
		"time_elapsed": 806260,
		"internal_node_id": "0.0-3.0-1.58"
	},
	{
		"rt": 588,
		"stimulus": "<span style=\"font-size:30px; font-family: monospace\">muito</span>",
		"response": " ",
		"trial": "exp-sent",
		"word": "muito",
		"trial_type": "html-keyboard-response",
		"trial_index": 88,
		"time_elapsed": 807100,
		"internal_node_id": "0.0-3.0-1.59"
	},
	{
		"rt": 18117,
		"stimulus": "<span style=\"font-size:30px; font-family: monospace\">lindos.</span>",
		"response": " ",
		"trial": "exp-sent",
		"word": "lindos.",
		"trial_type": "html-keyboard-response",
		"trial_index": 89,
		"time_elapsed": 825469,
		"internal_node_id": "0.0-3.0-1.60"
	},
	{
		"rt": null,
		"stimulus": "<span style= \"font-size:30px; font-family: monospace\">+</span>",
		"response": null,
		"trial_part": "fixation",
		"trial_type": "html-keyboard-response",
		"trial_index": 90,
		"time_elapsed": 826737,
		"internal_node_id": "0.0-3.0-0.61-0.61"
	},
	{
		"rt": 335,
		"stimulus": "<span style=\"font-size:30px; font-family: monospace\">O</span>",
		"response": " ",
		"trial": "exp-sent",
		"word": "O",
		"trial_type": "html-keyboard-response",
		"trial_index": 91,
		"time_elapsed": 827325,
		"internal_node_id": "0.0-3.0-1.61"
	},
	{
		"rt": 948,
		"stimulus": "<span style=\"font-size:30px; font-family: monospace\">médico</span>",
		"response": " ",
		"trial": "exp-sent",
		"word": "médico",
		"trial_type": "html-keyboard-response",
		"trial_index": 92,
		"time_elapsed": 828525,
		"internal_node_id": "0.0-3.0-1.62"
	},
	{
		"rt": 1324,
		"stimulus": "<span style=\"font-size:30px; font-family: monospace\">corrigiu</span>",
		"response": " ",
		"trial": "exp-sent",
		"word": "corrigiu",
		"trial_type": "html-keyboard-response",
		"trial_index": 93,
		"time_elapsed": 830101,
		"internal_node_id": "0.0-3.0-1.63"
	},
	{
		"rt": 881,
		"stimulus": "<span style=\"font-size:30px; font-family: monospace\">a</span>",
		"response": " ",
		"trial": "exp-sent",
		"word": "a",
		"trial_type": "html-keyboard-response",
		"trial_index": 94,
		"time_elapsed": 831237,
		"internal_node_id": "0.0-3.0-1.64"
	},
	{
		"rt": 1090,
		"stimulus": "<span style=\"font-size:30px; font-family: monospace\">postura</span>",
		"response": " ",
		"trial": "exp-sent",
		"word": "postura",
		"trial_type": "html-keyboard-response",
		"trial_index": 95,
		"time_elapsed": 832581,
		"internal_node_id": "0.0-3.0-1.65"
	},
	{
		"rt": 18597,
		"stimulus": "<span style=\"font-size:30px; font-family: monospace\">das</span>",
		"response": " ",
		"trial": "exp-sent",
		"word": "das",
		"trial_type": "html-keyboard-response",
		"trial_index": 96,
		"time_elapsed": 851430,
		"internal_node_id": "0.0-3.0-1.66"
	},
	{
		"rt": 2532,
		"stimulus": "<span style=\"font-size:30px; font-family: monospace\">costas</span>",
		"response": " ",
		"trial": "exp-sent",
		"word": "costas",
		"trial_type": "html-keyboard-response",
		"trial_index": 97,
		"time_elapsed": 854213,
		"internal_node_id": "0.0-3.0-1.67"
	},
	{
		"rt": 828,
		"stimulus": "<span style=\"font-size:30px; font-family: monospace\">da</span>",
		"response": " ",
		"trial": "exp-sent",
		"word": "da",
		"trial_type": "html-keyboard-response",
		"trial_index": 98,
		"time_elapsed": 855293,
		"internal_node_id": "0.0-3.0-1.68"
	},
	{
		"rt": 956,
		"stimulus": "<span style=\"font-size:30px; font-family: monospace\">pessoa.</span>",
		"response": " ",
		"trial": "exp-sent",
		"word": "pessoa.",
		"trial_type": "html-keyboard-response",
		"trial_index": 99,
		"time_elapsed": 856501,
		"internal_node_id": "0.0-3.0-1.69"
	},
	{
		"rt": null,
		"stimulus": "<span style= \"font-size:30px; font-family: monospace\">+</span>",
		"response": null,
		"trial_part": "fixation",
		"trial_type": "html-keyboard-response",
		"trial_index": 100,
		"time_elapsed": 857754,
		"internal_node_id": "0.0-3.0-0.70-0.70"
	},
	{
		"rt": 5527,
		"stimulus": "<span style=\"font-size:30px; font-family: monospace\">Aquele</span>",
		"response": " ",
		"trial": "exp-sent",
		"word": "Aquele",
		"trial_type": "html-keyboard-response",
		"trial_index": 101,
		"time_elapsed": 863534,
		"internal_node_id": "0.0-3.0-1.70"
	},
	{
		"rt": 869,
		"stimulus": "<span style=\"font-size:30px; font-family: monospace\">era</span>",
		"response": " ",
		"trial": "exp-sent",
		"word": "era",
		"trial_type": "html-keyboard-response",
		"trial_index": 102,
		"time_elapsed": 864654,
		"internal_node_id": "0.0-3.0-1.71"
	},
	{
		"rt": 381,
		"stimulus": "<span style=\"font-size:30px; font-family: monospace\">um</span>",
		"response": " ",
		"trial": "exp-sent",
		"word": "um",
		"trial_type": "html-keyboard-response",
		"trial_index": 103,
		"time_elapsed": 865286,
		"internal_node_id": "0.0-3.0-1.72"
	},
	{
		"rt": 388,
		"stimulus": "<span style=\"font-size:30px; font-family: monospace\">caso</span>",
		"response": " ",
		"trial": "exp-sent",
		"word": "caso",
		"trial_type": "html-keyboard-response",
		"trial_index": 104,
		"time_elapsed": 865926,
		"internal_node_id": "0.0-3.0-1.73"
	},
	{
		"rt": 325,
		"stimulus": "<span style=\"font-size:30px; font-family: monospace\">real</span>",
		"response": " ",
		"trial": "exp-sent",
		"word": "real",
		"trial_type": "html-keyboard-response",
		"trial_index": 105,
		"time_elapsed": 866502,
		"internal_node_id": "0.0-3.0-1.74"
	},
	{
		"rt": 164,
		"stimulus": "<span style=\"font-size:30px; font-family: monospace\">de</span>",
		"response": " ",
		"trial": "exp-sent",
		"word": "de",
		"trial_type": "html-keyboard-response",
		"trial_index": 106,
		"time_elapsed": 866918,
		"internal_node_id": "0.0-3.0-1.75"
	},
	{
		"rt": 116,
		"stimulus": "<span style=\"font-size:30px; font-family: monospace\">sequestro</span>",
		"response": " ",
		"trial": "exp-sent",
		"word": "sequestro",
		"trial_type": "html-keyboard-response",
		"trial_index": 107,
		"time_elapsed": 867286,
		"internal_node_id": "0.0-3.0-1.76"
	},
	{
		"rt": 132,
		"stimulus": "<span style=\"font-size:30px; font-family: monospace\">premeditado.</span>",
		"response": " ",
		"trial": "comp",
		"word": "premeditado.",
		"trial_type": "html-keyboard-response",
		"trial_index": 108,
		"time_elapsed": 867670,
		"internal_node_id": "0.0-3.0-1.77"
	},
	{
		"rt": 4228,
		"stimulus": "<span style=\"font-size:30px; font-family: monospace\">Aquele era um caso real de roubo?</span>",
		"response": "s",
		"question": "Aquele era um caso real de roubo?",
		"answer": "não",
		"trial": "comp",
		"trial_type": "html-keyboard-response",
		"trial_index": 109,
		"time_elapsed": 872150,
		"internal_node_id": "0.0-3.0-2.77-0.77",
		"accuracy": false
	},
	{
		"rt": null,
		"stimulus": "<span style= \"font-size:30px; font-family: monospace\">+</span>",
		"response": null,
		"trial_part": "fixation",
		"trial_type": "html-keyboard-response",
		"trial_index": 110,
		"time_elapsed": 873652,
		"internal_node_id": "0.0-3.0-0.78-0.78"
	},
	{
		"rt": 62,
		"stimulus": "<span style=\"font-size:30px; font-family: monospace\">Preciso</span>",
		"response": " ",
		"trial": "exp-sent",
		"word": "Preciso",
		"trial_type": "html-keyboard-response",
		"trial_index": 111,
		"time_elapsed": 873966,
		"internal_node_id": "0.0-3.0-1.78"
	},
	{
		"rt": 133,
		"stimulus": "<span style=\"font-size:30px; font-family: monospace\">de</span>",
		"response": " ",
		"trial": "exp-sent",
		"word": "de",
		"trial_type": "html-keyboard-response",
		"trial_index": 112,
		"time_elapsed": 874350,
		"internal_node_id": "0.0-3.0-1.79"
	},
	{
		"rt": 29,
		"stimulus": "<span style=\"font-size:30px; font-family: monospace\">um</span>",
		"response": " ",
		"trial": "exp-sent",
		"word": "um",
		"trial_type": "html-keyboard-response",
		"trial_index": 113,
		"time_elapsed": 874630,
		"internal_node_id": "0.0-3.0-1.80"
	},
	{
		"rt": 37,
		"stimulus": "<span style=\"font-size:30px; font-family: monospace\">relatório</span>",
		"response": " ",
		"trial": "exp-sent",
		"word": "relatório",
		"trial_type": "html-keyboard-response",
		"trial_index": 114,
		"time_elapsed": 874918,
		"internal_node_id": "0.0-3.0-1.81"
	},
	{
		"rt": 20,
		"stimulus": "<span style=\"font-size:30px; font-family: monospace\">oficial</span>",
		"response": " ",
		"trial": "exp-sent",
		"word": "oficial",
		"trial_type": "html-keyboard-response",
		"trial_index": 115,
		"time_elapsed": 875190,
		"internal_node_id": "0.0-3.0-1.82"
	},
	{
		"rt": 53,
		"stimulus": "<span style=\"font-size:30px; font-family: monospace\">para</span>",
		"response": " ",
		"trial": "exp-sent",
		"word": "para",
		"trial_type": "html-keyboard-response",
		"trial_index": 116,
		"time_elapsed": 875494,
		"internal_node_id": "0.0-3.0-1.83"
	},
	{
		"rt": 20,
		"stimulus": "<span style=\"font-size:30px; font-family: monospace\">amanhã.</span>",
		"response": " ",
		"trial": "exp-sent",
		"word": "amanhã.",
		"trial_type": "html-keyboard-response",
		"trial_index": 117,
		"time_elapsed": 875766,
		"internal_node_id": "0.0-3.0-1.84"
	},
	{
		"rt": null,
		"stimulus": "<span style= \"font-size:30px; font-family: monospace\">+</span>",
		"response": null,
		"trial_part": "fixation",
		"trial_type": "html-keyboard-response",
		"trial_index": 118,
		"time_elapsed": 877020,
		"internal_node_id": "0.0-3.0-0.85-0.85"
	},
	{
		"rt": 302,
		"stimulus": "<span style=\"font-size:30px; font-family: monospace\">Ele</span>",
		"response": " ",
		"trial": "exp-sent",
		"word": "Ele",
		"trial_type": "html-keyboard-response",
		"trial_index": 119,
		"time_elapsed": 877574,
		"internal_node_id": "0.0-3.0-1.85"
	},
	{
		"rt": 53,
		"stimulus": "<span style=\"font-size:30px; font-family: monospace\">viu</span>",
		"response": " ",
		"trial": "exp-sent",
		"word": "viu",
		"trial_type": "html-keyboard-response",
		"trial_index": 120,
		"time_elapsed": 877878,
		"internal_node_id": "0.0-3.0-1.86"
	},
	{
		"rt": 52,
		"stimulus": "<span style=\"font-size:30px; font-family: monospace\">um</span>",
		"response": " ",
		"trial": "exp-sent",
		"word": "um",
		"trial_type": "html-keyboard-response",
		"trial_index": 121,
		"time_elapsed": 878182,
		"internal_node_id": "0.0-3.0-1.87"
	},
	{
		"rt": 52,
		"stimulus": "<span style=\"font-size:30px; font-family: monospace\">inseto</span>",
		"response": " ",
		"trial": "exp-sent",
		"word": "inseto",
		"trial_type": "html-keyboard-response",
		"trial_index": 122,
		"time_elapsed": 878486,
		"internal_node_id": "0.0-3.0-1.88"
	},
	{
		"rt": 37,
		"stimulus": "<span style=\"font-size:30px; font-family: monospace\">marrom</span>",
		"response": " ",
		"trial": "exp-sent",
		"word": "marrom",
		"trial_type": "html-keyboard-response",
		"trial_index": 123,
		"time_elapsed": 878774,
		"internal_node_id": "0.0-3.0-1.89"
	},
	{
		"rt": 36,
		"stimulus": "<span style=\"font-size:30px; font-family: monospace\">na</span>",
		"response": " ",
		"trial": "exp-sent",
		"word": "na",
		"trial_type": "html-keyboard-response",
		"trial_index": 124,
		"time_elapsed": 879062,
		"internal_node_id": "0.0-3.0-1.90"
	},
	{
		"rt": 44,
		"stimulus": "<span style=\"font-size:30px; font-family: monospace\">parede.</span>",
		"response": " ",
		"trial": "exp-sent",
		"word": "parede.",
		"trial_type": "html-keyboard-response",
		"trial_index": 125,
		"time_elapsed": 879358,
		"internal_node_id": "0.0-3.0-1.91"
	},
	{
		"rt": null,
		"stimulus": "<span style= \"font-size:30px; font-family: monospace\">+</span>",
		"response": null,
		"trial_part": "fixation",
		"trial_type": "html-keyboard-response",
		"trial_index": 126,
		"time_elapsed": 880623,
		"internal_node_id": "0.0-3.0-0.92-0.92"
	},
	{
		"rt": 59,
		"stimulus": "<span style=\"font-size:30px; font-family: monospace\">O</span>",
		"response": " ",
		"trial": "exp-sent",
		"word": "O",
		"trial_type": "html-keyboard-response",
		"trial_index": 127,
		"time_elapsed": 880934,
		"internal_node_id": "0.0-3.0-1.92"
	},
	{
		"rt": 36,
		"stimulus": "<span style=\"font-size:30px; font-family: monospace\">avô</span>",
		"response": " ",
		"trial": "exp-sent",
		"word": "avô",
		"trial_type": "html-keyboard-response",
		"trial_index": 128,
		"time_elapsed": 881222,
		"internal_node_id": "0.0-3.0-1.93"
	},
	{
		"rt": 24,
		"stimulus": "<span style=\"font-size:30px; font-family: monospace\">fez</span>",
		"response": " ",
		"trial": "exp-sent",
		"word": "fez",
		"trial_type": "html-keyboard-response",
		"trial_index": 129,
		"time_elapsed": 881510,
		"internal_node_id": "0.0-3.0-1.94"
	},
	{
		"rt": 53,
		"stimulus": "<span style=\"font-size:30px; font-family: monospace\">uma</span>",
		"response": " ",
		"trial": "exp-sent",
		"word": "uma",
		"trial_type": "html-keyboard-response",
		"trial_index": 130,
		"time_elapsed": 881814,
		"internal_node_id": "0.0-3.0-1.95"
	},
	{
		"rt": 53,
		"stimulus": "<span style=\"font-size:30px; font-family: monospace\">lista</span>",
		"response": " ",
		"trial": "exp-sent",
		"word": "lista",
		"trial_type": "html-keyboard-response",
		"trial_index": 131,
		"time_elapsed": 882118,
		"internal_node_id": "0.0-3.0-1.96"
	},
	{
		"rt": 52,
		"stimulus": "<span style=\"font-size:30px; font-family: monospace\">de</span>",
		"response": " ",
		"trial": "exp-sent",
		"word": "de",
		"trial_type": "html-keyboard-response",
		"trial_index": 132,
		"time_elapsed": 882422,
		"internal_node_id": "0.0-3.0-1.97"
	},
	{
		"rt": 25,
		"stimulus": "<span style=\"font-size:30px; font-family: monospace\">compras</span>",
		"response": " ",
		"trial": "exp-sent",
		"word": "compras",
		"trial_type": "html-keyboard-response",
		"trial_index": 133,
		"time_elapsed": 882710,
		"internal_node_id": "0.0-3.0-1.98"
	},
	{
		"rt": 44,
		"stimulus": "<span style=\"font-size:30px; font-family: monospace\">do</span>",
		"response": " ",
		"trial": "exp-sent",
		"word": "do",
		"trial_type": "html-keyboard-response",
		"trial_index": 134,
		"time_elapsed": 883006,
		"internal_node_id": "0.0-3.0-1.99"
	},
	{
		"rt": 36,
		"stimulus": "<span style=\"font-size:30px; font-family: monospace\">mercado.</span>",
		"response": " ",
		"trial": "exp-sent",
		"word": "mercado.",
		"trial_type": "html-keyboard-response",
		"trial_index": 135,
		"time_elapsed": 883294,
		"internal_node_id": "0.0-3.0-1.100"
	},
	{
		"rt": null,
		"stimulus": "<span style= \"font-size:30px; font-family: monospace\">+</span>",
		"response": null,
		"trial_part": "fixation",
		"trial_type": "html-keyboard-response",
		"trial_index": 136,
		"time_elapsed": 884555,
		"internal_node_id": "0.0-3.0-0.101-0.101"
	},
	{
		"rt": 591,
		"stimulus": "<span style=\"font-size:30px; font-family: monospace\">As</span>",
		"response": " ",
		"trial": "exp-sent",
		"word": "As",
		"trial_type": "html-keyboard-response",
		"trial_index": 137,
		"time_elapsed": 885398,
		"internal_node_id": "0.0-3.0-1.101"
	},
	{
		"rt": 85,
		"stimulus": "<span style=\"font-size:30px; font-family: monospace\">pessoas</span>",
		"response": " ",
		"trial": "exp-sent",
		"word": "pessoas",
		"trial_type": "html-keyboard-response",
		"trial_index": 138,
		"time_elapsed": 885734,
		"internal_node_id": "0.0-3.0-1.102"
	},
	{
		"rt": 52,
		"stimulus": "<span style=\"font-size:30px; font-family: monospace\">não</span>",
		"response": " ",
		"trial": "exp-sent",
		"word": "não",
		"trial_type": "html-keyboard-response",
		"trial_index": 139,
		"time_elapsed": 886038,
		"internal_node_id": "0.0-3.0-1.103"
	},
	{
		"rt": 44,
		"stimulus": "<span style=\"font-size:30px; font-family: monospace\">enviam</span>",
		"response": " ",
		"trial": "exp-sent",
		"word": "enviam",
		"trial_type": "html-keyboard-response",
		"trial_index": 140,
		"time_elapsed": 886334,
		"internal_node_id": "0.0-3.0-1.104"
	},
	{
		"rt": 1412,
		"stimulus": "<span style=\"font-size:30px; font-family: monospace\">telegrama</span>",
		"response": " ",
		"trial": "exp-sent",
		"word": "telegrama",
		"trial_type": "html-keyboard-response",
		"trial_index": 141,
		"time_elapsed": 887998,
		"internal_node_id": "0.0-3.0-1.105"
	},
	{
		"rt": 52,
		"stimulus": "<span style=\"font-size:30px; font-family: monospace\">nos</span>",
		"response": " ",
		"trial": "exp-sent",
		"word": "nos",
		"trial_type": "html-keyboard-response",
		"trial_index": 142,
		"time_elapsed": 888302,
		"internal_node_id": "0.0-3.0-1.106"
	},
	{
		"rt": 68,
		"stimulus": "<span style=\"font-size:30px; font-family: monospace\">dias</span>",
		"response": " ",
		"trial": "exp-sent",
		"word": "dias",
		"trial_type": "html-keyboard-response",
		"trial_index": 143,
		"time_elapsed": 888622,
		"internal_node_id": "0.0-3.0-1.107"
	},
	{
		"rt": 661,
		"stimulus": "<span style=\"font-size:30px; font-family: monospace\">de</span>",
		"response": " ",
		"trial": "exp-sent",
		"word": "de",
		"trial_type": "html-keyboard-response",
		"trial_index": 144,
		"time_elapsed": 889534,
		"internal_node_id": "0.0-3.0-1.108"
	},
	{
		"rt": 60,
		"stimulus": "<span style=\"font-size:30px; font-family: monospace\">hoje.</span>",
		"response": " ",
		"trial": "exp-sent",
		"word": "hoje.",
		"trial_type": "html-keyboard-response",
		"trial_index": 145,
		"time_elapsed": 889846,
		"internal_node_id": "0.0-3.0-1.109"
	},
	{
		"rt": null,
		"stimulus": "<span style= \"font-size:30px; font-family: monospace\">+</span>",
		"response": null,
		"trial_part": "fixation",
		"trial_type": "html-keyboard-response",
		"trial_index": 146,
		"time_elapsed": 891099,
		"internal_node_id": "0.0-3.0-0.110-0.110"
	},
	{
		"rt": 2624,
		"stimulus": "<span style=\"font-size:30px; font-family: monospace\">Ele</span>",
		"response": " ",
		"trial": "exp-sent",
		"word": "Ele",
		"trial_type": "html-keyboard-response",
		"trial_index": 147,
		"time_elapsed": 893975,
		"internal_node_id": "0.0-3.0-1.110"
	},
	{
		"rt": 69,
		"stimulus": "<span style=\"font-size:30px; font-family: monospace\">não</span>",
		"response": " ",
		"trial": "exp-sent",
		"word": "não",
		"trial_type": "html-keyboard-response",
		"trial_index": 148,
		"time_elapsed": 894295,
		"internal_node_id": "0.0-3.0-1.111"
	},
	{
		"rt": 69,
		"stimulus": "<span style=\"font-size:30px; font-family: monospace\">gosta</span>",
		"response": " ",
		"trial": "exp-sent",
		"word": "gosta",
		"trial_type": "html-keyboard-response",
		"trial_index": 149,
		"time_elapsed": 894615,
		"internal_node_id": "0.0-3.0-1.112"
	},
	{
		"rt": 60,
		"stimulus": "<span style=\"font-size:30px; font-family: monospace\">de</span>",
		"response": " ",
		"trial": "exp-sent",
		"word": "de",
		"trial_type": "html-keyboard-response",
		"trial_index": 150,
		"time_elapsed": 894927,
		"internal_node_id": "0.0-3.0-1.113"
	},
	{
		"rt": 60,
		"stimulus": "<span style=\"font-size:30px; font-family: monospace\">tomate</span>",
		"response": " ",
		"trial": "exp-sent",
		"word": "tomate",
		"trial_type": "html-keyboard-response",
		"trial_index": 151,
		"time_elapsed": 895239,
		"internal_node_id": "0.0-3.0-1.114"
	},
	{
		"rt": 53,
		"stimulus": "<span style=\"font-size:30px; font-family: monospace\">misturado</span>",
		"response": " ",
		"trial": "exp-sent",
		"word": "misturado",
		"trial_type": "html-keyboard-response",
		"trial_index": 152,
		"time_elapsed": 895543,
		"internal_node_id": "0.0-3.0-1.115"
	},
	{
		"rt": 29,
		"stimulus": "<span style=\"font-size:30px; font-family: monospace\">na</span>",
		"response": " ",
		"trial": "exp-sent",
		"word": "na",
		"trial_type": "html-keyboard-response",
		"trial_index": 153,
		"time_elapsed": 895823,
		"internal_node_id": "0.0-3.0-1.116"
	},
	{
		"rt": 68,
		"stimulus": "<span style=\"font-size:30px; font-family: monospace\">comida.</span>",
		"response": " ",
		"trial": "comp",
		"word": "comida.",
		"trial_type": "html-keyboard-response",
		"trial_index": 154,
		"time_elapsed": 896143,
		"internal_node_id": "0.0-3.0-1.117"
	},
	{
		"rt": 4693,
		"stimulus": "<span style=\"font-size:30px; font-family: monospace\">Ele gosta de tomate na comida?</span>",
		"response": "s",
		"question": "Ele gosta de tomate na comida?",
		"answer": "não",
		"trial": "comp",
		"trial_type": "html-keyboard-response",
		"trial_index": 155,
		"time_elapsed": 901087,
		"internal_node_id": "0.0-3.0-2.117-0.117",
		"accuracy": false
	},
	{
		"rt": null,
		"stimulus": "<span style= \"font-size:30px; font-family: monospace\">+</span>",
		"response": null,
		"trial_part": "fixation",
		"trial_type": "html-keyboard-response",
		"trial_index": 156,
		"time_elapsed": 902589,
		"internal_node_id": "0.0-3.0-0.118-0.118"
	},
	{
		"rt": 126,
		"stimulus": "<span style=\"font-size:30px; font-family: monospace\">A</span>",
		"response": " ",
		"trial": "exp-sent",
		"word": "A",
		"trial_type": "html-keyboard-response",
		"trial_index": 157,
		"time_elapsed": 902967,
		"internal_node_id": "0.0-3.0-1.118"
	},
	{
		"rt": 77,
		"stimulus": "<span style=\"font-size:30px; font-family: monospace\">senhora</span>",
		"response": " ",
		"trial": "exp-sent",
		"word": "senhora",
		"trial_type": "html-keyboard-response",
		"trial_index": 158,
		"time_elapsed": 903295,
		"internal_node_id": "0.0-3.0-1.119"
	},
	{
		"rt": 61,
		"stimulus": "<span style=\"font-size:30px; font-family: monospace\">cumprimentou</span>",
		"response": " ",
		"trial": "exp-sent",
		"word": "cumprimentou",
		"trial_type": "html-keyboard-response",
		"trial_index": 159,
		"time_elapsed": 903607,
		"internal_node_id": "0.0-3.0-1.120"
	},
	{
		"rt": 60,
		"stimulus": "<span style=\"font-size:30px; font-family: monospace\">o</span>",
		"response": " ",
		"trial": "exp-sent",
		"word": "o",
		"trial_type": "html-keyboard-response",
		"trial_index": 160,
		"time_elapsed": 903919,
		"internal_node_id": "0.0-3.0-1.121"
	},
	{
		"rt": 53,
		"stimulus": "<span style=\"font-size:30px; font-family: monospace\">operador</span>",
		"response": " ",
		"trial": "exp-sent",
		"word": "operador",
		"trial_type": "html-keyboard-response",
		"trial_index": 161,
		"time_elapsed": 904223,
		"internal_node_id": "0.0-3.0-1.122"
	},
	{
		"rt": 205,
		"stimulus": "<span style=\"font-size:30px; font-family: monospace\">de</span>",
		"response": " ",
		"trial": "exp-sent",
		"word": "de",
		"trial_type": "html-keyboard-response",
		"trial_index": 162,
		"time_elapsed": 904679,
		"internal_node_id": "0.0-3.0-1.123"
	},
	{
		"rt": 36,
		"stimulus": "<span style=\"font-size:30px; font-family: monospace\">caixa.</span>",
		"response": " ",
		"trial": "exp-sent",
		"word": "caixa.",
		"trial_type": "html-keyboard-response",
		"trial_index": 163,
		"time_elapsed": 904967,
		"internal_node_id": "0.0-3.0-1.124"
	},
	{
		"rt": null,
		"stimulus": "<span style= \"font-size:30px; font-family: monospace\">+</span>",
		"response": null,
		"trial_part": "fixation",
		"trial_type": "html-keyboard-response",
		"trial_index": 164,
		"time_elapsed": 906220,
		"internal_node_id": "0.0-3.0-0.125-0.125"
	},
	{
		"rt": 230,
		"stimulus": "<span style=\"font-size:30px; font-family: monospace\">A</span>",
		"response": " ",
		"trial": "exp-sent",
		"word": "A",
		"trial_type": "html-keyboard-response",
		"trial_index": 165,
		"time_elapsed": 906703,
		"internal_node_id": "0.0-3.0-1.125"
	},
	{
		"rt": 77,
		"stimulus": "<span style=\"font-size:30px; font-family: monospace\">gente</span>",
		"response": " ",
		"trial": "exp-sent",
		"word": "gente",
		"trial_type": "html-keyboard-response",
		"trial_index": 166,
		"time_elapsed": 907031,
		"internal_node_id": "0.0-3.0-1.126"
	},
	{
		"rt": 76,
		"stimulus": "<span style=\"font-size:30px; font-family: monospace\">viu</span>",
		"response": " ",
		"trial": "exp-sent",
		"word": "viu",
		"trial_type": "html-keyboard-response",
		"trial_index": 167,
		"time_elapsed": 907359,
		"internal_node_id": "0.0-3.0-1.127"
	},
	{
		"rt": 365,
		"stimulus": "<span style=\"font-size:30px; font-family: monospace\">o</span>",
		"response": " ",
		"trial": "exp-sent",
		"word": "o",
		"trial_type": "html-keyboard-response",
		"trial_index": 168,
		"time_elapsed": 907975,
		"internal_node_id": "0.0-3.0-1.128"
	},
	{
		"rt": 85,
		"stimulus": "<span style=\"font-size:30px; font-family: monospace\">eclipse</span>",
		"response": " ",
		"trial": "exp-sent",
		"word": "eclipse",
		"trial_type": "html-keyboard-response",
		"trial_index": 169,
		"time_elapsed": 908311,
		"internal_node_id": "0.0-3.0-1.129"
	},
	{
		"rt": 84,
		"stimulus": "<span style=\"font-size:30px; font-family: monospace\">lunar</span>",
		"response": " ",
		"trial": "exp-sent",
		"word": "lunar",
		"trial_type": "html-keyboard-response",
		"trial_index": 170,
		"time_elapsed": 908647,
		"internal_node_id": "0.0-3.0-1.130"
	},
	{
		"rt": 108,
		"stimulus": "<span style=\"font-size:30px; font-family: monospace\">durante</span>",
		"response": " ",
		"trial": "exp-sent",
		"word": "durante",
		"trial_type": "html-keyboard-response",
		"trial_index": 171,
		"time_elapsed": 909007,
		"internal_node_id": "0.0-3.0-1.131"
	},
	{
		"rt": 149,
		"stimulus": "<span style=\"font-size:30px; font-family: monospace\">o</span>",
		"response": " ",
		"trial": "exp-sent",
		"word": "o",
		"trial_type": "html-keyboard-response",
		"trial_index": 172,
		"time_elapsed": 909407,
		"internal_node_id": "0.0-3.0-1.132"
	},
	{
		"rt": 93,
		"stimulus": "<span style=\"font-size:30px; font-family: monospace\">dia.</span>",
		"response": " ",
		"trial": "exp-sent",
		"word": "dia.",
		"trial_type": "html-keyboard-response",
		"trial_index": 173,
		"time_elapsed": 909751,
		"internal_node_id": "0.0-3.0-1.133"
	},
	{
		"rt": null,
		"stimulus": "<span style= \"font-size:30px; font-family: monospace\">+</span>",
		"response": null,
		"trial_part": "fixation",
		"trial_type": "html-keyboard-response",
		"trial_index": 174,
		"time_elapsed": 911004,
		"internal_node_id": "0.0-3.0-0.134-0.134"
	},
	{
		"rt": 87,
		"stimulus": "<span style=\"font-size:30px; font-family: monospace\">A</span>",
		"response": " ",
		"trial": "exp-sent",
		"word": "A",
		"trial_type": "html-keyboard-response",
		"trial_index": 175,
		"time_elapsed": 911343,
		"internal_node_id": "0.0-3.0-1.134"
	},
	{
		"rt": 101,
		"stimulus": "<span style=\"font-size:30px; font-family: monospace\">mordida</span>",
		"response": " ",
		"trial": "exp-sent",
		"word": "mordida",
		"trial_type": "html-keyboard-response",
		"trial_index": 176,
		"time_elapsed": 911695,
		"internal_node_id": "0.0-3.0-1.135"
	},
	{
		"rt": 92,
		"stimulus": "<span style=\"font-size:30px; font-family: monospace\">do</span>",
		"response": " ",
		"trial": "exp-sent",
		"word": "do",
		"trial_type": "html-keyboard-response",
		"trial_index": 177,
		"time_elapsed": 912039,
		"internal_node_id": "0.0-3.0-1.136"
	},
	{
		"rt": 68,
		"stimulus": "<span style=\"font-size:30px; font-family: monospace\">cachorro</span>",
		"response": " ",
		"trial": "exp-sent",
		"word": "cachorro",
		"trial_type": "html-keyboard-response",
		"trial_index": 178,
		"time_elapsed": 912359,
		"internal_node_id": "0.0-3.0-1.137"
	},
	{
		"rt": 52,
		"stimulus": "<span style=\"font-size:30px; font-family: monospace\">voraz</span>",
		"response": " ",
		"trial": "exp-sent",
		"word": "voraz",
		"trial_type": "html-keyboard-response",
		"trial_index": 179,
		"time_elapsed": 912663,
		"internal_node_id": "0.0-3.0-1.138"
	},
	{
		"rt": 52,
		"stimulus": "<span style=\"font-size:30px; font-family: monospace\">causou</span>",
		"response": " ",
		"trial": "exp-sent",
		"word": "causou",
		"trial_type": "html-keyboard-response",
		"trial_index": 180,
		"time_elapsed": 912967,
		"internal_node_id": "0.0-3.0-1.139"
	},
	{
		"rt": 101,
		"stimulus": "<span style=\"font-size:30px; font-family: monospace\">uma</span>",
		"response": " ",
		"trial": "exp-sent",
		"word": "uma",
		"trial_type": "html-keyboard-response",
		"trial_index": 181,
		"time_elapsed": 913319,
		"internal_node_id": "0.0-3.0-1.140"
	},
	{
		"rt": 37,
		"stimulus": "<span style=\"font-size:30px; font-family: monospace\">cicatriz.</span>",
		"response": " ",
		"trial": "exp-sent",
		"word": "cicatriz.",
		"trial_type": "html-keyboard-response",
		"trial_index": 182,
		"time_elapsed": 913607,
		"internal_node_id": "0.0-3.0-1.141"
	},
	{
		"rt": null,
		"stimulus": "<span style= \"font-size:30px; font-family: monospace\">+</span>",
		"response": null,
		"trial_part": "fixation",
		"trial_type": "html-keyboard-response",
		"trial_index": 183,
		"time_elapsed": 914860,
		"internal_node_id": "0.0-3.0-0.142-0.142"
	},
	{
		"rt": 112,
		"stimulus": "<span style=\"font-size:30px; font-family: monospace\">Elas</span>",
		"response": " ",
		"trial": "exp-sent",
		"word": "Elas",
		"trial_type": "html-keyboard-response",
		"trial_index": 184,
		"time_elapsed": 915223,
		"internal_node_id": "0.0-3.0-1.142"
	},
	{
		"rt": 69,
		"stimulus": "<span style=\"font-size:30px; font-family: monospace\">não</span>",
		"response": " ",
		"trial": "exp-sent",
		"word": "não",
		"trial_type": "html-keyboard-response",
		"trial_index": 185,
		"time_elapsed": 915543,
		"internal_node_id": "0.0-3.0-1.143"
	},
	{
		"rt": 69,
		"stimulus": "<span style=\"font-size:30px; font-family: monospace\">viram</span>",
		"response": " ",
		"trial": "exp-sent",
		"word": "viram",
		"trial_type": "html-keyboard-response",
		"trial_index": 186,
		"time_elapsed": 915863,
		"internal_node_id": "0.0-3.0-1.144"
	},
	{
		"rt": 45,
		"stimulus": "<span style=\"font-size:30px; font-family: monospace\">nenhuma</span>",
		"response": " ",
		"trial": "exp-sent",
		"word": "nenhuma",
		"trial_type": "html-keyboard-response",
		"trial_index": 187,
		"time_elapsed": 916159,
		"internal_node_id": "0.0-3.0-1.145"
	},
	{
		"rt": 52,
		"stimulus": "<span style=\"font-size:30px; font-family: monospace\">diferença</span>",
		"response": " ",
		"trial": "exp-sent",
		"word": "diferença",
		"trial_type": "html-keyboard-response",
		"trial_index": 188,
		"time_elapsed": 916463,
		"internal_node_id": "0.0-3.0-1.146"
	},
	{
		"rt": 44,
		"stimulus": "<span style=\"font-size:30px; font-family: monospace\">entre</span>",
		"response": " ",
		"trial": "exp-sent",
		"word": "entre",
		"trial_type": "html-keyboard-response",
		"trial_index": 189,
		"time_elapsed": 916759,
		"internal_node_id": "0.0-3.0-1.147"
	},
	{
		"rt": 36,
		"stimulus": "<span style=\"font-size:30px; font-family: monospace\">os</span>",
		"response": " ",
		"trial": "exp-sent",
		"word": "os",
		"trial_type": "html-keyboard-response",
		"trial_index": 190,
		"time_elapsed": 917047,
		"internal_node_id": "0.0-3.0-1.148"
	},
	{
		"rt": 44,
		"stimulus": "<span style=\"font-size:30px; font-family: monospace\">textos.</span>",
		"response": " ",
		"trial": "exp-sent",
		"word": "textos.",
		"trial_type": "html-keyboard-response",
		"trial_index": 191,
		"time_elapsed": 917343,
		"internal_node_id": "0.0-3.0-1.149"
	},
	{
		"rt": null,
		"stimulus": "<span style= \"font-size:30px; font-family: monospace\">+</span>",
		"response": null,
		"trial_part": "fixation",
		"trial_type": "html-keyboard-response",
		"trial_index": 192,
		"time_elapsed": 918596,
		"internal_node_id": "0.0-3.0-0.150-0.150"
	},
	{
		"rt": 239,
		"stimulus": "<span style=\"font-size:30px; font-family: monospace\">Amanhã</span>",
		"response": " ",
		"trial": "exp-sent",
		"word": "Amanhã",
		"trial_type": "html-keyboard-response",
		"trial_index": 193,
		"time_elapsed": 919087,
		"internal_node_id": "0.0-3.0-1.150"
	},
	{
		"rt": 77,
		"stimulus": "<span style=\"font-size:30px; font-family: monospace\">vai</span>",
		"response": " ",
		"trial": "exp-sent",
		"word": "vai",
		"trial_type": "html-keyboard-response",
		"trial_index": 194,
		"time_elapsed": 919415,
		"internal_node_id": "0.0-3.0-1.151"
	},
	{
		"rt": 44,
		"stimulus": "<span style=\"font-size:30px; font-family: monospace\">ter</span>",
		"response": " ",
		"trial": "exp-sent",
		"word": "ter",
		"trial_type": "html-keyboard-response",
		"trial_index": 195,
		"time_elapsed": 919711,
		"internal_node_id": "0.0-3.0-1.152"
	},
	{
		"rt": 60,
		"stimulus": "<span style=\"font-size:30px; font-family: monospace\">um</span>",
		"response": " ",
		"trial": "exp-sent",
		"word": "um",
		"trial_type": "html-keyboard-response",
		"trial_index": 196,
		"time_elapsed": 920023,
		"internal_node_id": "0.0-3.0-1.153"
	},
	{
		"rt": 28,
		"stimulus": "<span style=\"font-size:30px; font-family: monospace\">bazar</span>",
		"response": " ",
		"trial": "exp-sent",
		"word": "bazar",
		"trial_type": "html-keyboard-response",
		"trial_index": 197,
		"time_elapsed": 920303,
		"internal_node_id": "0.0-3.0-1.154"
	},
	{
		"rt": 28,
		"stimulus": "<span style=\"font-size:30px; font-family: monospace\">no</span>",
		"response": " ",
		"trial": "exp-sent",
		"word": "no",
		"trial_type": "html-keyboard-response",
		"trial_index": 198,
		"time_elapsed": 920583,
		"internal_node_id": "0.0-3.0-1.155"
	},
	{
		"rt": 28,
		"stimulus": "<span style=\"font-size:30px; font-family: monospace\">bairro.</span>",
		"response": " ",
		"trial": "comp",
		"word": "bairro.",
		"trial_type": "html-keyboard-response",
		"trial_index": 199,
		"time_elapsed": 920863,
		"internal_node_id": "0.0-3.0-1.156"
	},
	{
		"rt": 7477,
		"stimulus": "<span style=\"font-size:30px; font-family: monospace\">Amanhã vai acontecer um bazar no bairro?</span>",
		"response": "s",
		"question": "Amanhã vai acontecer um bazar no bairro?",
		"answer": "sim",
		"trial": "comp",
		"trial_type": "html-keyboard-response",
		"trial_index": 200,
		"time_elapsed": 928592,
		"internal_node_id": "0.0-3.0-2.156-0.156",
		"accuracy": false
	},
	{
		"rt": null,
		"stimulus": "<span style= \"font-size:30px; font-family: monospace\">+</span>",
		"response": null,
		"trial_part": "fixation",
		"trial_type": "html-keyboard-response",
		"trial_index": 201,
		"time_elapsed": 930094,
		"internal_node_id": "0.0-3.0-0.157-0.157"
	},
	{
		"rt": 84233665,
		"stimulus": "<span style=\"font-size:30px; font-family: monospace\">A</span>",
		"response": " ",
		"trial": "exp-sent",
		"word": "A",
		"trial_type": "html-keyboard-response",
		"trial_index": 202,
		"time_elapsed": 85167915,
		"internal_node_id": "0.0-3.0-1.157"
	},
	{
		"rt": 5300,
		"stimulus": "<span style=\"font-size:30px; font-family: monospace\">motorista</span>",
		"response": " ",
		"trial": "exp-sent",
		"word": "motorista",
		"trial_type": "html-keyboard-response",
		"trial_index": 203,
		"time_elapsed": 85173482,
		"internal_node_id": "0.0-3.0-1.158"
	},
	{
		"rt": 518,
		"stimulus": "<span style=\"font-size:30px; font-family: monospace\">fez</span>",
		"response": " ",
		"trial": "exp-sent",
		"word": "fez",
		"trial_type": "html-keyboard-response",
		"trial_index": 204,
		"time_elapsed": 85174266,
		"internal_node_id": "0.0-3.0-1.159"
	},
	{
		"rt": 388,
		"stimulus": "<span style=\"font-size:30px; font-family: monospace\">o</span>",
		"response": " ",
		"trial": "exp-sent",
		"word": "o",
		"trial_type": "html-keyboard-response",
		"trial_index": 205,
		"time_elapsed": 85174922,
		"internal_node_id": "0.0-3.0-1.160"
	},
	{
		"rt": 324,
		"stimulus": "<span style=\"font-size:30px; font-family: monospace\">retorno</span>",
		"response": " ",
		"trial": "exp-sent",
		"word": "retorno",
		"trial_type": "html-keyboard-response",
		"trial_index": 206,
		"time_elapsed": 85175514,
		"internal_node_id": "0.0-3.0-1.161"
	},
	{
		"rt": 354,
		"stimulus": "<span style=\"font-size:30px; font-family: monospace\">com</span>",
		"response": " ",
		"trial": "exp-sent",
		"word": "com",
		"trial_type": "html-keyboard-response",
		"trial_index": 207,
		"time_elapsed": 85176130,
		"internal_node_id": "0.0-3.0-1.162"
	},
	{
		"rt": 205,
		"stimulus": "<span style=\"font-size:30px; font-family: monospace\">cuidado.</span>",
		"response": " ",
		"trial": "exp-sent",
		"word": "cuidado.",
		"trial_type": "html-keyboard-response",
		"trial_index": 208,
		"time_elapsed": 85176602,
		"internal_node_id": "0.0-3.0-1.163"
	},
	{
		"rt": null,
		"stimulus": "<span style= \"font-size:30px; font-family: monospace\">+</span>",
		"response": null,
		"trial_part": "fixation",
		"trial_type": "html-keyboard-response",
		"trial_index": 209,
		"time_elapsed": 85177861,
		"internal_node_id": "0.0-3.0-0.164-0.164"
	},
	{
		"rt": 11518,
		"stimulus": "<span style=\"font-size:30px; font-family: monospace\">Contos</span>",
		"response": " ",
		"trial": "exp-sent",
		"word": "Contos",
		"trial_type": "html-keyboard-response",
		"trial_index": 210,
		"time_elapsed": 85189635,
		"internal_node_id": "0.0-3.0-1.164"
	},
	{
		"rt": 218,
		"stimulus": "<span style=\"font-size:30px; font-family: monospace\">de</span>",
		"response": " ",
		"trial": "exp-sent",
		"word": "de",
		"trial_type": "html-keyboard-response",
		"trial_index": 211,
		"time_elapsed": 85190115,
		"internal_node_id": "0.0-3.0-1.165"
	},
	{
		"rt": 308,
		"stimulus": "<span style=\"font-size:30px; font-family: monospace\">ação</span>",
		"response": " ",
		"trial": "exp-sent",
		"word": "ação",
		"trial_type": "html-keyboard-response",
		"trial_index": 212,
		"time_elapsed": 85190683,
		"internal_node_id": "0.0-3.0-1.166"
	},
	{
		"rt": 862,
		"stimulus": "<span style=\"font-size:30px; font-family: monospace\">têm</span>",
		"response": " ",
		"trial": "exp-sent",
		"word": "têm",
		"trial_type": "html-keyboard-response",
		"trial_index": 213,
		"time_elapsed": 85191811,
		"internal_node_id": "0.0-3.0-1.167"
	},
	{
		"rt": 752,
		"stimulus": "<span style=\"font-size:30px; font-family: monospace\">chantagem</span>",
		"response": " ",
		"trial": "exp-sent",
		"word": "chantagem",
		"trial_type": "html-keyboard-response",
		"trial_index": 214,
		"time_elapsed": 85192819,
		"internal_node_id": "0.0-3.0-1.168"
	},
	{
		"rt": 369,
		"stimulus": "<span style=\"font-size:30px; font-family: monospace\">e</span>",
		"response": " ",
		"trial": "exp-sent",
		"word": "e",
		"trial_type": "html-keyboard-response",
		"trial_index": 215,
		"time_elapsed": 85193443,
		"internal_node_id": "0.0-3.0-1.169"
	},
	{
		"rt": 570,
		"stimulus": "<span style=\"font-size:30px; font-family: monospace\">muita</span>",
		"response": " ",
		"trial": "exp-sent",
		"word": "muita",
		"trial_type": "html-keyboard-response",
		"trial_index": 216,
		"time_elapsed": 85194267,
		"internal_node_id": "0.0-3.0-1.170"
	},
	{
		"rt": 340,
		"stimulus": "<span style=\"font-size:30px; font-family: monospace\">luta.</span>",
		"response": " ",
		"trial": "exp-sent",
		"word": "luta.",
		"trial_type": "html-keyboard-response",
		"trial_index": 217,
		"time_elapsed": 85194867,
		"internal_node_id": "0.0-3.0-1.171"
	},
	{
		"rt": null,
		"stimulus": "<span style= \"font-size:30px; font-family: monospace\">+</span>",
		"response": null,
		"trial_part": "fixation",
		"trial_type": "html-keyboard-response",
		"trial_index": 218,
		"time_elapsed": 85196139,
		"internal_node_id": "0.0-3.0-0.172-0.172"
	},
	{
		"rt": 9113,
		"stimulus": "<span style=\"font-size:30px; font-family: monospace\">A</span>",
		"response": " ",
		"trial": "exp-sent",
		"word": "A",
		"trial_type": "html-keyboard-response",
		"trial_index": 219,
		"time_elapsed": 85205507,
		"internal_node_id": "0.0-3.0-1.172"
	},
	{
		"rt": 324,
		"stimulus": "<span style=\"font-size:30px; font-family: monospace\">bisavó</span>",
		"response": " ",
		"trial": "exp-sent",
		"word": "bisavó",
		"trial_type": "html-keyboard-response",
		"trial_index": 220,
		"time_elapsed": 85206083,
		"internal_node_id": "0.0-3.0-1.173"
	},
	{
		"rt": 2437,
		"stimulus": "<span style=\"font-size:30px; font-family: monospace\">recebeu</span>",
		"response": " ",
		"trial": "exp-sent",
		"word": "recebeu",
		"trial_type": "html-keyboard-response",
		"trial_index": 221,
		"time_elapsed": 85208771,
		"internal_node_id": "0.0-3.0-1.174"
	},
	{
		"rt": 181,
		"stimulus": "<span style=\"font-size:30px; font-family: monospace\">um</span>",
		"response": " ",
		"trial": "exp-sent",
		"word": "um",
		"trial_type": "html-keyboard-response",
		"trial_index": 222,
		"time_elapsed": 85209204,
		"internal_node_id": "0.0-3.0-1.175"
	},
	{
		"rt": 140,
		"stimulus": "<span style=\"font-size:30px; font-family: monospace\">benefício</span>",
		"response": " ",
		"trial": "exp-sent",
		"word": "benefício",
		"trial_type": "html-keyboard-response",
		"trial_index": 223,
		"time_elapsed": 85209595,
		"internal_node_id": "0.0-3.0-1.176"
	},
	{
		"rt": 148,
		"stimulus": "<span style=\"font-size:30px; font-family: monospace\">temporário</span>",
		"response": " ",
		"trial": "exp-sent",
		"word": "temporário",
		"trial_type": "html-keyboard-response",
		"trial_index": 224,
		"time_elapsed": 85209995,
		"internal_node_id": "0.0-3.0-1.177"
	},
	{
		"rt": 108,
		"stimulus": "<span style=\"font-size:30px; font-family: monospace\">do</span>",
		"response": " ",
		"trial": "exp-sent",
		"word": "do",
		"trial_type": "html-keyboard-response",
		"trial_index": 225,
		"time_elapsed": 85210355,
		"internal_node_id": "0.0-3.0-1.178"
	},
	{
		"rt": 149,
		"stimulus": "<span style=\"font-size:30px; font-family: monospace\">governo.</span>",
		"response": " ",
		"trial": "exp-sent",
		"word": "governo.",
		"trial_type": "html-keyboard-response",
		"trial_index": 226,
		"time_elapsed": 85210755,
		"internal_node_id": "0.0-3.0-1.179"
	},
	{
		"rt": null,
		"stimulus": "<span style= \"font-size:30px; font-family: monospace\">+</span>",
		"response": null,
		"trial_part": "fixation",
		"trial_type": "html-keyboard-response",
		"trial_index": 227,
		"time_elapsed": 85212009,
		"internal_node_id": "0.0-3.0-0.180-0.180"
	},
	{
		"rt": 376,
		"stimulus": "<span style=\"font-size:30px; font-family: monospace\">As</span>",
		"response": " ",
		"trial": "exp-sent",
		"word": "As",
		"trial_type": "html-keyboard-response",
		"trial_index": 228,
		"time_elapsed": 85212636,
		"internal_node_id": "0.0-3.0-1.180"
	},
	{
		"rt": 786,
		"stimulus": "<span style=\"font-size:30px; font-family: monospace\">crianças</span>",
		"response": " ",
		"trial": "exp-sent",
		"word": "crianças",
		"trial_type": "html-keyboard-response",
		"trial_index": 229,
		"time_elapsed": 85213683,
		"internal_node_id": "0.0-3.0-1.181"
	},
	{
		"rt": 540,
		"stimulus": "<span style=\"font-size:30px; font-family: monospace\">brincaram</span>",
		"response": " ",
		"trial": "exp-sent",
		"word": "brincaram",
		"trial_type": "html-keyboard-response",
		"trial_index": 230,
		"time_elapsed": 85214475,
		"internal_node_id": "0.0-3.0-1.182"
	},
	{
		"rt": 948,
		"stimulus": "<span style=\"font-size:30px; font-family: monospace\">no</span>",
		"response": " ",
		"trial": "exp-sent",
		"word": "no",
		"trial_type": "html-keyboard-response",
		"trial_index": 231,
		"time_elapsed": 85215676,
		"internal_node_id": "0.0-3.0-1.183"
	},
	{
		"rt": 708,
		"stimulus": "<span style=\"font-size:30px; font-family: monospace\">balanço</span>",
		"response": " ",
		"trial": "exp-sent",
		"word": "balanço",
		"trial_type": "html-keyboard-response",
		"trial_index": 232,
		"time_elapsed": 85216635,
		"internal_node_id": "0.0-3.0-1.184"
	},
	{
		"rt": 1492,
		"stimulus": "<span style=\"font-size:30px; font-family: monospace\">a</span>",
		"response": " ",
		"trial": "exp-sent",
		"word": "a",
		"trial_type": "html-keyboard-response",
		"trial_index": 233,
		"time_elapsed": 85218379,
		"internal_node_id": "0.0-3.0-1.185"
	},
	{
		"rt": 1476,
		"stimulus": "<span style=\"font-size:30px; font-family: monospace\">tarde</span>",
		"response": " ",
		"trial": "exp-sent",
		"word": "tarde",
		"trial_type": "html-keyboard-response",
		"trial_index": 234,
		"time_elapsed": 85220108,
		"internal_node_id": "0.0-3.0-1.186"
	},
	{
		"rt": 396,
		"stimulus": "<span style=\"font-size:30px; font-family: monospace\">toda.</span>",
		"response": " ",
		"trial": "exp-sent",
		"word": "toda.",
		"trial_type": "html-keyboard-response",
		"trial_index": 235,
		"time_elapsed": 85220756,
		"internal_node_id": "0.0-3.0-1.187"
	},
	{
		"rt": null,
		"stimulus": "<span style= \"font-size:30px; font-family: monospace\">+</span>",
		"response": null,
		"trial_part": "fixation",
		"trial_type": "html-keyboard-response",
		"trial_index": 236,
		"time_elapsed": 85222009,
		"internal_node_id": "0.0-3.0-0.188-0.188"
	},
	{
		"rt": 487,
		"stimulus": "<span style=\"font-size:30px; font-family: monospace\">Ela</span>",
		"response": " ",
		"trial": "exp-sent",
		"word": "Ela",
		"trial_type": "html-keyboard-response",
		"trial_index": 237,
		"time_elapsed": 85222748,
		"internal_node_id": "0.0-3.0-1.188"
	},
	{
		"rt": 405,
		"stimulus": "<span style=\"font-size:30px; font-family: monospace\">gosta</span>",
		"response": " ",
		"trial": "exp-sent",
		"word": "gosta",
		"trial_type": "html-keyboard-response",
		"trial_index": 238,
		"time_elapsed": 85223404,
		"internal_node_id": "0.0-3.0-1.189"
	},
	{
		"rt": 376,
		"stimulus": "<span style=\"font-size:30px; font-family: monospace\">de</span>",
		"response": " ",
		"trial": "exp-sent",
		"word": "de",
		"trial_type": "html-keyboard-response",
		"trial_index": 239,
		"time_elapsed": 85224036,
		"internal_node_id": "0.0-3.0-1.190"
	},
	{
		"rt": 709,
		"stimulus": "<span style=\"font-size:30px; font-family: monospace\">comida</span>",
		"response": " ",
		"trial": "exp-sent",
		"word": "comida",
		"trial_type": "html-keyboard-response",
		"trial_index": 240,
		"time_elapsed": 85224996,
		"internal_node_id": "0.0-3.0-1.191"
	},
	{
		"rt": 1244,
		"stimulus": "<span style=\"font-size:30px; font-family: monospace\">natural</span>",
		"response": " ",
		"trial": "exp-sent",
		"word": "natural",
		"trial_type": "html-keyboard-response",
		"trial_index": 241,
		"time_elapsed": 85226493,
		"internal_node_id": "0.0-3.0-1.192"
	},
	{
		"rt": 11149,
		"stimulus": "<span style=\"font-size:30px; font-family: monospace\">no</span>",
		"response": " ",
		"trial": "exp-sent",
		"word": "no",
		"trial_type": "html-keyboard-response",
		"trial_index": 242,
		"time_elapsed": 85237894,
		"internal_node_id": "0.0-3.0-1.193"
	},
	{
		"rt": 1107,
		"stimulus": "<span style=\"font-size:30px; font-family: monospace\">almoço.</span>",
		"response": " ",
		"trial": "comp",
		"word": "almoço.",
		"trial_type": "html-keyboard-response",
		"trial_index": 243,
		"time_elapsed": 85239253,
		"internal_node_id": "0.0-3.0-1.194"
	},
	{
		"rt": 9477,
		"stimulus": "<span style=\"font-size:30px; font-family: monospace\">Ela gosta de comida natural no almoço?</span>",
		"response": "s",
		"question": "Ela gosta de comida natural no almoço?",
		"answer": "sim",
		"trial": "comp",
		"trial_type": "html-keyboard-response",
		"trial_index": 244,
		"time_elapsed": 85248982,
		"internal_node_id": "0.0-3.0-2.194-0.194",
		"accuracy": false
	},
	{
		"rt": null,
		"stimulus": "<span style= \"font-size:30px; font-family: monospace\">+</span>",
		"response": null,
		"trial_part": "fixation",
		"trial_type": "html-keyboard-response",
		"trial_index": 245,
		"time_elapsed": 85250486,
		"internal_node_id": "0.0-3.0-0.195-0.195"
	},
	{
		"rt": 9701,
		"stimulus": "<span style=\"font-size:30px; font-family: monospace\">O</span>",
		"response": " ",
		"trial": "exp-sent",
		"word": "O",
		"trial_type": "html-keyboard-response",
		"trial_index": 246,
		"time_elapsed": 85260438,
		"internal_node_id": "0.0-3.0-1.195"
	},
	{
		"rt": 2676,
		"stimulus": "<span style=\"font-size:30px; font-family: monospace\">moço</span>",
		"response": " ",
		"trial": "exp-sent",
		"word": "moço",
		"trial_type": "html-keyboard-response",
		"trial_index": 247,
		"time_elapsed": 85263366,
		"internal_node_id": "0.0-3.0-1.196"
	},
	{
		"rt": 740,
		"stimulus": "<span style=\"font-size:30px; font-family: monospace\">usou</span>",
		"response": " ",
		"trial": "exp-sent",
		"word": "usou",
		"trial_type": "html-keyboard-response",
		"trial_index": 248,
		"time_elapsed": 85264358,
		"internal_node_id": "0.0-3.0-1.197"
	},
	{
		"rt": 708,
		"stimulus": "<span style=\"font-size:30px; font-family: monospace\">várias</span>",
		"response": " ",
		"trial": "exp-sent",
		"word": "várias",
		"trial_type": "html-keyboard-response",
		"trial_index": 249,
		"time_elapsed": 85265318,
		"internal_node_id": "0.0-3.0-1.198"
	},
	{
		"rt": 1004,
		"stimulus": "<span style=\"font-size:30px; font-family: monospace\">velas</span>",
		"response": " ",
		"trial": "exp-sent",
		"word": "velas",
		"trial_type": "html-keyboard-response",
		"trial_index": 250,
		"time_elapsed": 85266574,
		"internal_node_id": "0.0-3.0-1.199"
	},
	{
		"rt": 668,
		"stimulus": "<span style=\"font-size:30px; font-family: monospace\">no</span>",
		"response": " ",
		"trial": "exp-sent",
		"word": "no",
		"trial_type": "html-keyboard-response",
		"trial_index": 251,
		"time_elapsed": 85267494,
		"internal_node_id": "0.0-3.0-1.200"
	},
	{
		"rt": 812,
		"stimulus": "<span style=\"font-size:30px; font-family: monospace\">enfeite</span>",
		"response": " ",
		"trial": "exp-sent",
		"word": "enfeite",
		"trial_type": "html-keyboard-response",
		"trial_index": 252,
		"time_elapsed": 85268558,
		"internal_node_id": "0.0-3.0-1.201"
	},
	{
		"rt": 596,
		"stimulus": "<span style=\"font-size:30px; font-family: monospace\">de</span>",
		"response": " ",
		"trial": "exp-sent",
		"word": "de",
		"trial_type": "html-keyboard-response",
		"trial_index": 253,
		"time_elapsed": 85269406,
		"internal_node_id": "0.0-3.0-1.202"
	},
	{
		"rt": 484,
		"stimulus": "<span style=\"font-size:30px; font-family: monospace\">mesa.</span>",
		"response": " ",
		"trial": "exp-sent",
		"word": "mesa.",
		"trial_type": "html-keyboard-response",
		"trial_index": 254,
		"time_elapsed": 85270142,
		"internal_node_id": "0.0-3.0-1.203"
	},
	{
		"rt": null,
		"stimulus": "<span style= \"font-size:30px; font-family: monospace\">+</span>",
		"response": null,
		"trial_part": "fixation",
		"trial_type": "html-keyboard-response",
		"trial_index": 255,
		"time_elapsed": 85271396,
		"internal_node_id": "0.0-3.0-0.204-0.204"
	},
	{
		"rt": 50857,
		"stimulus": "<span style=\"font-size:30px; font-family: monospace\">Gostamos</span>",
		"response": " ",
		"trial": "exp-sent",
		"word": "Gostamos",
		"trial_type": "html-keyboard-response",
		"trial_index": 256,
		"time_elapsed": 85322505,
		"internal_node_id": "0.0-3.0-1.204"
	},
	{
		"rt": 571,
		"stimulus": "<span style=\"font-size:30px; font-family: monospace\">de</span>",
		"response": " ",
		"trial": "exp-sent",
		"word": "de",
		"trial_type": "html-keyboard-response",
		"trial_index": 257,
		"time_elapsed": 85323328,
		"internal_node_id": "0.0-3.0-1.205"
	},
	{
		"rt": 1123,
		"stimulus": "<span style=\"font-size:30px; font-family: monospace\">suco</span>",
		"response": " ",
		"trial": "exp-sent",
		"word": "suco",
		"trial_type": "html-keyboard-response",
		"trial_index": 258,
		"time_elapsed": 85324703,
		"internal_node_id": "0.0-3.0-1.206"
	},
	{
		"rt": 733,
		"stimulus": "<span style=\"font-size:30px; font-family: monospace\">em</span>",
		"response": " ",
		"trial": "exp-sent",
		"word": "em",
		"trial_type": "html-keyboard-response",
		"trial_index": 259,
		"time_elapsed": 85325688,
		"internal_node_id": "0.0-3.0-1.207"
	},
	{
		"rt": 532,
		"stimulus": "<span style=\"font-size:30px; font-family: monospace\">garrafa</span>",
		"response": " ",
		"trial": "exp-sent",
		"word": "garrafa",
		"trial_type": "html-keyboard-response",
		"trial_index": 260,
		"time_elapsed": 85326472,
		"internal_node_id": "0.0-3.0-1.208"
	},
	{
		"rt": 460,
		"stimulus": "<span style=\"font-size:30px; font-family: monospace\">de</span>",
		"response": " ",
		"trial": "exp-sent",
		"word": "de",
		"trial_type": "html-keyboard-response",
		"trial_index": 261,
		"time_elapsed": 85327184,
		"internal_node_id": "0.0-3.0-1.209"
	},
	{
		"rt": 436,
		"stimulus": "<span style=\"font-size:30px; font-family: monospace\">tamanho</span>",
		"response": " ",
		"trial": "exp-sent",
		"word": "tamanho",
		"trial_type": "html-keyboard-response",
		"trial_index": 262,
		"time_elapsed": 85327872,
		"internal_node_id": "0.0-3.0-1.210"
	},
	{
		"rt": 348,
		"stimulus": "<span style=\"font-size:30px; font-family: monospace\">pequeno.</span>",
		"response": " ",
		"trial": "exp-sent",
		"word": "pequeno.",
		"trial_type": "html-keyboard-response",
		"trial_index": 263,
		"time_elapsed": 85328472,
		"internal_node_id": "0.0-3.0-1.211"
	},
	{
		"rt": null,
		"stimulus": "<span style= \"font-size:30px; font-family: monospace\">+</span>",
		"response": null,
		"trial_part": "fixation",
		"trial_type": "html-keyboard-response",
		"trial_index": 264,
		"time_elapsed": 85329725,
		"internal_node_id": "0.0-3.0-0.212-0.212"
	},
	{
		"rt": 6760,
		"stimulus": "<span style=\"font-size:30px; font-family: monospace\">Sua</span>",
		"response": " ",
		"trial": "exp-sent",
		"word": "Sua",
		"trial_type": "html-keyboard-response",
		"trial_index": 265,
		"time_elapsed": 85336736,
		"internal_node_id": "0.0-3.0-1.212"
	},
	{
		"rt": 1268,
		"stimulus": "<span style=\"font-size:30px; font-family: monospace\">filha</span>",
		"response": " ",
		"trial": "exp-sent",
		"word": "filha",
		"trial_type": "html-keyboard-response",
		"trial_index": 266,
		"time_elapsed": 85338256,
		"internal_node_id": "0.0-3.0-1.213"
	},
	{
		"rt": 571,
		"stimulus": "<span style=\"font-size:30px; font-family: monospace\">é</span>",
		"response": " ",
		"trial": "exp-sent",
		"word": "é",
		"trial_type": "html-keyboard-response",
		"trial_index": 267,
		"time_elapsed": 85339080,
		"internal_node_id": "0.0-3.0-1.214"
	},
	{
		"rt": 1076,
		"stimulus": "<span style=\"font-size:30px; font-family: monospace\">muito</span>",
		"response": " ",
		"trial": "exp-sent",
		"word": "muito",
		"trial_type": "html-keyboard-response",
		"trial_index": 268,
		"time_elapsed": 85340408,
		"internal_node_id": "0.0-3.0-1.215"
	},
	{
		"rt": 1347,
		"stimulus": "<span style=\"font-size:30px; font-family: monospace\">capaz</span>",
		"response": " ",
		"trial": "exp-sent",
		"word": "capaz",
		"trial_type": "html-keyboard-response",
		"trial_index": 269,
		"time_elapsed": 85342008,
		"internal_node_id": "0.0-3.0-1.216"
	},
	{
		"rt": 11589,
		"stimulus": "<span style=\"font-size:30px; font-family: monospace\">e</span>",
		"response": " ",
		"trial": "exp-sent",
		"word": "e",
		"trial_type": "html-keyboard-response",
		"trial_index": 270,
		"time_elapsed": 85353849,
		"internal_node_id": "0.0-3.0-1.217"
	},
	{
		"rt": 491,
		"stimulus": "<span style=\"font-size:30px; font-family: monospace\">esforçada.</span>",
		"response": " ",
		"trial": "exp-sent",
		"word": "esforçada.",
		"trial_type": "html-keyboard-response",
		"trial_index": 271,
		"time_elapsed": 85354593,
		"internal_node_id": "0.0-3.0-1.218"
	},
	{
		"rt": null,
		"stimulus": "<span style= \"font-size:30px; font-family: monospace\">+</span>",
		"response": null,
		"trial_part": "fixation",
		"trial_type": "html-keyboard-response",
		"trial_index": 272,
		"time_elapsed": 85355845,
		"internal_node_id": "0.0-3.0-0.219-0.219"
	},
	{
		"rt": 19633,
		"stimulus": "<span style=\"font-size:30px; font-family: monospace\">A</span>",
		"response": " ",
		"trial": "exp-sent",
		"word": "A",
		"trial_type": "html-keyboard-response",
		"trial_index": 273,
		"time_elapsed": 85375730,
		"internal_node_id": "0.0-3.0-1.219"
	},
	{
		"rt": 9836,
		"stimulus": "<span style=\"font-size:30px; font-family: monospace\">batida</span>",
		"response": " ",
		"trial": "exp-sent",
		"word": "batida",
		"trial_type": "html-keyboard-response",
		"trial_index": 274,
		"time_elapsed": 85385818,
		"internal_node_id": "0.0-3.0-1.220"
	},
	{
		"rt": 15476,
		"stimulus": "<span style=\"font-size:30px; font-family: monospace\">causou</span>",
		"response": " ",
		"trial": "exp-sent",
		"word": "causou",
		"trial_type": "html-keyboard-response",
		"trial_index": 275,
		"time_elapsed": 85401547,
		"internal_node_id": "0.0-3.0-1.221"
	},
	{
		"rt": 15605,
		"stimulus": "<span style=\"font-size:30px; font-family: monospace\">muita</span>",
		"response": " ",
		"trial": "exp-sent",
		"word": "muita",
		"trial_type": "html-keyboard-response",
		"trial_index": 276,
		"time_elapsed": 85417403,
		"internal_node_id": "0.0-3.0-1.222"
	},
	{
		"rt": 8612,
		"stimulus": "<span style=\"font-size:30px; font-family: monospace\">confusão</span>",
		"response": " ",
		"trial": "exp-sent",
		"word": "confusão",
		"trial_type": "html-keyboard-response",
		"trial_index": 277,
		"time_elapsed": 85426267,
		"internal_node_id": "0.0-3.0-1.223"
	},
	{
		"rt": 5020,
		"stimulus": "<span style=\"font-size:30px; font-family: monospace\">na</span>",
		"response": " ",
		"trial": "exp-sent",
		"word": "na",
		"trial_type": "html-keyboard-response",
		"trial_index": 278,
		"time_elapsed": 85431547,
		"internal_node_id": "0.0-3.0-1.224"
	},
	{
		"rt": 7734,
		"stimulus": "<span style=\"font-size:30px; font-family: monospace\">estrada.</span>",
		"response": " ",
		"trial": "exp-sent",
		"word": "estrada.",
		"trial_type": "html-keyboard-response",
		"trial_index": 279,
		"time_elapsed": 85439547,
		"internal_node_id": "0.0-3.0-1.225"
	},
	{
		"rt": null,
		"stimulus": "<span style= \"font-size:30px; font-family: monospace\">+</span>",
		"response": null,
		"trial_part": "fixation",
		"trial_type": "html-keyboard-response",
		"trial_index": 280,
		"time_elapsed": 85440819,
		"internal_node_id": "0.0-3.0-0.226-0.226"
	},
	{
		"rt": 11525,
		"stimulus": "<span style=\"font-size:30px; font-family: monospace\">Eu</span>",
		"response": " ",
		"trial": "exp-sent",
		"word": "Eu",
		"trial_type": "html-keyboard-response",
		"trial_index": 281,
		"time_elapsed": 85452596,
		"internal_node_id": "0.0-3.0-1.226"
	},
	{
		"rt": 692,
		"stimulus": "<span style=\"font-size:30px; font-family: monospace\">cozinhei</span>",
		"response": " ",
		"trial": "exp-sent",
		"word": "cozinhei",
		"trial_type": "html-keyboard-response",
		"trial_index": 282,
		"time_elapsed": 85453539,
		"internal_node_id": "0.0-3.0-1.227"
	},
	{
		"rt": 828,
		"stimulus": "<span style=\"font-size:30px; font-family: monospace\">um</span>",
		"response": " ",
		"trial": "exp-sent",
		"word": "um",
		"trial_type": "html-keyboard-response",
		"trial_index": 283,
		"time_elapsed": 85454619,
		"internal_node_id": "0.0-3.0-1.228"
	},
	{
		"rt": 812,
		"stimulus": "<span style=\"font-size:30px; font-family: monospace\">almoço</span>",
		"response": " ",
		"trial": "exp-sent",
		"word": "almoço",
		"trial_type": "html-keyboard-response",
		"trial_index": 284,
		"time_elapsed": 85455683,
		"internal_node_id": "0.0-3.0-1.229"
	},
	{
		"rt": 1620,
		"stimulus": "<span style=\"font-size:30px; font-family: monospace\">nutritivo</span>",
		"response": " ",
		"trial": "exp-sent",
		"word": "nutritivo",
		"trial_type": "html-keyboard-response",
		"trial_index": 285,
		"time_elapsed": 85457556,
		"internal_node_id": "0.0-3.0-1.230"
	},
	{
		"rt": 518,
		"stimulus": "<span style=\"font-size:30px; font-family: monospace\">para</span>",
		"response": " ",
		"trial": "exp-sent",
		"word": "para",
		"trial_type": "html-keyboard-response",
		"trial_index": 286,
		"time_elapsed": 85458332,
		"internal_node_id": "0.0-3.0-1.231"
	},
	{
		"rt": 315,
		"stimulus": "<span style=\"font-size:30px; font-family: monospace\">hoje.</span>",
		"response": " ",
		"trial": "comp",
		"word": "hoje.",
		"trial_type": "html-keyboard-response",
		"trial_index": 287,
		"time_elapsed": 85458900,
		"internal_node_id": "0.0-3.0-1.232"
	},
	{
		"rt": 6301,
		"stimulus": "<span style=\"font-size:30px; font-family: monospace\">O almoço era nutritivo?</span>",
		"response": "s",
		"question": "O almoço era nutritivo?",
		"answer": "sim",
		"trial": "comp",
		"trial_type": "html-keyboard-response",
		"trial_index": 288,
		"time_elapsed": 85465452,
		"internal_node_id": "0.0-3.0-2.232-0.232",
		"accuracy": false
	},
	{
		"rt": null,
		"stimulus": "<span style= \"font-size:30px; font-family: monospace\">+</span>",
		"response": null,
		"trial_part": "fixation",
		"trial_type": "html-keyboard-response",
		"trial_index": 289,
		"time_elapsed": 85466955,
		"internal_node_id": "0.0-3.0-0.233-0.233"
	},
	{
		"rt": 21,
		"stimulus": "<span style=\"font-size:30px; font-family: monospace\">No</span>",
		"response": " ",
		"trial": "exp-sent",
		"word": "No",
		"trial_type": "html-keyboard-response",
		"trial_index": 290,
		"time_elapsed": 85467228,
		"internal_node_id": "0.0-3.0-1.233"
	},
	{
		"rt": 253,
		"stimulus": "<span style=\"font-size:30px; font-family: monospace\">passado</span>",
		"response": " ",
		"trial": "exp-sent",
		"word": "passado",
		"trial_type": "html-keyboard-response",
		"trial_index": 291,
		"time_elapsed": 85467732,
		"internal_node_id": "0.0-3.0-1.234"
	},
	{
		"rt": 212,
		"stimulus": "<span style=\"font-size:30px; font-family: monospace\">houve</span>",
		"response": " ",
		"trial": "exp-sent",
		"word": "houve",
		"trial_type": "html-keyboard-response",
		"trial_index": 292,
		"time_elapsed": 85468196,
		"internal_node_id": "0.0-3.0-1.235"
	},
	{
		"rt": 68,
		"stimulus": "<span style=\"font-size:30px; font-family: monospace\">uma</span>",
		"response": " ",
		"trial": "exp-sent",
		"word": "uma",
		"trial_type": "html-keyboard-response",
		"trial_index": 293,
		"time_elapsed": 85468516,
		"internal_node_id": "0.0-3.0-1.236"
	},
	{
		"rt": 180,
		"stimulus": "<span style=\"font-size:30px; font-family: monospace\">rebelião</span>",
		"response": " ",
		"trial": "exp-sent",
		"word": "rebelião",
		"trial_type": "html-keyboard-response",
		"trial_index": 294,
		"time_elapsed": 85468948,
		"internal_node_id": "0.0-3.0-1.237"
	},
	{
		"rt": 43,
		"stimulus": "<span style=\"font-size:30px; font-family: monospace\">nesta</span>",
		"response": " ",
		"trial": "exp-sent",
		"word": "nesta",
		"trial_type": "html-keyboard-response",
		"trial_index": 295,
		"time_elapsed": 85469244,
		"internal_node_id": "0.0-3.0-1.238"
	},
	{
		"rt": 108,
		"stimulus": "<span style=\"font-size:30px; font-family: monospace\">cidade.</span>",
		"response": " ",
		"trial": "exp-sent",
		"word": "cidade.",
		"trial_type": "html-keyboard-response",
		"trial_index": 296,
		"time_elapsed": 85469604,
		"internal_node_id": "0.0-3.0-1.239"
	},
	{
		"rt": null,
		"stimulus": "<span style= \"font-size:30px; font-family: monospace\">+</span>",
		"response": null,
		"trial_part": "fixation",
		"trial_type": "html-keyboard-response",
		"trial_index": 297,
		"time_elapsed": 85470857,
		"internal_node_id": "0.0-3.0-0.240-0.240"
	},
	{
		"rt": 303,
		"stimulus": "<span style=\"font-size:30px; font-family: monospace\">Ele</span>",
		"response": " ",
		"trial": "exp-sent",
		"word": "Ele",
		"trial_type": "html-keyboard-response",
		"trial_index": 298,
		"time_elapsed": 85471412,
		"internal_node_id": "0.0-3.0-1.240"
	},
	{
		"rt": 36,
		"stimulus": "<span style=\"font-size:30px; font-family: monospace\">fundou</span>",
		"response": " ",
		"trial": "exp-sent",
		"word": "fundou",
		"trial_type": "html-keyboard-response",
		"trial_index": 299,
		"time_elapsed": 85471700,
		"internal_node_id": "0.0-3.0-1.241"
	},
	{
		"rt": 20,
		"stimulus": "<span style=\"font-size:30px; font-family: monospace\">uma</span>",
		"response": " ",
		"trial": "exp-sent",
		"word": "uma",
		"trial_type": "html-keyboard-response",
		"trial_index": 300,
		"time_elapsed": 85471972,
		"internal_node_id": "0.0-3.0-1.242"
	},
	{
		"rt": 44,
		"stimulus": "<span style=\"font-size:30px; font-family: monospace\">empresa</span>",
		"response": " ",
		"trial": "exp-sent",
		"word": "empresa",
		"trial_type": "html-keyboard-response",
		"trial_index": 301,
		"time_elapsed": 85472268,
		"internal_node_id": "0.0-3.0-1.243"
	},
	{
		"rt": 52,
		"stimulus": "<span style=\"font-size:30px; font-family: monospace\">privada</span>",
		"response": " ",
		"trial": "exp-sent",
		"word": "privada",
		"trial_type": "html-keyboard-response",
		"trial_index": 302,
		"time_elapsed": 85472572,
		"internal_node_id": "0.0-3.0-1.244"
	},
	{
		"rt": 60,
		"stimulus": "<span style=\"font-size:30px; font-family: monospace\">sem</span>",
		"response": " ",
		"trial": "exp-sent",
		"word": "sem",
		"trial_type": "html-keyboard-response",
		"trial_index": 303,
		"time_elapsed": 85472884,
		"internal_node_id": "0.0-3.0-1.245"
	},
	{
		"rt": 36,
		"stimulus": "<span style=\"font-size:30px; font-family: monospace\">ajuda.</span>",
		"response": " ",
		"trial": "exp-sent",
		"word": "ajuda.",
		"trial_type": "html-keyboard-response",
		"trial_index": 304,
		"time_elapsed": 85473172,
		"internal_node_id": "0.0-3.0-1.246"
	},
	{
		"rt": null,
		"stimulus": "<span style= \"font-size:30px; font-family: monospace\">+</span>",
		"response": null,
		"trial_part": "fixation",
		"trial_type": "html-keyboard-response",
		"trial_index": 305,
		"time_elapsed": 85474425,
		"internal_node_id": "0.0-3.0-0.247-0.247"
	},
	{
		"rt": 328,
		"stimulus": "<span style=\"font-size:30px; font-family: monospace\">As</span>",
		"response": " ",
		"trial": "exp-sent",
		"word": "As",
		"trial_type": "html-keyboard-response",
		"trial_index": 306,
		"time_elapsed": 85475004,
		"internal_node_id": "0.0-3.0-1.247"
	},
	{
		"rt": 52,
		"stimulus": "<span style=\"font-size:30px; font-family: monospace\">meninas</span>",
		"response": " ",
		"trial": "exp-sent",
		"word": "meninas",
		"trial_type": "html-keyboard-response",
		"trial_index": 307,
		"time_elapsed": 85475308,
		"internal_node_id": "0.0-3.0-1.248"
	},
	{
		"rt": 28,
		"stimulus": "<span style=\"font-size:30px; font-family: monospace\">encontraram</span>",
		"response": " ",
		"trial": "exp-sent",
		"word": "encontraram",
		"trial_type": "html-keyboard-response",
		"trial_index": 308,
		"time_elapsed": 85475588,
		"internal_node_id": "0.0-3.0-1.249"
	},
	{
		"rt": 60,
		"stimulus": "<span style=\"font-size:30px; font-family: monospace\">um</span>",
		"response": " ",
		"trial": "exp-sent",
		"word": "um",
		"trial_type": "html-keyboard-response",
		"trial_index": 309,
		"time_elapsed": 85475900,
		"internal_node_id": "0.0-3.0-1.250"
	},
	{
		"rt": 44,
		"stimulus": "<span style=\"font-size:30px; font-family: monospace\">rato</span>",
		"response": " ",
		"trial": "exp-sent",
		"word": "rato",
		"trial_type": "html-keyboard-response",
		"trial_index": 310,
		"time_elapsed": 85476196,
		"internal_node_id": "0.0-3.0-1.251"
	},
	{
		"rt": 12,
		"stimulus": "<span style=\"font-size:30px; font-family: monospace\">dentro</span>",
		"response": " ",
		"trial": "exp-sent",
		"word": "dentro",
		"trial_type": "html-keyboard-response",
		"trial_index": 311,
		"time_elapsed": 85476460,
		"internal_node_id": "0.0-3.0-1.252"
	},
	{
		"rt": 12,
		"stimulus": "<span style=\"font-size:30px; font-family: monospace\">de</span>",
		"response": " ",
		"trial": "exp-sent",
		"word": "de",
		"trial_type": "html-keyboard-response",
		"trial_index": 312,
		"time_elapsed": 85476724,
		"internal_node_id": "0.0-3.0-1.253"
	},
	{
		"rt": 20,
		"stimulus": "<span style=\"font-size:30px; font-family: monospace\">casa.</span>",
		"response": " ",
		"trial": "exp-sent",
		"word": "casa.",
		"trial_type": "html-keyboard-response",
		"trial_index": 313,
		"time_elapsed": 85476996,
		"internal_node_id": "0.0-3.0-1.254"
	},
	{
		"rt": null,
		"stimulus": "<span style= \"font-size:30px; font-family: monospace\">+</span>",
		"response": null,
		"trial_part": "fixation",
		"trial_type": "html-keyboard-response",
		"trial_index": 314,
		"time_elapsed": 85478250,
		"internal_node_id": "0.0-3.0-0.255-0.255"
	},
	{
		"rt": 927,
		"stimulus": "<span style=\"font-size:30px; font-family: monospace\">O</span>",
		"response": " ",
		"trial": "exp-sent",
		"word": "O",
		"trial_type": "html-keyboard-response",
		"trial_index": 315,
		"time_elapsed": 85479428,
		"internal_node_id": "0.0-3.0-1.255"
	},
	{
		"rt": 53,
		"stimulus": "<span style=\"font-size:30px; font-family: monospace\">texto</span>",
		"response": " ",
		"trial": "exp-sent",
		"word": "texto",
		"trial_type": "html-keyboard-response",
		"trial_index": 316,
		"time_elapsed": 85479733,
		"internal_node_id": "0.0-3.0-1.256"
	},
	{
		"rt": 176,
		"stimulus": "<span style=\"font-size:30px; font-family: monospace\">tinha</span>",
		"response": " ",
		"trial": "exp-sent",
		"word": "tinha",
		"trial_type": "html-keyboard-response",
		"trial_index": 317,
		"time_elapsed": 85480164,
		"internal_node_id": "0.0-3.0-1.257"
	},
	{
		"rt": 20,
		"stimulus": "<span style=\"font-size:30px; font-family: monospace\">ideias</span>",
		"response": " ",
		"trial": "exp-sent",
		"word": "ideias",
		"trial_type": "html-keyboard-response",
		"trial_index": 318,
		"time_elapsed": 85480436,
		"internal_node_id": "0.0-3.0-1.258"
	},
	{
		"rt": 36,
		"stimulus": "<span style=\"font-size:30px; font-family: monospace\">vagas</span>",
		"response": " ",
		"trial": "exp-sent",
		"word": "vagas",
		"trial_type": "html-keyboard-response",
		"trial_index": 319,
		"time_elapsed": 85480725,
		"internal_node_id": "0.0-3.0-1.259"
	},
	{
		"rt": 403,
		"stimulus": "<span style=\"font-size:30px; font-family: monospace\">e</span>",
		"response": " ",
		"trial": "exp-sent",
		"word": "e",
		"trial_type": "html-keyboard-response",
		"trial_index": 320,
		"time_elapsed": 85481380,
		"internal_node_id": "0.0-3.0-1.260"
	},
	{
		"rt": 1556,
		"stimulus": "<span style=\"font-size:30px; font-family: monospace\">confusas.</span>",
		"response": " ",
		"trial": "exp-sent",
		"word": "confusas.",
		"trial_type": "html-keyboard-response",
		"trial_index": 321,
		"time_elapsed": 85483188,
		"internal_node_id": "0.0-3.0-1.261"
	},
	{
		"rt": null,
		"stimulus": "<span style= \"font-size:30px; font-family: monospace\">+</span>",
		"response": null,
		"trial_part": "fixation",
		"trial_type": "html-keyboard-response",
		"trial_index": 322,
		"time_elapsed": 85484441,
		"internal_node_id": "0.0-3.0-0.262-0.262"
	},
	{
		"rt": 415,
		"stimulus": "<span style=\"font-size:30px; font-family: monospace\">As</span>",
		"response": " ",
		"trial": "exp-sent",
		"word": "As",
		"trial_type": "html-keyboard-response",
		"trial_index": 323,
		"time_elapsed": 85485108,
		"internal_node_id": "0.0-3.0-1.262"
	},
	{
		"rt": 77,
		"stimulus": "<span style=\"font-size:30px; font-family: monospace\">crianças</span>",
		"response": " ",
		"trial": "exp-sent",
		"word": "crianças",
		"trial_type": "html-keyboard-response",
		"trial_index": 324,
		"time_elapsed": 85485437,
		"internal_node_id": "0.0-3.0-1.263"
	},
	{
		"rt": 444,
		"stimulus": "<span style=\"font-size:30px; font-family: monospace\">viram</span>",
		"response": " ",
		"trial": "exp-sent",
		"word": "viram",
		"trial_type": "html-keyboard-response",
		"trial_index": 325,
		"time_elapsed": 85486133,
		"internal_node_id": "0.0-3.0-1.264"
	},
	{
		"rt": 76,
		"stimulus": "<span style=\"font-size:30px; font-family: monospace\">a</span>",
		"response": " ",
		"trial": "exp-sent",
		"word": "a",
		"trial_type": "html-keyboard-response",
		"trial_index": 326,
		"time_elapsed": 85486460,
		"internal_node_id": "0.0-3.0-1.265"
	},
	{
		"rt": 173,
		"stimulus": "<span style=\"font-size:30px; font-family: monospace\">acrobata</span>",
		"response": " ",
		"trial": "exp-sent",
		"word": "acrobata",
		"trial_type": "html-keyboard-response",
		"trial_index": 327,
		"time_elapsed": 85486885,
		"internal_node_id": "0.0-3.0-1.266"
	},
	{
		"rt": 28,
		"stimulus": "<span style=\"font-size:30px; font-family: monospace\">talentosa</span>",
		"response": " ",
		"trial": "exp-sent",
		"word": "talentosa",
		"trial_type": "html-keyboard-response",
		"trial_index": 328,
		"time_elapsed": 85487164,
		"internal_node_id": "0.0-3.0-1.267"
	},
	{
		"rt": 28,
		"stimulus": "<span style=\"font-size:30px; font-family: monospace\">no</span>",
		"response": " ",
		"trial": "exp-sent",
		"word": "no",
		"trial_type": "html-keyboard-response",
		"trial_index": 329,
		"time_elapsed": 85487444,
		"internal_node_id": "0.0-3.0-1.268"
	},
	{
		"rt": 36,
		"stimulus": "<span style=\"font-size:30px; font-family: monospace\">circo.</span>",
		"response": " ",
		"trial": "comp",
		"word": "circo.",
		"trial_type": "html-keyboard-response",
		"trial_index": 330,
		"time_elapsed": 85487732,
		"internal_node_id": "0.0-3.0-1.269"
	},
	{
		"rt": 11805,
		"stimulus": "<span style=\"font-size:30px; font-family: monospace\">As crianças viram o palhaço no circo?</span>",
		"response": "s",
		"question": "As crianças viram o palhaço no circo?",
		"answer": "não",
		"trial": "comp",
		"trial_type": "html-keyboard-response",
		"trial_index": 331,
		"time_elapsed": 85499789,
		"internal_node_id": "0.0-3.0-2.269-0.269",
		"accuracy": false
	},
	{
		"rt": null,
		"stimulus": "<span style= \"font-size:30px; font-family: monospace\">+</span>",
		"response": null,
		"trial_part": "fixation",
		"trial_type": "html-keyboard-response",
		"trial_index": 332,
		"time_elapsed": 85501292,
		"internal_node_id": "0.0-3.0-0.270-0.270"
	},
	{
		"rt": 19174,
		"stimulus": "<span style=\"font-size:30px; font-family: monospace\">Ganhamos</span>",
		"response": " ",
		"trial": "exp-sent",
		"word": "Ganhamos",
		"trial_type": "html-keyboard-response",
		"trial_index": 333,
		"time_elapsed": 85520718,
		"internal_node_id": "0.0-3.0-1.270"
	},
	{
		"rt": 339,
		"stimulus": "<span style=\"font-size:30px; font-family: monospace\">passagem</span>",
		"response": " ",
		"trial": "exp-sent",
		"word": "passagem",
		"trial_type": "html-keyboard-response",
		"trial_index": 334,
		"time_elapsed": 85521310,
		"internal_node_id": "0.0-3.0-1.271"
	},
	{
		"rt": 180,
		"stimulus": "<span style=\"font-size:30px; font-family: monospace\">para</span>",
		"response": " ",
		"trial": "exp-sent",
		"word": "para",
		"trial_type": "html-keyboard-response",
		"trial_index": 335,
		"time_elapsed": 85521741,
		"internal_node_id": "0.0-3.0-1.272"
	},
	{
		"rt": 132,
		"stimulus": "<span style=\"font-size:30px; font-family: monospace\">uma</span>",
		"response": " ",
		"trial": "exp-sent",
		"word": "uma",
		"trial_type": "html-keyboard-response",
		"trial_index": 336,
		"time_elapsed": 85522126,
		"internal_node_id": "0.0-3.0-1.273"
	},
	{
		"rt": 453,
		"stimulus": "<span style=\"font-size:30px; font-family: monospace\">viagem</span>",
		"response": " ",
		"trial": "exp-sent",
		"word": "viagem",
		"trial_type": "html-keyboard-response",
		"trial_index": 337,
		"time_elapsed": 85522830,
		"internal_node_id": "0.0-3.0-1.274"
	},
	{
		"rt": 252,
		"stimulus": "<span style=\"font-size:30px; font-family: monospace\">de</span>",
		"response": " ",
		"trial": "exp-sent",
		"word": "de",
		"trial_type": "html-keyboard-response",
		"trial_index": 338,
		"time_elapsed": 85523334,
		"internal_node_id": "0.0-3.0-1.275"
	},
	{
		"rt": 277,
		"stimulus": "<span style=\"font-size:30px; font-family: monospace\">férias.</span>",
		"response": " ",
		"trial": "exp-sent",
		"word": "férias.",
		"trial_type": "html-keyboard-response",
		"trial_index": 339,
