[
	{
		"view_history": [
			{
				"page_index": 0,
				"viewing_time": 12538
			}
		],
		"rt": 12538,
		"trial_type": "instructions",
		"trial_index": 0,
		"time_elapsed": 12539,
		"internal_node_id": "0.0-0.0"
	},
	{
		"rt": 44221,
		"response": {
			"tcle": "Concordo voluntariamente em participar da pesquisa conforme texto acima."
		},
		"question_order": [
			0
		],
		"trial_type": "survey-multi-choice",
		"trial_index": 1,
		"time_elapsed": 56973,
		"internal_node_id": "0.0-1.0"
	},
	{
		"rt": 23353,
		"response": {
			"email": ""
		},
		"trial_type": "survey-text",
		"trial_index": 2,
		"time_elapsed": 81358,
		"internal_node_id": "0.0-2.0"
	}
]