"view_history","rt","trial_type","trial_index","time_elapsed","internal_node_id","stimulus","response","trial_part","word","question","answer","trial","accuracy"
"[{""page_index"":0,""viewing_time"":54587},{""page_index"":1,""viewing_time"":9016}]","63604","instructions","0","63605","0.0-0.0","","","","","","","",""
"","null","html-keyboard-response","1","64709","0.0-1.0-0.0-0.0","<span style= ""font-size:30px; font-family: monospace"">+</span>","null","fixation","","","","",""
"","18120","audio-keyboard-response","2","83392","0.0-1.0-1.0","../audio/prac-question-1-1.mp3"," ","","O","","","",""
"","9288","audio-keyboard-response","3","93062","0.0-1.0-1.1","../audio/prac-question-1-2.mp3"," ","","dia","","","",""
"","2480","audio-keyboard-response","4","95926","0.0-1.0-1.2","../audio/prac-question-1-3.mp3"," ","","estará","","","",""
"","2419","audio-keyboard-response","5","98710","0.0-1.0-1.3","../audio/prac-question-1-4.mp3"," ","","cheio","","","",""
"","1381","audio-keyboard-response","6","100446","0.0-1.0-1.4","../audio/prac-question-1-5.mp3"," ","","de","","","",""
"","1629","audio-keyboard-response","7","102414","0.0-1.0-1.5","../audio/prac-question-1-6.mp3"," ","","nuvens","","","",""
"","1299","audio-keyboard-response","8","104014","0.0-1.0-1.6","../audio/prac-question-1-7.mp3"," ","","hoje.","","","",""
"","null","html-keyboard-response","9","105284","0.0-1.0-0.7-0.7","<span style= ""font-size:30px; font-family: monospace"">+</span>","null","fixation","","","","",""
"","5669","audio-keyboard-response","10","111318","0.0-1.0-1.7","../audio/prac-question-2-1.mp3"," ","","A","","","",""
"","1899","audio-keyboard-response","11","113622","0.0-1.0-1.8","../audio/prac-question-2-2.mp3"," ","","caneca","","","",""
"","1440","audio-keyboard-response","12","115462","0.0-1.0-1.9","../audio/prac-question-2-3.mp3"," ","","colorida","","","",""
"","1229","audio-keyboard-response","13","116998","0.0-1.0-1.10","../audio/prac-question-2-4.mp3"," ","","caiu","","","",""
"","861","audio-keyboard-response","14","118158","0.0-1.0-1.11","../audio/prac-question-2-5.mp3"," ","","da","","","",""
"","960","audio-keyboard-response","15","119414","0.0-1.0-1.12","../audio/prac-question-2-6.mp3"," ","","mesa","","","",""
"","808","audio-keyboard-response","16","120534","0.0-1.0-1.13","../audio/prac-question-2-7.mp3"," ","","de","","","",""
"","909","audio-keyboard-response","17","121774","0.0-1.0-1.14","../audio/prac-question-2-8.mp3"," ","","jantar.","","","",""
"","13717","html-keyboard-response","18","135751","0.0-1.0-2.14-0.14","<span style=""font-size:25px; font-family: monospace"">A caneca era colorida?</span>","s","","","A caneca era colorida?","null","prac-sent","false"
"[{""page_index"":0,""viewing_time"":31616}]","31616","instructions","19","167880","0.0-2.0","","","","","","","",""
"","null","html-keyboard-response","20","168984","0.0-3.0-0.0-0.0","<span style= ""font-size:30px; font-family: monospace"">+</span>","null","fixation","","","","",""
"","181","audio-keyboard-response","21","169615","0.0-3.0-1.0","../audio/23-1-masc.mp3"," ","","Português","","","",""
"","1339","audio-keyboard-response","22","171263","0.0-3.0-1.1","../audio/23-2-masc.mp3"," ","","é","","","",""
"","1080","audio-keyboard-response","23","172639","0.0-3.0-1.2","../audio/23-3-masc.mp3"," ","","um","","","",""
"","1301","audio-keyboard-response","24","174248","0.0-3.0-1.3","../audio/23-4-masc.mp3"," ","","assunto","","","",""
"","1552","audio-keyboard-response","25","176128","0.0-3.0-1.4","../audio/23-5-masc.mp3"," ","","elementar","","","",""
"","1011","audio-keyboard-response","26","177440","0.0-3.0-1.5","../audio/23-6-masc.mp3"," ","","para","","","",""
"","931","audio-keyboard-response","27","178680","0.0-3.0-1.6","../audio/23-7-masc.mp3"," ","","os","","","",""
"","1720","audio-keyboard-response","28","180712","0.0-3.0-1.7","../audio/23-8-masc.mp3"," ","","alunos.","","","",""
"","null","html-keyboard-response","29","181968","0.0-3.0-0.8-0.8","<span style= ""font-size:30px; font-family: monospace"">+</span>","null","fixation","","","","",""
"","2520","audio-keyboard-response","30","184888","0.0-3.0-1.8","../audio/21-1-fem.mp3"," ","","Precisamos","","","",""
"","1000","audio-keyboard-response","31","186256","0.0-3.0-1.9","../audio/21-2-fem.mp3"," ","","de","","","",""
"","1691","audio-keyboard-response","32","188280","0.0-3.0-1.10","../audio/21-3-fem.mp3"," ","","paciência","","","",""
"","880","audio-keyboard-response","33","189464","0.0-3.0-1.11","../audio/21-4-fem.mp3"," ","","e","","","",""
"","1251","audio-keyboard-response","34","191056","0.0-3.0-1.12","../audio/21-5-fem.mp3"," ","","bondade","","","",""
"","1160","audio-keyboard-response","35","192528","0.0-3.0-1.13","../audio/21-6-fem.mp3"," ","","para","","","",""
"","1040","audio-keyboard-response","36","193872","0.0-3.0-1.14","../audio/21-7-fem.mp3"," ","","um","","","",""
"","1280","audio-keyboard-response","37","195464","0.0-3.0-1.15","../audio/21-8-fem.mp3"," ","","mundo","","","",""
"","1141","audio-keyboard-response","38","196936","0.0-3.0-1.16","../audio/21-9-fem.mp3"," ","","melhor.","","","",""
"","null","html-keyboard-response","39","198206","0.0-3.0-0.17-0.17","<span style= ""font-size:30px; font-family: monospace"">+</span>","null","fixation","","","","",""
"","1139","audio-keyboard-response","40","199704","0.0-3.0-1.17","../audio/24-1-fem.mp3"," ","","As","","","",""
"","1171","audio-keyboard-response","41","201200","0.0-3.0-1.18","../audio/24-2-fem.mp3"," ","","crianças","","","",""
"","891","audio-keyboard-response","42","202432","0.0-3.0-1.19","../audio/24-3-fem.mp3"," ","","vão","","","",""
"","1088","audio-keyboard-response","43","203824","0.0-3.0-1.20","../audio/24-4-fem.mp3"," ","","ao","","","",""
"","4960","audio-keyboard-response","44","209121","0.0-3.0-1.21","../audio/24-5-fem.mp3"," ","","cinema","","","",""
"","2208","audio-keyboard-response","45","211745","0.0-3.0-1.22","../audio/24-6-fem.mp3"," ","","mais","","","",""
"","2371","audio-keyboard-response","46","214489","0.0-3.0-1.23","../audio/24-7-fem.mp3"," ","","tarde.","","","",""
"","null","html-keyboard-response","47","215750","0.0-3.0-0.24-0.24","<span style= ""font-size:30px; font-family: monospace"">+</span>","null","fixation","","","","",""
"","1461","audio-keyboard-response","48","217577","0.0-3.0-1.24","../audio/22-1-fem.mp3"," ","","Eu","","","",""
"","1360","audio-keyboard-response","49","219297","0.0-3.0-1.25","../audio/22-2-fem.mp3"," ","","detesto","","","",""
"","1131","audio-keyboard-response","50","220761","0.0-3.0-1.26","../audio/22-3-fem.mp3"," ","","fumaça","","","",""
"","661","audio-keyboard-response","51","221777","0.0-3.0-1.27","../audio/22-4-fem.mp3"," ","","de","","","",""
"","949","audio-keyboard-response","52","223065","0.0-3.0-1.28","../audio/22-5-fem.mp3"," ","","cachimbo","","","",""
"","1069","audio-keyboard-response","53","224441","0.0-3.0-1.29","../audio/22-6-fem.mp3"," ","","e","","","",""
"","752","audio-keyboard-response","54","225489","0.0-3.0-1.30","../audio/22-7-fem.mp3"," ","","de","","","",""
"","1491","audio-keyboard-response","55","227337","0.0-3.0-1.31","../audio/22-8-fem.mp3"," ","","cigarro.","","","",""
"","null","html-keyboard-response","56","228608","0.0-3.0-0.32-0.32","<span style= ""font-size:30px; font-family: monospace"">+</span>","null","fixation","","","","",""
"","1589","audio-keyboard-response","57","230562","0.0-3.0-1.32","../audio/25-1-fem.mp3"," ","","Ela","","","",""
"","1091","audio-keyboard-response","58","232010","0.0-3.0-1.33","../audio/25-2-fem.mp3"," ","","faz","","","",""
"","931","audio-keyboard-response","59","233282","0.0-3.0-1.34","../audio/25-3-fem.mp3"," ","","tanto","","","",""
"","1112","audio-keyboard-response","60","234698","0.0-3.0-1.35","../audio/25-4-fem.mp3"," ","","cabelo","","","",""
"","1131","audio-keyboard-response","61","236170","0.0-3.0-1.36","../audio/25-5-fem.mp3"," ","","liso","","","",""
"","1011","audio-keyboard-response","62","237498","0.0-3.0-1.37","../audio/25-6-fem.mp3"," ","","quanto","","","",""
"","1320","audio-keyboard-response","63","239154","0.0-3.0-1.38","../audio/25-7-fem.mp3"," ","","cacheado.","","","",""
"","95995","html-keyboard-response","64","335405","0.0-3.0-2.38-0.38","<span style=""font-size:25px; font-family: monospace"">Ela só faz cabelo cacheado?</span>","s","","","Ela só faz cabelo cacheado?","null","exp-sent","false"
"","null","html-keyboard-response","65","336908","0.0-3.0-0.39-0.39","<span style= ""font-size:30px; font-family: monospace"">+</span>","null","fixation","","","","",""
"","221","audio-keyboard-response","66","337533","0.0-3.0-1.39","../audio/11-1-masc.mp3"," ","","Elas","","","",""
"","1251","audio-keyboard-response","67","339085","0.0-3.0-1.40","../audio/11-2-masc.mp3"," ","","gostam","","","",""
"","2760","audio-keyboard-response","68","342173","0.0-3.0-1.41","../audio/11-3-masc.mp3"," ","","muito","","","",""
"","1931","audio-keyboard-response","69","344477","0.0-3.0-1.42","../audio/11-4-masc.mp3"," ","","de","","","",""
"","1589","audio-keyboard-response","70","346469","0.0-3.0-1.43","../audio/11-5-masc.mp3"," ","","aritmética","","","",""
"","1869","audio-keyboard-response","71","348646","0.0-3.0-1.44","../audio/11-6-masc.mp3"," ","","e","","","",""
"","3469","audio-keyboard-response","72","352477","0.0-3.0-1.45","../audio/11-7-masc.mp3"," ","","de","","","",""
"","2552","audio-keyboard-response","73","355422","0.0-3.0-1.46","../audio/11-8-masc.mp3"," ","","leitura.","","","",""
"","null","html-keyboard-response","74","356681","0.0-3.0-0.47-0.47","<span style= ""font-size:30px; font-family: monospace"">+</span>","null","fixation","","","","",""
"","1800","audio-keyboard-response","75","358846","0.0-3.0-1.47","../audio/13-1-fem.mp3"," ","","Para","","","",""
"","1141","audio-keyboard-response","76","360342","0.0-3.0-1.48","../audio/13-2-fem.mp3"," ","","mim","","","",""
"","869","audio-keyboard-response","77","361510","0.0-3.0-1.49","../audio/13-3-fem.mp3"," ","","é","","","",""
"","720","audio-keyboard-response","78","362542","0.0-3.0-1.50","../audio/13-4-fem.mp3"," ","","muito","","","",""
"","1160","audio-keyboard-response","79","364046","0.0-3.0-1.51","../audio/13-5-fem.mp3"," ","","difícil","","","",""
"","3880","audio-keyboard-response","80","368262","0.0-3.0-1.52","../audio/13-6-fem.mp3"," ","","acordar","","","",""
"","4160","audio-keyboard-response","81","372830","0.0-3.0-1.53","../audio/13-7-fem.mp3"," ","","cedo.","","","",""
"","null","html-keyboard-response","82","374103","0.0-3.0-0.54-0.54","<span style= ""font-size:30px; font-family: monospace"">+</span>","null","fixation","","","","",""
"","1312","audio-keyboard-response","83","375782","0.0-3.0-1.54","../audio/14-1-masc.mp3"," ","","O","","","",""
"","1200","audio-keyboard-response","84","377302","0.0-3.0-1.55","../audio/14-2-masc.mp3"," ","","cachorro","","","",""
"","1539","audio-keyboard-response","85","379150","0.0-3.0-1.56","../audio/14-3-masc.mp3"," ","","é","","","",""
"","1069","audio-keyboard-response","86","380526","0.0-3.0-1.57","../audio/14-4-masc.mp3"," ","","muito","","","",""
"","1091","audio-keyboard-response","87","381934","0.0-3.0-1.58","../audio/14-5-masc.mp3"," ","","fiel","","","",""
"","880","audio-keyboard-response","88","383119","0.0-3.0-1.59","../audio/14-6-masc.mp3"," ","","a","","","",""
"","1069","audio-keyboard-response","89","384494","0.0-3.0-1.60","../audio/14-7-masc.mp3"," ","","seus","","","",""
"","2469","audio-keyboard-response","90","387270","0.0-3.0-1.61","../audio/14-8-masc.mp3"," ","","donos.","","","",""
"","null","html-keyboard-response","91","388542","0.0-3.0-0.62-0.62","<span style= ""font-size:30px; font-family: monospace"">+</span>","null","fixation","","","","",""
"","1520","audio-keyboard-response","92","390431","0.0-3.0-1.62","../audio/12-1-fem.mp3"," ","","O","","","",""
"","4440","audio-keyboard-response","93","395167","0.0-3.0-1.63","../audio/12-2-fem.mp3"," ","","dia","","","",""
"","1829","audio-keyboard-response","94","397399","0.0-3.0-1.64","../audio/12-3-fem.mp3"," ","","estava","","","",""
"","3461","audio-keyboard-response","95","401223","0.0-3.0-1.65","../audio/12-4-fem.mp3"," ","","quente,","","","",""
"","1451","audio-keyboard-response","96","403063","0.0-3.0-1.66","../audio/12-5-fem.mp3"," ","","tranquilo","","","",""
"","4789","audio-keyboard-response","97","408151","0.0-3.0-1.67","../audio/12-6-fem.mp3"," ","","e","","","",""
"","4149","audio-keyboard-response","98","412710","0.0-3.0-1.68","../audio/12-7-fem.mp3"," ","","ensolarado.","","","",""
"","null","html-keyboard-response","99","413976","0.0-3.0-0.69-0.69","<span style= ""font-size:30px; font-family: monospace"">+</span>","null","fixation","","","","",""
"","2560","audio-keyboard-response","100","416902","0.0-3.0-1.69","../audio/15-1-fem.mp3"," ","","Meu","","","",""
"","19371","audio-keyboard-response","101","436647","0.0-3.0-1.70","../audio/15-2-fem.mp3"," ","","primo","","","",""
"","1909","audio-keyboard-response","102","438919","0.0-3.0-1.71","../audio/15-3-fem.mp3"," ","","é","","","",""
"","7211","audio-keyboard-response","103","446487","0.0-3.0-1.72","../audio/15-4-fem.mp3"," ","","um","","","",""
"","1920","audio-keyboard-response","104","448816","0.0-3.0-1.73","../audio/15-5-fem.mp3"," ","","grande","","","",""
"","1571","audio-keyboard-response","105","450768","0.0-3.0-1.74","../audio/15-6-fem.mp3"," ","","vendedor","","","",""
"","18120","audio-keyboard-response","106","469192","0.0-3.0-1.75","../audio/15-7-fem.mp3"," ","","de","","","",""
"","1371","audio-keyboard-response","107","471016","0.0-3.0-1.76","../audio/15-8-fem.mp3"," ","","carros.","","","",""
"","5990","html-keyboard-response","108","477273","0.0-3.0-2.76-0.76","<span style=""font-size:25px; font-family: monospace"">O primo é um vendedor de carros?</span>","s","","","O primo é um vendedor de carros?","null","exp-sent","false"
"","null","html-keyboard-response","109","478788","0.0-3.0-0.77-0.77","<span style= ""font-size:30px; font-family: monospace"">+</span>","null","fixation","","","","",""
"","1139","audio-keyboard-response","110","480313","0.0-3.0-1.77","../audio/63-1-masc.mp3"," ","","A","","","",""
"","1469","audio-keyboard-response","111","482097","0.0-3.0-1.78","../audio/63-2-masc.mp3"," ","","chuva","","","",""
"","1680","audio-keyboard-response","112","484081","0.0-3.0-1.79","../audio/63-3-masc.mp3"," ","","entrou","","","",""
"","1371","audio-keyboard-response","113","485769","0.0-3.0-1.80","../audio/63-4-masc.mp3"," ","","pela","","","",""
"","1608","audio-keyboard-response","114","487713","0.0-3.0-1.81","../audio/63-5-masc.mp3"," ","","abertura","","","",""
"","1120","audio-keyboard-response","115","489145","0.0-3.0-1.82","../audio/63-6-masc.mp3"," ","","na","","","",""
"","2128","audio-keyboard-response","116","491594","0.0-3.0-1.83","../audio/63-7-masc.mp3"," ","","janela.","","","",""
"","null","html-keyboard-response","117","492857","0.0-3.0-0.84-0.84","<span style= ""font-size:30px; font-family: monospace"">+</span>","null","fixation","","","","",""
"","1541","audio-keyboard-response","118","494777","0.0-3.0-1.84","../audio/64-1-masc.mp3"," ","","O","","","",""
"","1301","audio-keyboard-response","119","496369","0.0-3.0-1.85","../audio/64-2-masc.mp3"," ","","dia","","","",""
"","1299","audio-keyboard-response","120","497993","0.0-3.0-1.86","../audio/64-3-masc.mp3"," ","","começou","","","",""
"","4360","audio-keyboard-response","121","502666","0.0-3.0-1.87","../audio/64-4-masc.mp3"," ","","com","","","",""
"","15149","audio-keyboard-response","122","518211","0.0-3.0-1.88","../audio/64-5-masc.mp3"," ","","garoa","","","",""
"","5000","audio-keyboard-response","123","523594","0.0-3.0-1.89","../audio/64-6-masc.mp3"," ","","gelada","","","",""
"","2651","audio-keyboard-response","124","526602","0.0-3.0-1.90","../audio/64-7-masc.mp3"," ","","e","","","",""
"","3251","audio-keyboard-response","125","530219","0.0-3.0-1.91","../audio/64-8-masc.mp3"," ","","leve.","","","",""
"","null","html-keyboard-response","126","531481","0.0-3.0-0.92-0.92","<span style= ""font-size:30px; font-family: monospace"">+</span>","null","fixation","","","","",""
"","1901","audio-keyboard-response","127","533811","0.0-3.0-1.92","../audio/61-1-masc.mp3"," ","","Aquele","","","",""
"","2091","audio-keyboard-response","128","536251","0.0-3.0-1.93","../audio/61-2-masc.mp3"," ","","senhor","","","",""
"","4149","audio-keyboard-response","129","540755","0.0-3.0-1.94","../audio/61-3-masc.mp3"," ","","é","","","",""
"","949","audio-keyboard-response","130","542083","0.0-3.0-1.95","../audio/61-4-masc.mp3"," ","","muito","","","",""
"","1059","audio-keyboard-response","131","543483","0.0-3.0-1.96","../audio/61-5-masc.mp3"," ","","sovina","","","",""
"","651","audio-keyboard-response","132","544443","0.0-3.0-1.97","../audio/61-6-masc.mp3"," ","","e","","","",""
"","2229","audio-keyboard-response","133","547019","0.0-3.0-1.98","../audio/61-7-masc.mp3"," ","","inflexível.","","","",""
"","null","html-keyboard-response","134","548281","0.0-3.0-0.99-0.99","<span style= ""font-size:30px; font-family: monospace"">+</span>","null","fixation","","","","",""
"","7571","audio-keyboard-response","135","556204","0.0-3.0-1.99","../audio/62-1-masc.mp3"," ","","As","","","",""
"","1440","audio-keyboard-response","136","558036","0.0-3.0-1.100","../audio/62-2-masc.mp3"," ","","artesãs","","","",""
"","1091","audio-keyboard-response","137","559428","0.0-3.0-1.101","../audio/62-3-masc.mp3"," ","","gostam","","","",""
"","771","audio-keyboard-response","138","560508","0.0-3.0-1.102","../audio/62-4-masc.mp3"," ","","de","","","",""
"","2051","audio-keyboard-response","139","562908","0.0-3.0-1.103","../audio/62-5-masc.mp3"," ","","maquiagem","","","",""
"","1560","audio-keyboard-response","140","564844","0.0-3.0-1.104","../audio/62-6-masc.mp3"," ","","e","","","",""
"","1109","audio-keyboard-response","141","566252","0.0-3.0-1.105","../audio/62-7-masc.mp3"," ","","de","","","",""
"","1400","audio-keyboard-response","142","567988","0.0-3.0-1.106","../audio/62-8-masc.mp3"," ","","crochê.","","","",""
"","null","html-keyboard-response","143","569258","0.0-3.0-0.107-0.107","<span style= ""font-size:30px; font-family: monospace"">+</span>","null","fixation","","","","",""
"","4491","audio-keyboard-response","144","574124","0.0-3.0-1.107","../audio/65-1-masc.mp3"," ","","O","","","",""
"","1421","audio-keyboard-response","145","575932","0.0-3.0-1.108","../audio/65-2-masc.mp3"," ","","fantasma","","","",""
"","829","audio-keyboard-response","146","577076","0.0-3.0-1.109","../audio/65-3-masc.mp3"," ","","veio","","","",""
"","2381","audio-keyboard-response","147","579748","0.0-3.0-1.110","../audio/65-4-masc.mp3"," ","","da","","","",""
"","1291","audio-keyboard-response","148","581468","0.0-3.0-1.111","../audio/65-5-masc.mp3"," ","","escuridão","","","",""
"","739","audio-keyboard-response","149","582516","0.0-3.0-1.112","../audio/65-6-masc.mp3"," ","","do","","","",""
"","979","audio-keyboard-response","150","583836","0.0-3.0-1.113","../audio/65-7-masc.mp3"," ","","armário.","","","",""
"","9527","html-keyboard-response","151","593621","0.0-3.0-2.113-0.113","<span style=""font-size:25px; font-family: monospace"">O fantasma veio da escuridão do armário?</span>","s","","","O fantasma veio da escuridão do armário?","null","exp-sent","false"
"","null","html-keyboard-response","152","595143","0.0-3.0-0.114-0.114","<span style= ""font-size:30px; font-family: monospace"">+</span>","null","fixation","","","","",""
"","1749","audio-keyboard-response","153","597317","0.0-3.0-1.114","../audio/44-1-fem.mp3"," ","","Meus","","","",""
"","989","audio-keyboard-response","154","598701","0.0-3.0-1.115","../audio/44-2-fem.mp3"," ","","irmãos","","","",""
"","891","audio-keyboard-response","155","599901","0.0-3.0-1.116","../audio/44-3-fem.mp3"," ","","brigam","","","",""
"","781","audio-keyboard-response","156","600973","0.0-3.0-1.117","../audio/44-4-fem.mp3"," ","","por","","","",""
"","1099","audio-keyboard-response","157","602405","0.0-3.0-1.118","../audio/44-5-fem.mp3"," ","","bobagem","","","",""
"","939","audio-keyboard-response","158","603645","0.0-3.0-1.119","../audio/44-6-fem.mp3"," ","","todos","","","",""
"","760","audio-keyboard-response","159","604717","0.0-3.0-1.120","../audio/44-7-fem.mp3"," ","","os","","","",""
"","800","audio-keyboard-response","160","605821","0.0-3.0-1.121","../audio/44-8-fem.mp3"," ","","dias.","","","",""
"","null","html-keyboard-response","161","607082","0.0-3.0-0.122-0.122","<span style= ""font-size:30px; font-family: monospace"">+</span>","null","fixation","","","","",""
"","851","audio-keyboard-response","162","608285","0.0-3.0-1.122","../audio/43-1-fem.mp3"," ","","Eu","","","",""
"","1029","audio-keyboard-response","163","609661","0.0-3.0-1.123","../audio/43-2-fem.mp3"," ","","achei","","","",""
"","800","audio-keyboard-response","164","610765","0.0-3.0-1.124","../audio/43-3-fem.mp3"," ","","um","","","",""
"","1112","audio-keyboard-response","165","612189","0.0-3.0-1.125","../audio/43-4-fem.mp3"," ","","colchão","","","",""
"","1861","audio-keyboard-response","166","614350","0.0-3.0-1.126","../audio/43-5-fem.mp3"," ","","velho","","","",""
"","5880","audio-keyboard-response","167","620597","0.0-3.0-1.127","../audio/43-6-fem.mp3"," ","","e","","","",""
"","1811","audio-keyboard-response","168","622781","0.0-3.0-1.128","../audio/43-7-fem.mp3"," ","","imundo","","","",""
"","45869","audio-keyboard-response","169","669008","0.0-3.0-1.129","../audio/43-8-fem.mp3"," ","","na","","","",""
"","549","audio-keyboard-response","170","669975","0.0-3.0-1.130","../audio/43-9-fem.mp3"," ","","casa.","","","",""
"","null","html-keyboard-response","171","671234","0.0-3.0-0.131-0.131","<span style= ""font-size:30px; font-family: monospace"">+</span>","null","fixation","","","","",""
"","1389","audio-keyboard-response","172","672999","0.0-3.0-1.131","../audio/42-1-fem.mp3"," ","","Eu","","","",""
"","1059","audio-keyboard-response","173","674367","0.0-3.0-1.132","../audio/42-2-fem.mp3"," ","","fui","","","",""
"","669","audio-keyboard-response","174","675343","0.0-3.0-1.133","../audio/42-3-fem.mp3"," ","","a","","","",""
"","821","audio-keyboard-response","175","676463","0.0-3.0-1.134","../audio/42-4-fem.mp3"," ","","uma","","","",""
"","1141","audio-keyboard-response","176","677911","0.0-3.0-1.135","../audio/42-5-fem.mp3"," ","","loja","","","",""
"","600","audio-keyboard-response","177","678823","0.0-3.0-1.136","../audio/42-6-fem.mp3"," ","","de","","","",""
"","421","audio-keyboard-response","178","679584","0.0-3.0-1.137","../audio/42-7-fem.mp3"," ","","móveis","","","",""
"","680","audio-keyboard-response","179","680567","0.0-3.0-1.138","../audio/42-8-fem.mp3"," ","","no","","","",""
"","488","audio-keyboard-response","180","681359","0.0-3.0-1.139","../audio/42-9-fem.mp3"," ","","bairro.","","","",""
"","null","html-keyboard-response","181","682622","0.0-3.0-0.140-0.140","<span style= ""font-size:30px; font-family: monospace"">+</span>","null","fixation","","","","",""
"","992","audio-keyboard-response","182","683991","0.0-3.0-1.140","../audio/41-1-masc.mp3"," ","","A","","","",""
"","1021","audio-keyboard-response","183","685344","0.0-3.0-1.141","../audio/41-2-masc.mp3"," ","","novela","","","",""
"","680","audio-keyboard-response","184","686344","0.0-3.0-1.142","../audio/41-3-masc.mp3"," ","","falava","","","",""
"","720","audio-keyboard-response","185","687360","0.0-3.0-1.143","../audio/41-4-masc.mp3"," ","","de","","","",""
"","989","audio-keyboard-response","186","688656","0.0-3.0-1.144","../audio/41-5-masc.mp3"," ","","paixão","","","",""
"","771","audio-keyboard-response","187","689728","0.0-3.0-1.145","../audio/41-6-masc.mp3"," ","","e","","","",""
"","752","audio-keyboard-response","188","690792","0.0-3.0-1.146","../audio/41-7-masc.mp3"," ","","comédia.","","","",""
"","null","html-keyboard-response","189","692063","0.0-3.0-0.147-0.147","<span style= ""font-size:30px; font-family: monospace"">+</span>","null","fixation","","","","",""
"","779","audio-keyboard-response","190","693216","0.0-3.0-1.147","../audio/45-1-masc.mp3"," ","","O","","","",""
"","832","audio-keyboard-response","191","694352","0.0-3.0-1.148","../audio/45-2-masc.mp3"," ","","homem","","","",""
"","869","audio-keyboard-response","192","695528","0.0-3.0-1.149","../audio/45-3-masc.mp3"," ","","pagou","","","",""
"","749","audio-keyboard-response","193","696584","0.0-3.0-1.150","../audio/45-4-masc.mp3"," ","","o","","","",""
"","869","audio-keyboard-response","194","697760","0.0-3.0-1.151","../audio/45-5-masc.mp3"," ","","aluguel","","","",""
"","800","audio-keyboard-response","195","698864","0.0-3.0-1.152","../audio/45-6-masc.mp3"," ","","com","","","",""
"","1131","audio-keyboard-response","196","700304","0.0-3.0-1.153","../audio/45-7-masc.mp3"," ","","atraso.","","","",""
"","8657","html-keyboard-response","197","709224","0.0-3.0-2.153-0.153","<span style=""font-size:25px; font-family: monospace"">O homem pagou o aluguel em dia?</span>","s","","","O homem pagou o aluguel em dia?","null","exp-sent","false"
"","null","html-keyboard-response","198","710729","0.0-3.0-0.154-0.154","<span style= ""font-size:30px; font-family: monospace"">+</span>","null","fixation","","","","",""
"","621","audio-keyboard-response","199","711712","0.0-3.0-1.154","../audio/78-1-fem.mp3"," ","","Eles","","","",""
"","909","audio-keyboard-response","200","712936","0.0-3.0-1.155","../audio/78-2-fem.mp3"," ","","trazem","","","",""
"","752","audio-keyboard-response","201","713992","0.0-3.0-1.156","../audio/78-3-fem.mp3"," ","","um","","","",""
"","829","audio-keyboard-response","202","715136","0.0-3.0-1.157","../audio/78-4-fem.mp3"," ","","fato","","","",""
"","3200","audio-keyboard-response","203","718680","0.0-3.0-1.158","../audio/78-5-fem.mp3"," ","","urgente","","","",""
"","941","audio-keyboard-response","204","719992","0.0-3.0-1.159","../audio/78-6-fem.mp3"," ","","todos","","","",""
"","851","audio-keyboard-response","205","721144","0.0-3.0-1.160","../audio/78-7-fem.mp3"," ","","os","","","",""
"","1029","audio-keyboard-response","206","722520","0.0-3.0-1.161","../audio/78-8-fem.mp3"," ","","dias.","","","",""
"","null","html-keyboard-response","207","723785","0.0-3.0-0.162-0.162","<span style= ""font-size:30px; font-family: monospace"">+</span>","null","fixation","","","","",""
"","219","audio-keyboard-response","208","724376","0.0-3.0-1.162","../audio/77-1-fem.mp3"," ","","A","","","",""
"","1448","audio-keyboard-response","209","726160","0.0-3.0-1.163","../audio/77-2-fem.mp3"," ","","criança","","","",""
"","1189","audio-keyboard-response","210","727656","0.0-3.0-1.164","../audio/77-3-fem.mp3"," ","","ficou","","","",""
"","2851","audio-keyboard-response","211","730808","0.0-3.0-1.165","../audio/77-4-fem.mp3"," ","","muito","","","",""
"","2029","audio-keyboard-response","212","733264","0.0-3.0-1.166","../audio/77-5-fem.mp3"," ","","feliz","","","",""
"","4219","audio-keyboard-response","213","737848","0.0-3.0-1.167","../audio/77-6-fem.mp3"," ","","com","","","",""
"","811","audio-keyboard-response","214","739024","0.0-3.0-1.168","../audio/77-7-fem.mp3"," ","","o","","","",""
"","1021","audio-keyboard-response","215","740392","0.0-3.0-1.169","../audio/77-8-fem.mp3"," ","","brinquedo.","","","",""
"","null","html-keyboard-response","216","741658","0.0-3.0-0.170-0.170","<span style= ""font-size:30px; font-family: monospace"">+</span>","null","fixation","","","","",""
"","1269","audio-keyboard-response","217","743289","0.0-3.0-1.170","../audio/79-1-fem.mp3"," ","","A","","","",""
"","1229","audio-keyboard-response","218","744848","0.0-3.0-1.171","../audio/79-2-fem.mp3"," ","","médica","","","",""
"","1299","audio-keyboard-response","219","746480","0.0-3.0-1.172","../audio/79-3-fem.mp3"," ","","verificou","","","",""
"","629","audio-keyboard-response","220","747417","0.0-3.0-1.173","../audio/79-4-fem.mp3"," ","","a","","","",""
"","731","audio-keyboard-response","221","748473","0.0-3.0-1.174","../audio/79-5-fem.mp3"," ","","gengiva","","","",""
"","800","audio-keyboard-response","222","749569","0.0-3.0-1.175","../audio/79-6-fem.mp3"," ","","por","","","",""
"","9389","audio-keyboard-response","223","759249","0.0-3.0-1.176","../audio/79-7-fem.mp3"," ","","último.","","","",""
"","null","html-keyboard-response","224","760506","0.0-3.0-0.177-0.177","<span style= ""font-size:30px; font-family: monospace"">+</span>","null","fixation","","","","",""
"","2448","audio-keyboard-response","225","763321","0.0-3.0-1.177","../audio/76-1-masc.mp3"," ","","O","","","",""
"","1189","audio-keyboard-response","226","764897","0.0-3.0-1.178","../audio/76-2-masc.mp3"," ","","bisavô","","","",""
"","1808","audio-keyboard-response","227","767001","0.0-3.0-1.179","../audio/76-3-masc.mp3"," ","","comprou","","","",""
"","19909","audio-keyboard-response","228","787267","0.0-3.0-1.180","../audio/76-4-masc.mp3"," ","","um","","","",""
"","22989","audio-keyboard-response","229","810652","0.0-3.0-1.181","../audio/76-5-masc.mp3"," ","","ralador","","","",""
"","680","audio-keyboard-response","230","811723","0.0-3.0-1.182","../audio/76-6-masc.mp3"," ","","de","","","",""
"","691","audio-keyboard-response","231","812715","0.0-3.0-1.183","../audio/76-7-masc.mp3"," ","","queijo.","","","",""
"","null","html-keyboard-response","232","813986","0.0-3.0-0.184-0.184","<span style= ""font-size:30px; font-family: monospace"">+</span>","null","fixation","","","","",""
"","2629","audio-keyboard-response","233","816979","0.0-3.0-1.184","../audio/80-1-fem.mp3"," ","","Meu","","","",""
"","851","audio-keyboard-response","234","818195","0.0-3.0-1.185","../audio/80-2-fem.mp3"," ","","primo","","","",""
"","1051","audio-keyboard-response","235","819571","0.0-3.0-1.186","../audio/80-3-fem.mp3"," ","","conheceu","","","",""
"","781","audio-keyboard-response","236","820667","0.0-3.0-1.187","../audio/80-4-fem.mp3"," ","","um","","","",""
"","1192","audio-keyboard-response","237","822196","0.0-3.0-1.188","../audio/80-5-fem.mp3"," ","","jovem","","","",""
"","1280","audio-keyboard-response","238","823819","0.0-3.0-1.189","../audio/80-6-fem.mp3"," ","","amável","","","",""
"","1461","audio-keyboard-response","239","825588","0.0-3.0-1.190","../audio/80-7-fem.mp3"," ","","e","","","",""
"","840","audio-keyboard-response","240","826772","0.0-3.0-1.191","../audio/80-8-fem.mp3"," ","","confiante.","","","",""
"","87087","html-keyboard-response","241","914119","0.0-3.0-2.191-0.191","<span style=""font-size:25px; font-family: monospace"">O primo conheceu um jovem irritante?</span>","s","","","O primo conheceu um jovem irritante?","null","exp-sent","false"
"","null","html-keyboard-response","242","915620","0.0-3.0-0.192-0.192","<span style= ""font-size:30px; font-family: monospace"">+</span>","null","fixation","","","","",""
"","840","audio-keyboard-response","243","916870","0.0-3.0-1.192","../audio/04-1-fem.mp3"," ","","Duzentos","","","",""
"","1036891","audio-keyboard-response","244","1955350","0.0-3.0-1.193","../audio/04-2-fem.mp3"," ","","carros","","","",""
"","560","audio-keyboard-response","245","1956518","0.0-3.0-1.194","../audio/04-3-fem.mp3"," ","","passaram","","","",""
"","789","audio-keyboard-response","246","1957614","0.0-3.0-1.195","../audio/04-4-fem.mp3"," ","","pela","","","",""
"","992","audio-keyboard-response","247","1958927","0.0-3.0-1.196","../audio/04-5-fem.mp3"," ","","ponte","","","",""
"","949","audio-keyboard-response","248","1960190","0.0-3.0-1.197","../audio/04-6-fem.mp3"," ","","hoje","","","",""
"","781","audio-keyboard-response","249","1961278","0.0-3.0-1.198","../audio/04-7-fem.mp3"," ","","de","","","",""
"","1171","audio-keyboard-response","250","1962750","0.0-3.0-1.199","../audio/04-8-fem.mp3"," ","","tarde.","","","",""
"","null","html-keyboard-response","251","1964021","0.0-3.0-0.200-0.200","<span style= ""font-size:30px; font-family: monospace"">+</span>","null","fixation","","","","",""
"","701","audio-keyboard-response","252","1965079","0.0-3.0-1.200","../audio/03-1-masc.mp3"," ","","O","","","",""
"","952","audio-keyboard-response","253","1966327","0.0-3.0-1.201","../audio/03-2-masc.mp3"," ","","coelho","","","",""
"","779","audio-keyboard-response","254","1967415","0.0-3.0-1.202","../audio/03-3-masc.mp3"," ","","foi","","","",""
"","1000","audio-keyboard-response","255","1968743","0.0-3.0-1.203","../audio/03-4-masc.mp3"," ","","bastante","","","",""
"","899","audio-keyboard-response","256","1969943","0.0-3.0-1.204","../audio/03-5-masc.mp3"," ","","dócil","","","",""
"","749","audio-keyboard-response","257","1970991","0.0-3.0-1.205","../audio/03-6-masc.mp3"," ","","com","","","",""
"","771","audio-keyboard-response","258","1972063","0.0-3.0-1.206","../audio/03-7-masc.mp3"," ","","as","","","",""
"","941","audio-keyboard-response","259","1973327","0.0-3.0-1.207","../audio/03-8-masc.mp3"," ","","crianças.","","","",""
"","null","html-keyboard-response","260","1974587","0.0-3.0-0.208-0.208","<span style= ""font-size:30px; font-family: monospace"">+</span>","null","fixation","","","","",""
"","651","audio-keyboard-response","261","1975591","0.0-3.0-1.208","../audio/02-2-fem.mp3"," ","","Havia","","","",""
"","629","audio-keyboard-response","262","1976479","0.0-3.0-1.209","../audio/02-2-fem.mp3"," ","","um","","","",""
"","611","audio-keyboard-response","263","1977399","0.0-3.0-1.210","../audio/02-3-fem.mp3"," ","","cheiro","","","",""
"","669","audio-keyboard-response","264","1978375","0.0-3.0-1.211","../audio/02-4-fem.mp3"," ","","de","","","",""
"","699","audio-keyboard-response","265","1979415","0.0-3.0-1.212","../audio/02-5-fem.mp3"," ","","gasolina","","","",""
"","1579","audio-keyboard-response","266","1981295","0.0-3.0-1.213","../audio/02-6-fem.mp3"," ","","na","","","",""
"","1291","audio-keyboard-response","267","1982911","0.0-3.0-1.214","../audio/02-7-fem.mp3"," ","","garagem.","","","",""
"","null","html-keyboard-response","268","1984169","0.0-3.0-0.215-0.215","<span style= ""font-size:30px; font-family: monospace"">+</span>","null","fixation","","","","",""
"","80","audio-keyboard-response","269","1984615","0.0-3.0-1.215","../audio/01-1-fem.mp3"," ","","O","","","",""
"","1059","audio-keyboard-response","270","1985983","0.0-3.0-1.216","../audio/01-2-fem.mp3"," ","","menino","","","",""
"","1112","audio-keyboard-response","271","1987407","0.0-3.0-1.217","../audio/01-3-fem.mp3"," ","","derrubou","","","",""
"","680","audio-keyboard-response","272","1988383","0.0-3.0-1.218","../audio/01-4-fem.mp3"," ","","a","","","",""
"","1051","audio-keyboard-response","273","1989767","0.0-3.0-1.219","../audio/01-5-fem.mp3"," ","","guitarra","","","",""
"","899","audio-keyboard-response","274","1990975","0.0-3.0-1.220","../audio/01-6-fem.mp3"," ","","no","","","",""
"","1008","audio-keyboard-response","275","1992296","0.0-3.0-1.221","../audio/01-7-fem.mp3"," ","","chão.","","","",""
"","null","html-keyboard-response","276","1993567","0.0-3.0-0.222-0.222","<span style= ""font-size:30px; font-family: monospace"">+</span>","null","fixation","","","","",""
"","1131","audio-keyboard-response","277","1995071","0.0-3.0-1.222","../audio/05-1-fem.mp3"," ","","A","","","",""
"","2232","audio-keyboard-response","278","1997647","0.0-3.0-1.223","../audio/05-2-fem.mp3"," ","","vendedora","","","",""
"","1091","audio-keyboard-response","279","1999159","0.0-3.0-1.224","../audio/05-3-fem.mp3"," ","","ajudou","","","",""
"","851","audio-keyboard-response","280","2000327","0.0-3.0-1.225","../audio/05-4-fem.mp3"," ","","um","","","",""
"","1019","audio-keyboard-response","281","2001703","0.0-3.0-1.226","../audio/05-5-fem.mp3"," ","","turista","","","",""
"","912","audio-keyboard-response","282","2002927","0.0-3.0-1.227","../audio/05-6-fem.mp3"," ","","na","","","",""
"","1149","audio-keyboard-response","283","2004399","0.0-3.0-1.228","../audio/05-7-fem.mp3"," ","","loja.","","","",""
"","5658","html-keyboard-response","284","2010311","0.0-3.0-2.228-0.228","<span style=""font-size:25px; font-family: monospace"">A vendedora ajudou um turista?</span>","s","","","A vendedora ajudou um turista?","null","exp-sent","false"
"","null","html-keyboard-response","285","2011824","0.0-3.0-0.229-0.229","<span style= ""font-size:30px; font-family: monospace"">+</span>","null","fixation","","","","",""
"","1480","audio-keyboard-response","286","2013704","0.0-3.0-1.229","../audio/34-1-fem.mp3"," ","","Cobrança","","","",""
"","1568","audio-keyboard-response","287","2015615","0.0-3.0-1.230","../audio/34-2-fem.mp3"," ","","excessiva","","","",""
"","749","audio-keyboard-response","288","2016671","0.0-3.0-1.231","../audio/34-3-fem.mp3"," ","","é","","","",""
"","741","audio-keyboard-response","289","2017751","0.0-3.0-1.232","../audio/34-4-fem.mp3"," ","","um","","","",""
"","1021","audio-keyboard-response","290","2019088","0.0-3.0-1.233","../audio/34-5-fem.mp3"," ","","fardo","","","",""
"","800","audio-keyboard-response","291","2020191","0.0-3.0-1.234","../audio/34-6-fem.mp3"," ","","para","","","",""
"","640","audio-keyboard-response","292","2021144","0.0-3.0-1.235","../audio/34-7-fem.mp3"," ","","a","","","",""
"","1789","audio-keyboard-response","293","2023272","0.0-3.0-1.236","../audio/34-8-fem.mp3"," ","","cabeça.","","","",""
"","null","html-keyboard-response","294","2024543","0.0-3.0-0.237-0.237","<span style= ""font-size:30px; font-family: monospace"">+</span>","null","fixation","","","","",""
"","931","audio-keyboard-response","295","2025848","0.0-3.0-1.237","../audio/32-1-masc.mp3"," ","","A","","","",""
"","960","audio-keyboard-response","296","2027112","0.0-3.0-1.238","../audio/32-2-masc.mp3"," ","","tia","","","",""
"","931","audio-keyboard-response","297","2028344","0.0-3.0-1.239","../audio/32-3-masc.mp3"," ","","comprou","","","",""
"","749","audio-keyboard-response","298","2029392","0.0-3.0-1.240","../audio/32-4-masc.mp3"," ","","um","","","",""
"","971","audio-keyboard-response","299","2030672","0.0-3.0-1.241","../audio/32-5-masc.mp3"," ","","pilão","","","",""
"","952","audio-keyboard-response","300","2031928","0.0-3.0-1.242","../audio/32-6-masc.mp3"," ","","para","","","",""
"","819","audio-keyboard-response","301","2033056","0.0-3.0-1.243","../audio/32-7-masc.mp3"," ","","a","","","",""
"","1019","audio-keyboard-response","302","2034376","0.0-3.0-1.244","../audio/32-8-masc.mp3"," ","","cozinha.","","","",""
"","null","html-keyboard-response","303","2035639","0.0-3.0-0.245-0.245","<span style= ""font-size:30px; font-family: monospace"">+</span>","null","fixation","","","","",""
"","859","audio-keyboard-response","304","2036896","0.0-3.0-1.245","../audio/33-1-fem.mp3"," ","","Eles","","","",""
"","1059","audio-keyboard-response","305","2038296","0.0-3.0-1.246","../audio/33-2-fem.mp3"," ","","sabem","","","",""
"","800","audio-keyboard-response","306","2039408","0.0-3.0-1.247","../audio/33-3-fem.mp3"," ","","do","","","",""
"","931","audio-keyboard-response","307","2040640","0.0-3.0-1.248","../audio/33-4-fem.mp3"," ","","seu","","","",""
"","1600","audio-keyboard-response","308","2042584","0.0-3.0-1.249","../audio/33-5-fem.mp3"," ","","privilégio","","","",""
"","1000","audio-keyboard-response","309","2043912","0.0-3.0-1.250","../audio/33-6-fem.mp3"," ","","nessa","","","",""
"","1128","audio-keyboard-response","310","2045376","0.0-3.0-1.251","../audio/33-7-fem.mp3"," ","","confusão.","","","",""
"","null","html-keyboard-response","311","2046641","0.0-3.0-0.252-0.252","<span style= ""font-size:30px; font-family: monospace"">+</span>","null","fixation","","","","",""
"","768","audio-keyboard-response","312","2047777","0.0-3.0-1.252","../audio/31-1-masc.mp3"," ","","O","","","",""
"","771","audio-keyboard-response","313","2048872","0.0-3.0-1.253","../audio/31-2-masc.mp3"," ","","padeiro","","","",""
"","880","audio-keyboard-response","314","2050056","0.0-3.0-1.254","../audio/31-3-masc.mp3"," ","","usou","","","",""
"","808","audio-keyboard-response","315","2051176","0.0-3.0-1.255","../audio/31-4-masc.mp3"," ","","a","","","",""
"","1120","audio-keyboard-response","316","2052624","0.0-3.0-1.256","../audio/31-5-masc.mp3"," ","","balança","","","",""
"","869","audio-keyboard-response","317","2053800","0.0-3.0-1.257","../audio/31-6-masc.mp3"," ","","o","","","",""
"","1051","audio-keyboard-response","318","2055153","0.0-3.0-1.258","../audio/31-7-masc.mp3"," ","","dia","","","",""
"","1069","audio-keyboard-response","319","2056537","0.0-3.0-1.259","../audio/31-8-masc.mp3"," ","","inteiro.","","","",""
"","null","html-keyboard-response","320","2057795","0.0-3.0-0.260-0.260","<span style= ""font-size:30px; font-family: monospace"">+</span>","null","fixation","","","","",""
"","691","audio-keyboard-response","321","2058841","0.0-3.0-1.260","../audio/35-1-masc.mp3"," ","","A","","","",""
"","1032","audio-keyboard-response","322","2060209","0.0-3.0-1.261","../audio/35-2-masc.mp3"," ","","receita","","","",""
"","920","audio-keyboard-response","323","2061433","0.0-3.0-1.262","../audio/35-3-masc.mp3"," ","","para","","","",""
"","760","audio-keyboard-response","324","2062489","0.0-3.0-1.263","../audio/35-4-masc.mp3"," ","","a","","","",""
"","1080","audio-keyboard-response","325","2063905","0.0-3.0-1.264","../audio/35-5-masc.mp3"," ","","preparação","","","",""
"","789","audio-keyboard-response","326","2065001","0.0-3.0-1.265","../audio/35-6-masc.mp3"," ","","do","","","",""
"","960","audio-keyboard-response","327","2066265","0.0-3.0-1.266","../audio/35-7-masc.mp3"," ","","bolo","","","",""
"","749","audio-keyboard-response","328","2067321","0.0-3.0-1.267","../audio/35-8-masc.mp3"," ","","é","","","",""
"","920","audio-keyboard-response","329","2068537","0.0-3.0-1.268","../audio/35-9-masc.mp3"," ","","leve.","","","",""
"","6155","html-keyboard-response","330","2074954","0.0-3.0-2.268-0.268","<span style=""font-size:25px; font-family: monospace"">A receita do bolo é pesada?</span>","s","","","A receita do bolo é pesada?","null","exp-sent","false"
"","null","html-keyboard-response","331","2076463","0.0-3.0-0.269-0.269","<span style= ""font-size:30px; font-family: monospace"">+</span>","null","fixation","","","","",""
"","851","audio-keyboard-response","332","2077674","0.0-3.0-1.269","../audio/56-1-masc.mp3"," ","","A","","","",""
"","861","audio-keyboard-response","333","2078842","0.0-3.0-1.270","../audio/56-2-masc.mp3"," ","","moça","","","",""
"","771","audio-keyboard-response","334","2079914","0.0-3.0-1.271","../audio/56-3-masc.mp3"," ","","foi","","","",""
"","701","audio-keyboard-response","335","2080922","0.0-3.0-1.272","../audio/56-4-masc.mp3"," ","","à","","","",""
"","1101","audio-keyboard-response","336","2082362","0.0-3.0-1.273","../audio/56-5-masc.mp3"," ","","agência","","","",""
"","1021","audio-keyboard-response","337","2083722","0.0-3.0-1.274","../audio/56-6-masc.mp3"," ","","bancária","","","",""
"","821","audio-keyboard-response","338","2084850","0.0-3.0-1.275","../audio/56-7-masc.mp3"," ","","ontem","","","",""
"","829","audio-keyboard-response","339","2085986","0.0-3.0-1.276","../audio/56-8-masc.mp3"," ","","de","","","",""
"","960","audio-keyboard-response","340","2087258","0.0-3.0-1.277","../audio/56-9-masc.mp3"," ","","tarde.","","","",""
"","null","html-keyboard-response","341","2088529","0.0-3.0-0.278-0.278","<span style= ""font-size:30px; font-family: monospace"">+</span>","null","fixation","","","","",""
"","2189","audio-keyboard-response","342","2091122","0.0-3.0-1.278","../audio/59-1-masc.mp3"," ","","O","","","",""
"","848","audio-keyboard-response","343","2092378","0.0-3.0-1.279","../audio/59-2-masc.mp3"," ","","carteiro","","","",""
"","781","audio-keyboard-response","344","2093482","0.0-3.0-1.280","../audio/59-3-masc.mp3"," ","","fez","","","",""
"","781","audio-keyboard-response","345","2094570","0.0-3.0-1.281","../audio/59-4-masc.mp3"," ","","uma","","","",""
"","1200","audio-keyboard-response","346","2096107","0.0-3.0-1.282","../audio/59-5-masc.mp3"," ","","tentativa","","","",""
"","789","audio-keyboard-response","347","2097202","0.0-3.0-1.283","../audio/59-6-masc.mp3"," ","","de","","","",""
"","2931","audio-keyboard-response","348","2100434","0.0-3.0-1.284","../audio/59-7-masc.mp3"," ","","entrega.","","","",""
"","null","html-keyboard-response","349","2101703","0.0-3.0-0.285-0.285","<span style= ""font-size:30px; font-family: monospace"">+</span>","null","fixation","","","","",""
"","1291","audio-keyboard-response","350","2103627","0.0-3.0-1.285","../audio/58-1-fem.mp3"," ","","Havia","","","",""
"","920","audio-keyboard-response","351","2104875","0.0-3.0-1.286","../audio/58-2-fem.mp3"," ","","apenas","","","",""
"","680","audio-keyboard-response","352","2105859","0.0-3.0-1.287","../audio/58-3-fem.mp3"," ","","um","","","",""
"","648","audio-keyboard-response","353","2106819","0.0-3.0-1.288","../audio/58-4-fem.mp3"," ","","último","","","",""
"","1011","audio-keyboard-response","354","2108131","0.0-3.0-1.289","../audio/58-5-fem.mp3"," ","","herdeiro","","","",""
"","741","audio-keyboard-response","355","2109171","0.0-3.0-1.290","../audio/58-6-fem.mp3"," ","","do","","","",""
"","771","audio-keyboard-response","356","2110275","0.0-3.0-1.291","../audio/58-7-fem.mp3"," ","","dinheiro.","","","",""
"","null","html-keyboard-response","357","2111528","0.0-3.0-0.292-0.292","<span style= ""font-size:30px; font-family: monospace"">+</span>","null","fixation","","","","",""
"","672","audio-keyboard-response","358","2112571","0.0-3.0-1.292","../audio/57-1-masc.mp3"," ","","O","","","",""
"","949","audio-keyboard-response","359","2113827","0.0-3.0-1.293","../audio/57-2-masc.mp3"," ","","capitão","","","",""
"","731","audio-keyboard-response","360","2114867","0.0-3.0-1.294","../audio/57-3-masc.mp3"," ","","deu","","","",""
"","720","audio-keyboard-response","361","2115891","0.0-3.0-1.295","../audio/57-4-masc.mp3"," ","","uma","","","",""
"","661","audio-keyboard-response","362","2116883","0.0-3.0-1.296","../audio/57-5-masc.mp3"," ","","instrução","","","",""
"","691","audio-keyboard-response","363","2117891","0.0-3.0-1.297","../audio/57-6-masc.mp3"," ","","para","","","",""
"","840","audio-keyboard-response","364","2119043","0.0-3.0-1.298","../audio/57-7-masc.mp3"," ","","as","","","",""
"","1811","audio-keyboard-response","365","2121187","0.0-3.0-1.299","../audio/57-8-masc.mp3"," ","","pessoas.","","","",""
"","null","html-keyboard-response","366","2122455","0.0-3.0-0.300-0.300","<span style= ""font-size:30px; font-family: monospace"">+</span>","null","fixation","","","","",""
"","1040","audio-keyboard-response","367","2123851","0.0-3.0-1.300","../audio/60-1-masc.mp3"," ","","Ondas","","","",""
"","739","audio-keyboard-response","368","2124899","0.0-3.0-1.301","../audio/60-2-masc.mp3"," ","","têm","","","",""
"","688","audio-keyboard-response","369","2125899","0.0-3.0-1.302","../audio/60-3-masc.mp3"," ","","um","","","",""
"","680","audio-keyboard-response","370","2126907","0.0-3.0-1.303","../audio/60-4-masc.mp3"," ","","impacto","","","",""
"","901","audio-keyboard-response","371","2128131","0.0-3.0-1.304","../audio/60-5-masc.mp3"," ","","destrutivo","","","",""
"","811","audio-keyboard-response","372","2129251","0.0-3.0-1.305","../audio/60-6-masc.mp3"," ","","no","","","",""
"","571","audio-keyboard-response","373","2130147","0.0-3.0-1.306","../audio/60-7-masc.mp3"," ","","litoral.","","","",""
"","19669","html-keyboard-response","374","2150068","0.0-3.0-2.306-0.306","<span style=""font-size:25px; font-family: monospace"">Ondas têm um impacto destrutivo?</span>","s","","","Ondas têm um impacto destrutivo?","null","exp-sent","false"
"","null","html-keyboard-response","375","2151576","0.0-3.0-0.307-0.307","<span style= ""font-size:30px; font-family: monospace"">+</span>","null","fixation","","","","",""
"","1120","audio-keyboard-response","376","2153132","0.0-3.0-1.307","../audio/06-1-fem.mp3"," ","","Ouvimos","","","",""
"","579","audio-keyboard-response","377","2154019","0.0-3.0-1.308","../audio/06-2-fem.mp3"," ","","a","","","",""
"","568","audio-keyboard-response","378","2154900","0.0-3.0-1.309","../audio/06-3-fem.mp3"," ","","fala","","","",""
"","619","audio-keyboard-response","379","2155820","0.0-3.0-1.310","../audio/06-4-fem.mp3"," ","","do","","","",""
"","1019","audio-keyboard-response","380","2157180","0.0-3.0-1.311","../audio/06-5-fem.mp3"," ","","profeta","","","",""
"","1891","audio-keyboard-response","381","2159372","0.0-3.0-1.312","../audio/06-6-fem.mp3"," ","","no","","","",""
"","872","audio-keyboard-response","382","2160612","0.0-3.0-1.313","../audio/06-7-fem.mp3"," ","","púlpito","","","",""
"","709","audio-keyboard-response","383","2161628","0.0-3.0-1.314","../audio/06-8-fem.mp3"," ","","da","","","",""
"","568","audio-keyboard-response","384","2162540","0.0-3.0-1.315","../audio/06-9-fem.mp3"," ","","igreja.","","","",""
"","null","html-keyboard-response","385","2163808","0.0-3.0-0.316-0.316","<span style= ""font-size:30px; font-family: monospace"">+</span>","null","fixation","","","","",""
"","659","audio-keyboard-response","386","2164828","0.0-3.0-1.316","../audio/09-1-fem.mp3"," ","","O","","","",""
"","1080","audio-keyboard-response","387","2166252","0.0-3.0-1.317","../audio/09-2-fem.mp3"," ","","rapaz","","","",""
"","891","audio-keyboard-response","388","2167444","0.0-3.0-1.318","../audio/09-3-fem.mp3"," ","","limpou","","","",""
"","560","audio-keyboard-response","389","2168308","0.0-3.0-1.319","../audio/09-4-fem.mp3"," ","","o","","","",""
"","1029","audio-keyboard-response","390","2169644","0.0-3.0-1.320","../audio/09-5-fem.mp3"," ","","terreno","","","",""
"","611","audio-keyboard-response","391","2170564","0.0-3.0-1.321","../audio/09-6-fem.mp3"," ","","com","","","",""
"","560","audio-keyboard-response","392","2171436","0.0-3.0-1.322","../audio/09-7-fem.mp3"," ","","uma","","","",""
"","920","audio-keyboard-response","393","2172660","0.0-3.0-1.323","../audio/09-8-fem.mp3"," ","","pá.","","","",""
"","null","html-keyboard-response","394","2173926","0.0-3.0-0.324-0.324","<span style= ""font-size:30px; font-family: monospace"">+</span>","null","fixation","","","","",""
"","589","audio-keyboard-response","395","2174884","0.0-3.0-1.324","../audio/08-1-fem.mp3"," ","","A","","","",""
"","792","audio-keyboard-response","396","2176012","0.0-3.0-1.325","../audio/08-2-fem.mp3"," ","","receita","","","",""
"","640","audio-keyboard-response","397","2176956","0.0-3.0-1.326","../audio/08-3-fem.mp3"," ","","pede","","","",""
"","701","audio-keyboard-response","398","2177965","0.0-3.0-1.327","../audio/08-4-fem.mp3"," ","","um","","","",""
"","741","audio-keyboard-response","399","2178997","0.0-3.0-1.328","../audio/08-5-fem.mp3"," ","","litro","","","",""
"","672","audio-keyboard-response","400","2179973","0.0-3.0-1.329","../audio/08-6-fem.mp3"," ","","de","","","",""
"","811","audio-keyboard-response","401","2181077","0.0-3.0-1.330","../audio/08-7-fem.mp3"," ","","leite","","","",""
"","1221","audio-keyboard-response","402","2182637","0.0-3.0-1.331","../audio/08-8-fem.mp3"," ","","integral.","","","",""
"","null","html-keyboard-response","403","2183906","0.0-3.0-0.332-0.332","<span style= ""font-size:30px; font-family: monospace"">+</span>","null","fixation","","","","",""
"","949","audio-keyboard-response","404","2185221","0.0-3.0-1.332","../audio/07-1-fem.mp3"," ","","Meu","","","",""
"","829","audio-keyboard-response","405","2186357","0.0-3.0-1.333","../audio/07-2-fem.mp3"," ","","filho","","","",""
"","821","audio-keyboard-response","406","2187485","0.0-3.0-1.334","../audio/07-3-fem.mp3"," ","","é","","","",""
"","880","audio-keyboard-response","407","2188669","0.0-3.0-1.335","../audio/07-4-fem.mp3"," ","","muito","","","",""
"","1600","audio-keyboard-response","408","2190621","0.0-3.0-1.336","../audio/07-5-fem.mp3"," ","","responsável","","","",""
"","1008","audio-keyboard-response","409","2191941","0.0-3.0-1.337","../audio/07-6-fem.mp3"," ","","nos","","","",""
"","1251","audio-keyboard-response","410","2193533","0.0-3.0-1.338","../audio/07-7-fem.mp3"," ","","estudos.","","","",""
"","null","html-keyboard-response","411","2194795","0.0-3.0-0.339-0.339","<span style= ""font-size:30px; font-family: monospace"">+</span>","null","fixation","","","","",""
"","680","audio-keyboard-response","412","2195845","0.0-3.0-1.339","../audio/10-1-fem.mp3"," ","","O","","","",""
"","851","audio-keyboard-response","413","2197029","0.0-3.0-1.340","../audio/10-2-fem.mp3"," ","","pássaro","","","",""
"","901","audio-keyboard-response","414","2198237","0.0-3.0-1.341","../audio/10-3-fem.mp3"," ","","azul","","","",""
"","829","audio-keyboard-response","415","2199397","0.0-3.0-1.342","../audio/10-4-fem.mp3"," ","","estava","","","",""
"","1040","audio-keyboard-response","416","2200741","0.0-3.0-1.343","../audio/10-5-fem.mp3"," ","","vivo","","","",""
"","848","audio-keyboard-response","417","2201901","0.0-3.0-1.344","../audio/10-6-fem.mp3"," ","","e","","","",""
"","669","audio-keyboard-response","418","2202885","0.0-3.0-1.345","../audio/10-7-fem.mp3"," ","","em","","","",""
"","989","audio-keyboard-response","419","2204221","0.0-3.0-1.346","../audio/10-8-fem.mp3"," ","","segurança.","","","",""
"","7420","html-keyboard-response","420","2211894","0.0-3.0-2.346-0.346","<span style=""font-size:25px; font-family: monospace"">O pássaro vermelho estava em segurança?</span>","s","","","O pássaro vermelho estava em segurança?","null","exp-sent","false"
"","null","html-keyboard-response","421","2213412","0.0-3.0-0.347-0.347","<span style= ""font-size:30px; font-family: monospace"">+</span>","null","fixation","","","","",""
"","1389","audio-keyboard-response","422","2215206","0.0-3.0-1.347","../audio/19-1-masc.mp3"," ","","O","","","",""
"","931","audio-keyboard-response","423","2216454","0.0-3.0-1.348","../audio/19-2-masc.mp3"," ","","menino","","","",""
"","899","audio-keyboard-response","424","2217662","0.0-3.0-1.349","../audio/19-3-masc.mp3"," ","","ganhou","","","",""
"","829","audio-keyboard-response","425","2218806","0.0-3.0-1.350","../audio/19-4-masc.mp3"," ","","uma","","","",""
"","1021","audio-keyboard-response","426","2220126","0.0-3.0-1.351","../audio/19-5-masc.mp3"," ","","bala","","","",""
"","1021","audio-keyboard-response","427","2221478","0.0-3.0-1.352","../audio/19-6-masc.mp3"," ","","depois","","","",""
"","832","audio-keyboard-response","428","2222614","0.0-3.0-1.353","../audio/19-7-masc.mp3"," ","","do","","","",""
"","1592","audio-keyboard-response","429","2224534","0.0-3.0-1.354","../audio/19-8-masc.mp3"," ","","almoço.","","","",""
"","null","html-keyboard-response","430","2225792","0.0-3.0-0.355-0.355","<span style= ""font-size:30px; font-family: monospace"">+</span>","null","fixation","","","","",""
"","2029","audio-keyboard-response","431","2228190","0.0-3.0-1.355","../audio/16-1-fem.mp3"," ","","Eu","","","",""
"","1109","audio-keyboard-response","432","2229670","0.0-3.0-1.356","../audio/16-2-fem.mp3"," ","","nunca","","","",""
"","2240","audio-keyboard-response","433","2232238","0.0-3.0-1.357","../audio/16-3-fem.mp3"," ","","conheci","","","",""
"","760","audio-keyboard-response","434","2233359","0.0-3.0-1.358","../audio/16-4-fem.mp3"," ","","um","","","",""
"","1291","audio-keyboard-response","435","2234990","0.0-3.0-1.359","../audio/16-5-fem.mp3"," ","","general","","","",""
"","701","audio-keyboard-response","436","2236006","0.0-3.0-1.360","../audio/16-6-fem.mp3"," ","","do","","","",""
"","1051","audio-keyboard-response","437","2237398","0.0-3.0-1.361","../audio/16-7-fem.mp3"," ","","exército.","","","",""
"","null","html-keyboard-response","438","2238664","0.0-3.0-0.362-0.362","<span style= ""font-size:30px; font-family: monospace"">+</span>","null","fixation","","","","",""
"","1101","audio-keyboard-response","439","2240159","0.0-3.0-1.362","../audio/17-1-fem.mp3"," ","","Falaram","","","",""
"","789","audio-keyboard-response","440","2241263","0.0-3.0-1.363","../audio/17-2-fem.mp3"," ","","da","","","",""
"","709","audio-keyboard-response","441","2242287","0.0-3.0-1.364","../audio/17-3-fem.mp3"," ","","lei","","","",""
"","741","audio-keyboard-response","442","2243327","0.0-3.0-1.365","../audio/17-4-fem.mp3"," ","","no","","","",""
"","621","audio-keyboard-response","443","2244279","0.0-3.0-1.366","../audio/17-5-fem.mp3"," ","","ministério","","","",""
"","800","audio-keyboard-response","444","2245415","0.0-3.0-1.367","../audio/17-6-fem.mp3"," ","","diversas","","","",""
"","661","audio-keyboard-response","445","2246399","0.0-3.0-1.368","../audio/17-7-fem.mp3"," ","","vezes.","","","",""
"","null","html-keyboard-response","446","2247658","0.0-3.0-0.369-0.369","<span style= ""font-size:30px; font-family: monospace"">+</span>","null","fixation","","","","",""
"","309","audio-keyboard-response","447","2248327","0.0-3.0-1.369","../audio/18-1-masc.mp3"," ","","O","","","",""
"","848","audio-keyboard-response","448","2249503","0.0-3.0-1.370","../audio/18-2-masc.mp3"," ","","enredo","","","",""
"","709","audio-keyboard-response","449","2250519","0.0-3.0-1.371","../audio/18-3-masc.mp3"," ","","traz","","","",""
"","691","audio-keyboard-response","450","2251511","0.0-3.0-1.372","../audio/18-4-masc.mp3"," ","","um","","","",""
"","840","audio-keyboard-response","451","2252655","0.0-3.0-1.373","../audio/18-5-masc.mp3"," ","","dragão","","","",""
"","720","audio-keyboard-response","452","2253679","0.0-3.0-1.374","../audio/18-6-masc.mp3"," ","","forte","","","",""
"","651","audio-keyboard-response","453","2254631","0.0-3.0-1.375","../audio/18-7-masc.mp3"," ","","e","","","",""
"","1160","audio-keyboard-response","454","2256119","0.0-3.0-1.376","../audio/18-8-masc.mp3"," ","","solitário.","","","",""
"","null","html-keyboard-response","455","2257379","0.0-3.0-0.377-0.377","<span style= ""font-size:30px; font-family: monospace"">+</span>","null","fixation","","","","",""
"","800","audio-keyboard-response","456","2258575","0.0-3.0-1.377","../audio/20-1-fem.mp3"," ","","O","","","",""
"","1080","audio-keyboard-response","457","2259959","0.0-3.0-1.378","../audio/20-2-fem.mp3"," ","","colega","","","",""
"","1280","audio-keyboard-response","458","2261583","0.0-3.0-1.379","../audio/20-3-fem.mp3"," ","","parecia","","","",""
"","1019","audio-keyboard-response","459","2262911","0.0-3.0-1.380","../audio/20-4-fem.mp3"," ","","muito","","","",""
"","1179","audio-keyboard-response","460","2264431","0.0-3.0-1.381","../audio/20-5-fem.mp3"," ","","gripado","","","",""
"","981","audio-keyboard-response","461","2265720","0.0-3.0-1.382","../audio/20-6-fem.mp3"," ","","no","","","",""
"","741","audio-keyboard-response","462","2266759","0.0-3.0-1.383","../audio/20-7-fem.mp3"," ","","dia","","","",""
"","909","audio-keyboard-response","463","2268007","0.0-3.0-1.384","../audio/20-8-fem.mp3"," ","","anterior.","","","",""
"","7545","html-keyboard-response","464","2275808","0.0-3.0-2.384-0.384","<span style=""font-size:25px; font-family: monospace"">O colega parecia muito gripado?</span>","s","","","O colega parecia muito gripado?","null","exp-sent","false"
"","null","html-keyboard-response","465","2277328","0.0-3.0-0.385-0.385","<span style= ""font-size:30px; font-family: monospace"">+</span>","null","fixation","","","","",""
"","899","audio-keyboard-response","466","2278624","0.0-3.0-1.385","../audio/74-1-masc.mp3"," ","","Este","","","",""
"","1061","audio-keyboard-response","467","2280008","0.0-3.0-1.386","../audio/74-2-masc.mp3"," ","","emprego","","","",""
"","749","audio-keyboard-response","468","2281064","0.0-3.0-1.387","../audio/74-3-masc.mp3"," ","","é","","","",""
"","899","audio-keyboard-response","469","2282264","0.0-3.0-1.388","../audio/74-4-masc.mp3"," ","","muito","","","",""
"","1040","audio-keyboard-response","470","2283624","0.0-3.0-1.389","../audio/74-5-masc.mp3"," ","","cansativo","","","",""
"","699","audio-keyboard-response","471","2284632","0.0-3.0-1.390","../audio/74-6-masc.mp3"," ","","a","","","",""
"","712","audio-keyboard-response","472","2285656","0.0-3.0-1.391","../audio/74-7-masc.mp3"," ","","longo","","","",""
"","731","audio-keyboard-response","473","2286680","0.0-3.0-1.392","../audio/74-8-masc.mp3"," ","","prazo.","","","",""
"","null","html-keyboard-response","474","2287944","0.0-3.0-0.393-0.393","<span style= ""font-size:30px; font-family: monospace"">+</span>","null","fixation","","","","",""
"","301","audio-keyboard-response","475","2288616","0.0-3.0-1.393","../audio/72-1-fem.mp3"," ","","A","","","",""
"","1011","audio-keyboard-response","476","2289960","0.0-3.0-1.394","../audio/72-2-fem.mp3"," ","","vencedora","","","",""
"","731","audio-keyboard-response","477","2291008","0.0-3.0-1.395","../audio/72-3-fem.mp3"," ","","recebeu","","","",""
"","752","audio-keyboard-response","478","2292056","0.0-3.0-1.396","../audio/72-4-fem.mp3"," ","","um","","","",""
"","880","audio-keyboard-response","479","2293248","0.0-3.0-1.397","../audio/72-5-fem.mp3"," ","","prêmio","","","",""
"","771","audio-keyboard-response","480","2294328","0.0-3.0-1.398","../audio/72-6-fem.mp3"," ","","em","","","",""
"","1101","audio-keyboard-response","481","2295768","0.0-3.0-1.399","../audio/72-7-fem.mp3"," ","","dinheiro.","","","",""
"","null","html-keyboard-response","482","2297039","0.0-3.0-0.400-0.400","<span style= ""font-size:30px; font-family: monospace"">+</span>","null","fixation","","","","",""
"","1059","audio-keyboard-response","483","2298464","0.0-3.0-1.400","../audio/71-1-masc.mp3"," ","","Minhas","","","",""
"","920","audio-keyboard-response","484","2299696","0.0-3.0-1.401","../audio/71-2-masc.mp3"," ","","comidas","","","",""
"","960","audio-keyboard-response","485","2300992","0.0-3.0-1.402","../audio/71-3-masc.mp3"," ","","favoritas","","","",""
"","779","audio-keyboard-response","486","2302072","0.0-3.0-1.403","../audio/71-4-masc.mp3"," ","","são","","","",""
"","1069","audio-keyboard-response","487","2303464","0.0-3.0-1.404","../audio/71-5-masc.mp3"," ","","morango","","","",""
"","789","audio-keyboard-response","488","2304568","0.0-3.0-1.405","../audio/71-6-masc.mp3"," ","","e","","","",""
"","931","audio-keyboard-response","489","2305808","0.0-3.0-1.406","../audio/71-7-masc.mp3"," ","","uva.","","","",""
"","null","html-keyboard-response","490","2307075","0.0-3.0-0.407-0.407","<span style= ""font-size:30px; font-family: monospace"">+</span>","null","fixation","","","","",""
"","211","audio-keyboard-response","491","2307657","0.0-3.0-1.407","../audio/73-1-fem.mp3"," ","","O","","","",""
"","1051","audio-keyboard-response","492","2309057","0.0-3.0-1.408","../audio/73-2-fem.mp3"," ","","cliente","","","",""
"","989","audio-keyboard-response","493","2310345","0.0-3.0-1.409","../audio/73-3-fem.mp3"," ","","era","","","",""
"","749","audio-keyboard-response","494","2311393","0.0-3.0-1.410","../audio/73-4-fem.mp3"," ","","um","","","",""
"","829","audio-keyboard-response","495","2312521","0.0-3.0-1.411","../audio/73-5-fem.mp3"," ","","homem","","","",""
"","931","audio-keyboard-response","496","2313769","0.0-3.0-1.412","../audio/73-6-fem.mp3"," ","","muito","","","",""
"","1171","audio-keyboard-response","497","2315289","0.0-3.0-1.413","../audio/73-7-fem.mp3"," ","","educado.","","","",""
"","null","html-keyboard-response","498","2316550","0.0-3.0-0.414-0.414","<span style= ""font-size:30px; font-family: monospace"">+</span>","null","fixation","","","","",""
"","640","audio-keyboard-response","499","2317553","0.0-3.0-1.414","../audio/75-1-masc.mp3"," ","","Só","","","",""
"","800","audio-keyboard-response","500","2318689","0.0-3.0-1.415","../audio/75-2-masc.mp3"," ","","existe","","","",""
"","781","audio-keyboard-response","501","2319769","0.0-3.0-1.416","../audio/75-3-masc.mp3"," ","","uma","","","",""
"","949","audio-keyboard-response","502","2321025","0.0-3.0-1.417","../audio/75-4-masc.mp3"," ","","pessoa","","","",""
"","840","audio-keyboard-response","503","2322201","0.0-3.0-1.418","../audio/75-5-masc.mp3"," ","","canhota","","","",""
"","901","audio-keyboard-response","504","2323417","0.0-3.0-1.419","../audio/75-6-masc.mp3"," ","","nesta","","","",""
"","1589","audio-keyboard-response","505","2325313","0.0-3.0-1.420","../audio/75-7-masc.mp3"," ","","cidade.","","","",""
"","38808","html-keyboard-response","506","2364379","0.0-3.0-2.420-0.420","<span style=""font-size:25px; font-family: monospace"">Só existe uma pessoa canhota na cidade?</span>","s","","","Só existe uma pessoa canhota na cidade?","null","exp-sent","false"
"","null","html-keyboard-response","507","2365893","0.0-3.0-0.421-0.421","<span style= ""font-size:30px; font-family: monospace"">+</span>","null","fixation","","","","",""
"","1828008","audio-keyboard-response","508","29975950","0.0-3.0-1.421","../audio/66-1-masc.mp3"," ","","Não","","","",""
"","1720","audio-keyboard-response","509","29978166","0.0-3.0-1.422","../audio/66-2-masc.mp3"," ","","gosto","","","",""
"","1139","audio-keyboard-response","510","29979677","0.0-3.0-1.423","../audio/66-3-masc.mp3"," ","","de","","","",""
"","1211","audio-keyboard-response","511","29981205","0.0-3.0-1.424","../audio/66-4-masc.mp3"," ","","gente","","","",""
"","1749","audio-keyboard-response","512","29983309","0.0-3.0-1.425","../audio/66-5-masc.mp3"," ","","egoísta","","","",""
"","1291","audio-keyboard-response","513","29984965","0.0-3.0-1.426","../audio/66-6-masc.mp3"," ","","nem","","","",""
"","1381","audio-keyboard-response","514","29986653","0.0-3.0-1.427","../audio/66-7-masc.mp3"," ","","chata.","","","",""
"","null","html-keyboard-response","515","29987912","0.0-3.0-0.428-0.428","<span style= ""font-size:30px; font-family: monospace"">+</span>","null","fixation","","","","",""
"","1051","audio-keyboard-response","516","29989334","0.0-3.0-1.428","../audio/68-1-masc.mp3"," ","","Meu","","","",""
"","1051","audio-keyboard-response","517","29990942","0.0-3.0-1.429","../audio/68-2-masc.mp3"," ","","irmão","","","",""
"","1040","audio-keyboard-response","518","29992286","0.0-3.0-1.430","../audio/68-3-masc.mp3"," ","","teve","","","",""
"","901","audio-keyboard-response","519","29993494","0.0-3.0-1.431","../audio/68-4-masc.mp3"," ","","um","","","",""
"","1451","audio-keyboard-response","520","29995278","0.0-3.0-1.432","../audio/68-5-masc.mp3"," ","","noivado","","","",""
"","2099","audio-keyboard-response","521","29997686","0.0-3.0-1.433","../audio/68-6-masc.mp3"," ","","longo","","","",""
"","1971","audio-keyboard-response","522","30000022","0.0-3.0-1.434","../audio/68-7-masc.mp3"," ","","e","","","",""
"","2411","audio-keyboard-response","523","30003078","0.0-3.0-1.435","../audio/68-8-masc.mp3"," ","","maravilhoso.","","","",""
"","null","html-keyboard-response","524","30004338","0.0-3.0-0.436-0.436","<span style= ""font-size:30px; font-family: monospace"">+</span>","null","fixation","","","","",""
"","1211","audio-keyboard-response","525","30005926","0.0-3.0-1.436","../audio/67-1-masc.mp3"," ","","Minha","","","",""
"","1229","audio-keyboard-response","526","30007470","0.0-3.0-1.437","../audio/67-2-masc.mp3"," ","","tia","","","",""
"","1131","audio-keyboard-response","527","30008918","0.0-3.0-1.438","../audio/67-3-masc.mp3"," ","","comprou","","","",""
"","1000","audio-keyboard-response","528","30010214","0.0-3.0-1.439","../audio/67-4-masc.mp3"," ","","um","","","",""
"","1069","audio-keyboard-response","529","30011599","0.0-3.0-1.440","../audio/67-5-masc.mp3"," ","","cordão","","","",""
"","1168","audio-keyboard-response","530","30013070","0.0-3.0-1.441","../audio/67-6-masc.mp3"," ","","para","","","",""
"","1139","audio-keyboard-response","531","30014518","0.0-3.0-1.442","../audio/67-7-masc.mp3"," ","","o","","","",""
"","2288","audio-keyboard-response","532","30017110","0.0-3.0-1.443","../audio/67-8-masc.mp3"," ","","varal.","","","",""
"","null","html-keyboard-response","533","30018380","0.0-3.0-0.444-0.444","<span style= ""font-size:30px; font-family: monospace"">+</span>","null","fixation","","","","",""
"","1048","audio-keyboard-response","534","30019790","0.0-3.0-1.444","../audio/69-1-masc.mp3"," ","","A","","","",""
"","1179","audio-keyboard-response","535","30021279","0.0-3.0-1.445","../audio/69-2-masc.mp3"," ","","loja","","","",""
"","1451","audio-keyboard-response","536","30023039","0.0-3.0-1.446","../audio/69-3-masc.mp3"," ","","recebeu","","","",""
"","960","audio-keyboard-response","537","30024303","0.0-3.0-1.447","../audio/69-4-masc.mp3"," ","","uma","","","",""
"","1160","audio-keyboard-response","538","30025799","0.0-3.0-1.448","../audio/69-5-masc.mp3"," ","","poltrona","","","",""
"","888","audio-keyboard-response","539","30026991","0.0-3.0-1.449","../audio/69-6-masc.mp3"," ","","de","","","",""
"","880","audio-keyboard-response","540","30028183","0.0-3.0-1.450","../audio/69-7-masc.mp3"," ","","couro","","","",""
"","2389","audio-keyboard-response","541","30030887","0.0-3.0-1.451","../audio/69-8-masc.mp3"," ","","preto.","","","",""
"","null","html-keyboard-response","542","30032143","0.0-3.0-0.452-0.452","<span style= ""font-size:30px; font-family: monospace"">+</span>","null","fixation","","","","",""
"","1051","audio-keyboard-response","543","30033568","0.0-3.0-1.452","../audio/70-1-masc.mp3"," ","","O","","","",""
"","1341","audio-keyboard-response","544","30035216","0.0-3.0-1.453","../audio/70-2-masc.mp3"," ","","meu","","","",""
"","989","audio-keyboard-response","545","30036520","0.0-3.0-1.454","../audio/70-3-masc.mp3"," ","","filho","","","",""
"","1219","audio-keyboard-response","546","30038040","0.0-3.0-1.455","../audio/70-4-masc.mp3"," ","","tem","","","",""
"","3139","audio-keyboard-response","547","30041480","0.0-3.0-1.456","../audio/70-5-masc.mp3"," ","","medo","","","",""
"","760","audio-keyboard-response","548","30042664","0.0-3.0-1.457","../audio/70-6-masc.mp3"," ","","de","","","",""
"","832","audio-keyboard-response","549","30043824","0.0-3.0-1.458","../audio/70-7-masc.mp3"," ","","enguia","","","",""
"","800","audio-keyboard-response","550","30044920","0.0-3.0-1.459","../audio/70-8-masc.mp3"," ","","e","","","",""
"","1888","audio-keyboard-response","551","30047152","0.0-3.0-1.460","../audio/70-9-masc.mp3"," ","","beija-flor.","","","",""
"","7920","html-keyboard-response","552","30055337","0.0-3.0-2.460-0.460","<span style=""font-size:25px; font-family: monospace"">O filho tem medo de tigre?</span>","s","","","O filho tem medo de tigre?","null","exp-sent","false"
"","null","html-keyboard-response","553","30056852","0.0-3.0-0.461-0.461","<span style= ""font-size:30px; font-family: monospace"">+</span>","null","fixation","","","","",""
"","1379","audio-keyboard-response","554","30058609","0.0-3.0-1.461","../audio/37-1-fem.mp3"," ","","Eu","","","",""
"","819","audio-keyboard-response","555","30059760","0.0-3.0-1.462","../audio/37-2-fem.mp3"," ","","adoro","","","",""
"","1309","audio-keyboard-response","556","30061416","0.0-3.0-1.463","../audio/37-3-fem.mp3"," ","","suco","","","",""
"","901","audio-keyboard-response","557","30062616","0.0-3.0-1.464","../audio/37-4-fem.mp3"," ","","de","","","",""
"","869","audio-keyboard-response","558","30063793","0.0-3.0-1.465","../audio/37-5-fem.mp3"," ","","manga","","","",""
"","909","audio-keyboard-response","559","30065008","0.0-3.0-1.466","../audio/37-6-fem.mp3"," ","","com","","","",""
"","1331","audio-keyboard-response","560","30066689","0.0-3.0-1.467","../audio/37-7-fem.mp3"," ","","hortelã.","","","",""
"","null","html-keyboard-response","561","30067955","0.0-3.0-0.468-0.468","<span style= ""font-size:30px; font-family: monospace"">+</span>","null","fixation","","","","",""
"","941","audio-keyboard-response","562","30069265","0.0-3.0-1.468","../audio/38-1-masc.mp3"," ","","A","","","",""
"","901","audio-keyboard-response","563","30070465","0.0-3.0-1.469","../audio/38-2-masc.mp3"," ","","empresa","","","",""
"","1109","audio-keyboard-response","564","30071881","0.0-3.0-1.470","../audio/38-3-masc.mp3"," ","","criou","","","",""
"","1139","audio-keyboard-response","565","30073321","0.0-3.0-1.471","../audio/38-4-masc.mp3"," ","","a","","","",""
"","1259","audio-keyboard-response","566","30074929","0.0-3.0-1.472","../audio/38-5-masc.mp3"," ","","patente","","","",""
"","1920","audio-keyboard-response","567","30077169","0.0-3.0-1.473","../audio/38-6-masc.mp3"," ","","da","","","",""
"","1269","audio-keyboard-response","568","30078849","0.0-3.0-1.474","../audio/38-7-masc.mp3"," ","","frigideira.","","","",""
"","null","html-keyboard-response","569","30080109","0.0-3.0-0.475-0.475","<span style= ""font-size:30px; font-family: monospace"">+</span>","null","fixation","","","","",""
"","181","audio-keyboard-response","570","30080657","0.0-3.0-1.475","../audio/39-1-masc.mp3"," ","","O","","","",""
"","1840","audio-keyboard-response","571","30082833","0.0-3.0-1.476","../audio/39-2-masc.mp3"," ","","conselho","","","",""
"","1429","audio-keyboard-response","572","30084633","0.0-3.0-1.477","../audio/39-3-masc.mp3"," ","","foi","","","",""
"","1069","audio-keyboard-response","573","30086018","0.0-3.0-1.478","../audio/39-4-masc.mp3"," ","","muito","","","",""
"","1429","audio-keyboard-response","574","30087769","0.0-3.0-1.479","../audio/39-5-masc.mp3"," ","","útil","","","",""
"","1152","audio-keyboard-response","575","30089225","0.0-3.0-1.480","../audio/39-6-masc.mp3"," ","","para","","","",""
"","1059","audio-keyboard-response","576","30090609","0.0-3.0-1.481","../audio/39-7-masc.mp3"," ","","minha","","","",""
"","1141","audio-keyboard-response","577","30092058","0.0-3.0-1.482","../audio/39-8-masc.mp3"," ","","tia.","","","",""
"","null","html-keyboard-response","578","30093324","0.0-3.0-0.483-0.483","<span style= ""font-size:30px; font-family: monospace"">+</span>","null","fixation","","","","",""
"","992","audio-keyboard-response","579","30094666","0.0-3.0-1.483","../audio/36-1-masc.mp3"," ","","Meu","","","",""
"","1029","audio-keyboard-response","580","30096001","0.0-3.0-1.484","../audio/36-2-masc.mp3"," ","","tio","","","",""
"","1059","audio-keyboard-response","581","30097369","0.0-3.0-1.485","../audio/36-3-masc.mp3"," ","","comprou","","","",""
"","1200","audio-keyboard-response","582","30098889","0.0-3.0-1.486","../audio/36-4-masc.mp3"," ","","um","","","",""
"","1269","audio-keyboard-response","583","30100457","0.0-3.0-1.487","../audio/36-5-masc.mp3"," ","","filtro","","","",""
"","1080","audio-keyboard-response","584","30101834","0.0-3.0-1.488","../audio/36-6-masc.mp3"," ","","de","","","",""
"","1368","audio-keyboard-response","585","30103513","0.0-3.0-1.489","../audio/36-7-masc.mp3"," ","","água","","","",""
"","1739","audio-keyboard-response","586","30105570","0.0-3.0-1.490","../audio/36-8-masc.mp3"," ","","hoje","","","",""
"","1629","audio-keyboard-response","587","30107609","0.0-3.0-1.491","../audio/36-9-masc.mp3"," ","","cedo.","","","",""
"","null","html-keyboard-response","588","30108881","0.0-3.0-0.492-0.492","<span style= ""font-size:30px; font-family: monospace"">+</span>","null","fixation","","","","",""
"","520","audio-keyboard-response","589","30109778","0.0-3.0-1.492","../audio/40-1-fem.mp3"," ","","O","","","",""
"","2640","audio-keyboard-response","590","30112729","0.0-3.0-1.493","../audio/40-2-fem.mp3"," ","","jogo","","","",""
"","1229","audio-keyboard-response","591","30114362","0.0-3.0-1.494","../audio/40-3-fem.mp3"," ","","falava","","","",""
"","1520","audio-keyboard-response","592","30116186","0.0-3.0-1.495","../audio/40-4-fem.mp3"," ","","de","","","",""
"","880","audio-keyboard-response","593","30117410","0.0-3.0-1.496","../audio/40-5-fem.mp3"," ","","fantasia","","","",""
"","901","audio-keyboard-response","594","30118618","0.0-3.0-1.497","../audio/40-6-fem.mp3"," ","","e","","","",""
"","1141","audio-keyboard-response","595","30120066","0.0-3.0-1.498","../audio/40-7-fem.mp3"," ","","de","","","",""
"","901","audio-keyboard-response","596","30121306","0.0-3.0-1.499","../audio/40-8-fem.mp3"," ","","aventura.","","","",""
"","11369","html-keyboard-response","597","30132939","0.0-3.0-2.499-0.499","<span style=""font-size:25px; font-family: monospace"">O jogo tinha fantasia e aventura?</span>","s","","","O jogo tinha fantasia e aventura?","null","exp-sent","false"
"","null","html-keyboard-response","598","30134455","0.0-3.0-0.500-0.500","<span style= ""font-size:30px; font-family: monospace"">+</span>","null","fixation","","","","",""
"","1259","audio-keyboard-response","599","30136074","0.0-3.0-1.500","../audio/54-1-masc.mp3"," ","","Estou","","","",""
"","1219","audio-keyboard-response","600","30137602","0.0-3.0-1.501","../audio/54-2-masc.mp3"," ","","com","","","",""
"","1069","audio-keyboard-response","601","30138962","0.0-3.0-1.502","../audio/54-3-masc.mp3"," ","","medo","","","",""
"","1301","audio-keyboard-response","602","30140579","0.0-3.0-1.503","../audio/54-4-masc.mp3"," ","","da","","","",""
"","1301","audio-keyboard-response","603","30142186","0.0-3.0-1.504","../audio/54-5-masc.mp3"," ","","atual","","","",""
"","2789","audio-keyboard-response","604","30145315","0.0-3.0-1.505","../audio/54-6-masc.mp3"," ","","organização","","","",""
"","1091","audio-keyboard-response","605","30146779","0.0-3.0-1.506","../audio/54-7-masc.mp3"," ","","do","","","",""
"","629","audio-keyboard-response","606","30147715","0.0-3.0-1.507","../audio/54-8-masc.mp3"," ","","país.","","","",""
"","null","html-keyboard-response","607","30148986","0.0-3.0-0.508-0.508","<span style= ""font-size:30px; font-family: monospace"">+</span>","null","fixation","","","","",""
"","1160","audio-keyboard-response","608","30150499","0.0-3.0-1.508","../audio/53-1-fem.mp3"," ","","O","","","",""
"","1091","audio-keyboard-response","609","30151899","0.0-3.0-1.509","../audio/53-2-fem.mp3"," ","","médico","","","",""
"","1029","audio-keyboard-response","610","30153235","0.0-3.0-1.510","../audio/53-3-fem.mp3"," ","","foi","","","",""
"","1349","audio-keyboard-response","611","30154915","0.0-3.0-1.511","../audio/53-4-fem.mp3"," ","","bastante","","","",""
"","1211","audio-keyboard-response","612","30156468","0.0-3.0-1.512","../audio/53-5-fem.mp3"," ","","preciso","","","",""
"","1000","audio-keyboard-response","613","30157763","0.0-3.0-1.513","../audio/53-6-fem.mp3"," ","","durante","","","",""
"","867","audio-keyboard-response","614","30158923","0.0-3.0-1.514","../audio/53-7-fem.mp3"," ","","a","","","",""
"","1829","audio-keyboard-response","615","30161075","0.0-3.0-1.515","../audio/53-8-fem.mp3"," ","","cirurgia.","","","",""
"","null","html-keyboard-response","616","30162348","0.0-3.0-0.516-0.516","<span style= ""font-size:30px; font-family: monospace"">+</span>","null","fixation","","","","",""
"","1189","audio-keyboard-response","617","30163916","0.0-3.0-1.516","../audio/51-1-fem.mp3"," ","","Suco","","","",""
"","1059","audio-keyboard-response","618","30165275","0.0-3.0-1.517","../audio/51-2-fem.mp3"," ","","de","","","",""
"","1171","audio-keyboard-response","619","30166788","0.0-3.0-1.518","../audio/51-3-fem.mp3"," ","","acerola","","","",""
"","1229","audio-keyboard-response","620","30168316","0.0-3.0-1.519","../audio/51-4-fem.mp3"," ","","é","","","",""
"","1120","audio-keyboard-response","621","30169772","0.0-3.0-1.520","../audio/51-5-fem.mp3"," ","","azedo","","","",""
"","949","audio-keyboard-response","622","30171036","0.0-3.0-1.521","../audio/51-6-fem.mp3"," ","","e","","","",""
"","1229","audio-keyboard-response","623","30172580","0.0-3.0-1.522","../audio/51-7-fem.mp3"," ","","até","","","",""
"","3400","audio-keyboard-response","624","30176300","0.0-3.0-1.523","../audio/51-8-fem.mp3"," ","","barato.","","","",""
"","null","html-keyboard-response","625","30177570","0.0-3.0-0.524-0.524","<span style= ""font-size:30px; font-family: monospace"">+</span>","null","fixation","","","","",""
"","1880","audio-keyboard-response","626","30179852","0.0-3.0-1.524","../audio/52-1-masc.mp3"," ","","Às","","","",""
"","851","audio-keyboard-response","627","30181068","0.0-3.0-1.525","../audio/52-2-masc.mp3"," ","","vezes","","","",""
"","1480","audio-keyboard-response","628","30182852","0.0-3.0-1.526","../audio/52-3-masc.mp3"," ","","eu","","","",""
"","1109","audio-keyboard-response","629","30184284","0.0-3.0-1.527","../audio/52-4-masc.mp3"," ","","tenho","","","",""
"","1072","audio-keyboard-response","630","30185668","0.0-3.0-1.528","../audio/52-5-masc.mp3"," ","","azia","","","",""
"","1459","audio-keyboard-response","631","30187444","0.0-3.0-1.529","../audio/52-6-masc.mp3"," ","","depois","","","",""
"","1128","audio-keyboard-response","632","30188876","0.0-3.0-1.530","../audio/52-7-masc.mp3"," ","","da","","","",""
"","1171","audio-keyboard-response","633","30190365","0.0-3.0-1.531","../audio/52-8-masc.mp3"," ","","janta.","","","",""
"","null","html-keyboard-response","634","30191629","0.0-3.0-0.532-0.532","<span style= ""font-size:30px; font-family: monospace"">+</span>","null","fixation","","","","",""
"","1288","audio-keyboard-response","635","30193276","0.0-3.0-1.532","../audio/55-1-fem.mp3"," ","","O","","","",""
"","1189","audio-keyboard-response","636","30194804","0.0-3.0-1.533","../audio/55-2-fem.mp3"," ","","insulto","","","",""
"","1139","audio-keyboard-response","637","30196276","0.0-3.0-1.534","../audio/55-3-fem.mp3"," ","","recente","","","",""
"","1229","audio-keyboard-response","638","30197804","0.0-3.0-1.535","../audio/55-4-fem.mp3"," ","","causou","","","",""
"","971","audio-keyboard-response","639","30199108","0.0-3.0-1.536","../audio/55-5-fem.mp3"," ","","indignação","","","",""
"","1400","audio-keyboard-response","640","30200805","0.0-3.0-1.537","../audio/55-6-fem.mp3"," ","","em","","","",""
"","1248","audio-keyboard-response","641","30202357","0.0-3.0-1.538","../audio/55-7-fem.mp3"," ","","todos.","","","",""
"","9764","html-keyboard-response","642","30212374","0.0-3.0-2.538-0.538","<span style=""font-size:25px; font-family: monospace"">O insulto causou calmaria?</span>","s","","","O insulto causou calmaria?","null","exp-sent","false"
"","null","html-keyboard-response","643","30213881","0.0-3.0-0.539-0.539","<span style= ""font-size:30px; font-family: monospace"">+</span>","null","fixation","","","","",""
"","669","audio-keyboard-response","644","30214932","0.0-3.0-1.539","../audio/26-1-fem.mp3"," ","","Amanhã","","","",""
"","840","audio-keyboard-response","645","30216076","0.0-3.0-1.540","../audio/26-2-fem.mp3"," ","","temos","","","",""
"","1040","audio-keyboard-response","646","30217445","0.0-3.0-1.541","../audio/26-3-fem.mp3"," ","","festa","","","",""
"","1029","audio-keyboard-response","647","30218765","0.0-3.0-1.542","../audio/26-4-fem.mp3"," ","","na","","","",""
"","1501","audio-keyboard-response","648","30220581","0.0-3.0-1.543","../audio/26-5-fem.mp3"," ","","piscina","","","",""
"","891","audio-keyboard-response","649","30221773","0.0-3.0-1.544","../audio/26-6-fem.mp3"," ","","o","","","",""
"","859","audio-keyboard-response","650","30222933","0.0-3.0-1.545","../audio/26-7-fem.mp3"," ","","dia","","","",""
"","771","audio-keyboard-response","651","30224014","0.0-3.0-1.546","../audio/26-8-fem.mp3"," ","","todo.","","","",""
"","null","html-keyboard-response","652","30225273","0.0-3.0-0.547-0.547","<span style= ""font-size:30px; font-family: monospace"">+</span>","null","fixation","","","","",""
"","739","audio-keyboard-response","653","30226373","0.0-3.0-1.547","../audio/28-1-masc.mp3"," ","","O","","","",""
"","1819","audio-keyboard-response","654","30228485","0.0-3.0-1.548","../audio/28-2-masc.mp3"," ","","time","","","",""
"","981","audio-keyboard-response","655","30229829","0.0-3.0-1.549","../audio/28-3-masc.mp3"," ","","quer","","","",""
"","629","audio-keyboard-response","656","30230757","0.0-3.0-1.550","../audio/28-4-masc.mp3"," ","","a","","","",""
"","1000","audio-keyboard-response","657","30232077","0.0-3.0-1.551","../audio/28-5-masc.mp3"," ","","vitória","","","",""
"","1040","audio-keyboard-response","658","30233406","0.0-3.0-1.552","../audio/28-6-masc.mp3"," ","","no","","","",""
"","971","audio-keyboard-response","659","30234693","0.0-3.0-1.553","../audio/28-7-masc.mp3"," ","","jogo","","","",""
"","800","audio-keyboard-response","660","30235789","0.0-3.0-1.554","../audio/28-8-masc.mp3"," ","","de","","","",""
"","1080","audio-keyboard-response","661","30237165","0.0-3.0-1.555","../audio/28-9-masc.mp3"," ","","vôlei.","","","",""
"","null","html-keyboard-response","662","30238437","0.0-3.0-0.556-0.556","<span style= ""font-size:30px; font-family: monospace"">+</span>","null","fixation","","","","",""
"","560","audio-keyboard-response","663","30239389","0.0-3.0-1.556","../audio/29-1-masc.mp3"," ","","Hoje","","","",""
"","1131","audio-keyboard-response","664","30240845","0.0-3.0-1.557","../audio/29-2-masc.mp3"," ","","vamos","","","",""
"","979","audio-keyboard-response","665","30242125","0.0-3.0-1.558","../audio/29-3-masc.mp3"," ","","fazer","","","",""
"","1179","audio-keyboard-response","666","30243606","0.0-3.0-1.559","../audio/29-4-masc.mp3"," ","","uma","","","",""
"","1811","audio-keyboard-response","667","30245773","0.0-3.0-1.560","../audio/29-5-masc.mp3"," ","","atividade","","","",""
"","1848","audio-keyboard-response","668","30247998","0.0-3.0-1.561","../audio/29-6-masc.mp3"," ","","sobre","","","",""
"","1011","audio-keyboard-response","669","30249365","0.0-3.0-1.562","../audio/29-7-masc.mp3"," ","","fauna","","","",""
"","1048","audio-keyboard-response","670","30250757","0.0-3.0-1.563","../audio/29-8-masc.mp3"," ","","marinha.","","","",""
"","null","html-keyboard-response","671","30252020","0.0-3.0-0.564-0.564","<span style= ""font-size:30px; font-family: monospace"">+</span>","null","fixation","","","","",""
"","920","audio-keyboard-response","672","30253310","0.0-3.0-1.564","../audio/27-1-fem.mp3"," ","","O","","","",""
"","880","audio-keyboard-response","673","30254526","0.0-3.0-1.565","../audio/27-2-fem.mp3"," ","","dinheiro","","","",""
"","1019","audio-keyboard-response","674","30255846","0.0-3.0-1.566","../audio/27-3-fem.mp3"," ","","chegou","","","",""
"","1069","audio-keyboard-response","675","30257214","0.0-3.0-1.567","../audio/27-4-fem.mp3"," ","","à","","","",""
"","939","audio-keyboard-response","676","30258486","0.0-3.0-1.568","../audio/27-5-fem.mp3"," ","","elite","","","",""
"","1299","audio-keyboard-response","677","30260086","0.0-3.0-1.569","../audio/27-6-fem.mp3"," ","","deste","","","",""
"","1109","audio-keyboard-response","678","30261486","0.0-3.0-1.570","../audio/27-7-fem.mp3"," ","","país.","","","",""
"","null","html-keyboard-response","679","30262748","0.0-3.0-0.571-0.571","<span style= ""font-size:30px; font-family: monospace"">+</span>","null","fixation","","","","",""
"","779","audio-keyboard-response","680","30263886","0.0-3.0-1.571","../audio/30-1-masc.mp3"," ","","O","","","",""
"","1309","audio-keyboard-response","681","30265542","0.0-3.0-1.572","../audio/30-2-masc.mp3"," ","","funcionário","","","",""
"","1141","audio-keyboard-response","682","30266990","0.0-3.0-1.573","../audio/30-3-masc.mp3"," ","","entregou","","","",""
"","1371","audio-keyboard-response","683","30268670","0.0-3.0-1.574","../audio/30-4-masc.mp3"," ","","o","","","",""
"","1360","audio-keyboard-response","684","30270366","0.0-3.0-1.575","../audio/30-5-masc.mp3"," ","","restante","","","",""
"","851","audio-keyboard-response","685","30271534","0.0-3.0-1.576","../audio/30-6-masc.mp3"," ","","do","","","",""
"","11619","audio-keyboard-response","686","30283446","0.0-3.0-1.577","../audio/30-7-masc.mp3"," ","","dinheiro.","","","",""
"","7175","html-keyboard-response","687","30290879","0.0-3.0-2.577-0.577","<span style=""font-size:25px; font-family: monospace"">O funcionário entregou o contrato?</span>","s","","","O funcionário entregou o contrato?","null","exp-sent","false"
"","null","html-keyboard-response","688","30292388","0.0-3.0-0.578-0.578","<span style= ""font-size:30px; font-family: monospace"">+</span>","null","fixation","","","","",""
"","280","audio-keyboard-response","689","30293071","0.0-3.0-1.578","../audio/49-1-masc.mp3"," ","","Eu","","","",""
"","3389","audio-keyboard-response","690","30296759","0.0-3.0-1.579","../audio/49-2-masc.mp3"," ","","quero","","","",""
"","960","audio-keyboard-response","691","30298087","0.0-3.0-1.580","../audio/49-3-masc.mp3"," ","","um","","","",""
"","1739","audio-keyboard-response","692","30300127","0.0-3.0-1.581","../audio/49-4-masc.mp3"," ","","lanche","","","",""
"","1131","audio-keyboard-response","693","30301663","0.0-3.0-1.582","../audio/49-5-masc.mp3"," ","","duplo","","","",""
"","869","audio-keyboard-response","694","30302839","0.0-3.0-1.583","../audio/49-6-masc.mp3"," ","","e","","","",""
"","869","audio-keyboard-response","695","30304015","0.0-3.0-1.584","../audio/49-7-masc.mp3"," ","","um","","","",""
"","1320","audio-keyboard-response","696","30305639","0.0-3.0-1.585","../audio/49-8-masc.mp3"," ","","suco.","","","",""
"","null","html-keyboard-response","697","30306903","0.0-3.0-0.586-0.586","<span style= ""font-size:30px; font-family: monospace"">+</span>","null","fixation","","","","",""
"","869","audio-keyboard-response","698","30308143","0.0-3.0-1.586","../audio/48-1-fem.mp3"," ","","Ela","","","",""
"","1181","audio-keyboard-response","699","30309631","0.0-3.0-1.587","../audio/48-2-fem.mp3"," ","","come","","","",""
"","1091","audio-keyboard-response","700","30311047","0.0-3.0-1.588","../audio/48-3-fem.mp3"," ","","feijão","","","",""
"","659","audio-keyboard-response","701","30312008","0.0-3.0-1.589","../audio/48-4-fem.mp3"," ","","com","","","",""
"","1061","audio-keyboard-response","702","30313391","0.0-3.0-1.590","../audio/48-5-fem.mp3"," ","","arroz","","","",""
"","989","audio-keyboard-response","703","30314695","0.0-3.0-1.591","../audio/48-6-fem.mp3"," ","","todos","","","",""
"","1192","audio-keyboard-response","704","30316191","0.0-3.0-1.592","../audio/48-7-fem.mp3"," ","","os","","","",""
"","1789","audio-keyboard-response","705","30318287","0.0-3.0-1.593","../audio/48-8-fem.mp3"," ","","dias.","","","",""
"","null","html-keyboard-response","706","30319547","0.0-3.0-0.594-0.594","<span style= ""font-size:30px; font-family: monospace"">+</span>","null","fixation","","","","",""
"","1451","audio-keyboard-response","707","30321343","0.0-3.0-1.594","../audio/46-1-masc.mp3"," ","","Meu","","","",""
"","1272","audio-keyboard-response","708","30322912","0.0-3.0-1.595","../audio/46-2-masc.mp3"," ","","primo","","","",""
"","1059","audio-keyboard-response","709","30324288","0.0-3.0-1.596","../audio/46-3-masc.mp3"," ","","estava","","","",""
"","3408","audio-keyboard-response","710","30328000","0.0-3.0-1.597","../audio/46-4-masc.mp3"," ","","muito","","","",""
"","5792","audio-keyboard-response","711","30334192","0.0-3.0-1.598","../audio/46-5-masc.mp3"," ","","deprimido","","","",""
"","1109","audio-keyboard-response","712","30335680","0.0-3.0-1.599","../audio/46-6-masc.mp3"," ","","no","","","",""
"","1011","audio-keyboard-response","713","30336992","0.0-3.0-1.600","../audio/46-7-masc.mp3"," ","","inverno.","","","",""
"","null","html-keyboard-response","714","30338260","0.0-3.0-0.601-0.601","<span style= ""font-size:30px; font-family: monospace"">+</span>","null","fixation","","","","",""
"","5389","audio-keyboard-response","715","30344025","0.0-3.0-1.601","../audio/47-1-fem.mp3"," ","","O","","","",""
"","1109","audio-keyboard-response","716","30345489","0.0-3.0-1.602","../audio/47-2-fem.mp3"," ","","tio","","","",""
"","1221","audio-keyboard-response","717","30347024","0.0-3.0-1.603","../audio/47-3-fem.mp3"," ","","recusou","","","",""
"","1251","audio-keyboard-response","718","30348569","0.0-3.0-1.604","../audio/47-4-fem.mp3"," ","","a","","","",""
"","1120","audio-keyboard-response","719","30350025","0.0-3.0-1.605","../audio/47-5-fem.mp3"," ","","sobremesa","","","",""
"","1000","audio-keyboard-response","720","30351329","0.0-3.0-1.606","../audio/47-6-fem.mp3"," ","","no","","","",""
"","1120","audio-keyboard-response","721","30352777","0.0-3.0-1.607","../audio/47-7-fem.mp3"," ","","almoço.","","","",""
"","null","html-keyboard-response","722","30354040","0.0-3.0-0.608-0.608","<span style= ""font-size:30px; font-family: monospace"">+</span>","null","fixation","","","","",""
"","920","audio-keyboard-response","723","30355321","0.0-3.0-1.608","../audio/50-1-fem.mp3"," ","","O","","","",""
"","1080","audio-keyboard-response","724","30356729","0.0-3.0-1.609","../audio/50-2-fem.mp3"," ","","pássaro","","","",""
"","1120","audio-keyboard-response","725","30358161","0.0-3.0-1.610","../audio/50-3-fem.mp3"," ","","fugiu","","","",""
"","909","audio-keyboard-response","726","30359377","0.0-3.0-1.611","../audio/50-4-fem.mp3"," ","","da","","","",""
"","2731","audio-keyboard-response","727","30362449","0.0-3.0-1.612","../audio/50-5-fem.mp3"," ","","gaiola","","","",""
"","1080","audio-keyboard-response","728","30363929","0.0-3.0-1.613","../audio/50-6-fem.mp3"," ","","pela","","","",""
"","1381","audio-keyboard-response","729","30365633","0.0-3.0-1.614","../audio/50-7-fem.mp3"," ","","portinhola.","","","",""
"","67090","html-keyboard-response","730","30432988","0.0-3.0-2.614-0.614","<span style=""font-size:25px; font-family: monospace"">O pássaro fugiu da gaiola?</span>","s","","","O pássaro fugiu da gaiola?","null","exp-sent","false"
"[{""page_index"":0,""viewing_time"":19036}]","19036","instructions","731","30452527","0.0-4.0","","","","","","","",""
