"view_history","rt","trial_type","trial_index","time_elapsed","internal_node_id","stimulus","response","portuguese","kreyol"
"[{""page_index"":0,""viewing_time"":22970}]","22971","instructions","0","22973","0.0-0.0","","","",""
"","null","html-keyboard-response","1","23587","0.0-1.0-0.0","+","null","",""
"","5120","audio-keyboard-response","2","28826","0.0-1.0-1.0","../audio/teste-vocab--112.mp3","s","aparição","aparisyon"
"","null","html-keyboard-response","3","29329","0.0-1.0-0.1","+","null","",""
"","2232","audio-keyboard-response","4","31697","0.0-1.0-1.1","../audio/teste-vocab--111.mp3","s","jubilosa","rejwisans"
"","null","html-keyboard-response","5","32203","0.0-1.0-0.2","+","null","",""
"","1549","audio-keyboard-response","6","33905","0.0-1.0-1.2","../audio/teste-vocab--117.mp3","s","córnea","kòn"
"","null","html-keyboard-response","7","34406","0.0-1.0-0.3","+","null","",""
"","1920","audio-keyboard-response","8","36481","0.0-1.0-1.3","../audio/teste-vocab--70.mp3","s","funil","antónwa"
"","null","html-keyboard-response","9","36992","0.0-1.0-0.4","+","null","",""
"","1851","audio-keyboard-response","10","38977","0.0-1.0-1.4","../audio/teste-vocab--124.mp3","s","obelisco","obelisk"
"","null","html-keyboard-response","11","39483","0.0-1.0-0.5","+","null","",""
"","1760","audio-keyboard-response","12","41393","0.0-1.0-1.5","../audio/teste-vocab--42.mp3","s","isolamento","izòlman"
"","null","html-keyboard-response","13","41895","0.0-1.0-0.6","+","null","",""
"","1840","audio-keyboard-response","14","43897","0.0-1.0-1.6","../audio/teste-vocab--54.mp3","s","arbusto","raje"
"","null","html-keyboard-response","15","44399","0.0-1.0-0.7","+","null","",""
"","1459","audio-keyboard-response","16","45985","0.0-1.0-1.7","../audio/teste-vocab--28.mp3","s","águia","èg"
"","null","html-keyboard-response","17","46490","0.0-1.0-0.8","+","null","",""
"","1840","audio-keyboard-response","18","48489","0.0-1.0-1.8","../audio/teste-vocab--122.mp3","s","transeunte","pasajè"
"","null","html-keyboard-response","19","48992","0.0-1.0-0.9","+","null","",""
"","1760","audio-keyboard-response","20","50906","0.0-1.0-1.9","../audio/teste-vocab--106.mp3","s","lubrificar","grese"
"","null","html-keyboard-response","21","51416","0.0-1.0-0.10","+","null","",""
"","1621","audio-keyboard-response","22","53209","0.0-1.0-1.10","../audio/teste-vocab--82.mp3","s","roer","ronje"
"","null","html-keyboard-response","23","53714","0.0-1.0-0.11","+","null","",""
"","1859","audio-keyboard-response","24","55745","0.0-1.0-1.11","../audio/teste-vocab--51.mp3","s","recolher","kolekte"
"","null","html-keyboard-response","25","56254","0.0-1.0-0.12","+","null","",""
"","1579","audio-keyboard-response","26","57985","0.0-1.0-1.12","../audio/teste-vocab--03.mp3","s","balançar","balanse"
"","null","html-keyboard-response","27","58488","0.0-1.0-0.13","+","null","",""
"","1920","audio-keyboard-response","28","60569","0.0-1.0-1.13","../audio/teste-vocab--61.mp3","s","iluminação","iliminasyon"
"","null","html-keyboard-response","29","61079","0.0-1.0-0.14","+","null","",""
"","1851","audio-keyboard-response","30","63130","0.0-1.0-1.14","../audio/teste-vocab--60.mp3","s","secretaria","sekretè"
"","null","html-keyboard-response","31","63644","0.0-1.0-0.15","+","null","",""
"","1781","audio-keyboard-response","32","65570","0.0-1.0-1.15","../audio/teste-vocab--100.mp3","s","consumir","konsome"
"","null","html-keyboard-response","33","66084","0.0-1.0-0.16","+","null","",""
"","1739","audio-keyboard-response","34","67994","0.0-1.0-1.16","../audio/teste-vocab--83.mp3","s","morsa","mòs"
"","null","html-keyboard-response","35","68509","0.0-1.0-0.17","+","null","",""
"","1979","audio-keyboard-response","36","70642","0.0-1.0-1.17","../audio/teste-vocab--94.mp3","s","paralelo","paralèl"
"","null","html-keyboard-response","37","71144","0.0-1.0-0.18","+","null","",""
"","1808","audio-keyboard-response","38","73114","0.0-1.0-1.18","../audio/teste-vocab--120.mp3","s","induzir","pwovoke"
"","null","html-keyboard-response","39","73618","0.0-1.0-0.19","+","null","",""
"","1629","audio-keyboard-response","40","75410","0.0-1.0-1.19","../audio/teste-vocab--99.mp3","s","arqueólogo","akeyológ"
"","null","html-keyboard-response","41","75913","0.0-1.0-0.20","+","null","",""
"","2149","audio-keyboard-response","42","78202","0.0-1.0-1.20","../audio/teste-vocab--109.mp3","s","anfíbio","anfibyen"
"","null","html-keyboard-response","43","78709","0.0-1.0-0.21","+","null","",""
"","1941","audio-keyboard-response","44","80778","0.0-1.0-1.21","../audio/teste-vocab--110.mp3","s","prodígio","pwodij"
"","null","html-keyboard-response","45","81280","0.0-1.0-0.22","+","null","",""
"","3309","audio-keyboard-response","46","84746","0.0-1.0-1.22","../audio/teste-vocab--114.mp3","s","fragmentar","dechire"
"","null","html-keyboard-response","47","85247","0.0-1.0-0.23","+","null","",""
"","2080","audio-keyboard-response","48","87483","0.0-1.0-1.23","../audio/teste-vocab--22.mp3","s","quebrado","kraze"
"","null","html-keyboard-response","49","87989","0.0-1.0-0.24","+","null","",""
"","1909","audio-keyboard-response","50","90034","0.0-1.0-1.24","../audio/teste-vocab--41.mp3","s","médico","doktè,"
"","null","html-keyboard-response","51","90549","0.0-1.0-0.25","+","null","",""
"","7189","audio-keyboard-response","52","97867","0.0-1.0-1.25","../audio/teste-vocab--35.mp3","s","líquido","likid"
"","null","html-keyboard-response","53","98380","0.0-1.0-0.26","+","null","",""
"","3989","audio-keyboard-response","54","102515","0.0-1.0-1.26","../audio/teste-vocab--119.mp3","s","numeroso","anpil"
"","null","html-keyboard-response","55","103025","0.0-1.0-0.27","+","null","",""
"","2891","audio-keyboard-response","56","106083","0.0-1.0-1.27","../audio/teste-vocab--69.mp3","s","pingar","degoute"
"","null","html-keyboard-response","57","106584","0.0-1.0-0.28","+","null","",""
"","1829","audio-keyboard-response","58","108571","0.0-1.0-1.28","../audio/teste-vocab--29.mp3","s","rasgar","chire"
"","null","html-keyboard-response","59","109085","0.0-1.0-0.29","+","null","",""
"","2120","audio-keyboard-response","60","111339","0.0-1.0-1.29","../audio/teste-vocab--30.mp3","s","pintor","pent"
"","null","html-keyboard-response","61","111844","0.0-1.0-0.30","+","null","",""
"","1520","audio-keyboard-response","62","113579","0.0-1.0-1.30","../audio/teste-vocab--65.mp3","s","discussão","diskisyon"
"","null","html-keyboard-response","63","114089","0.0-1.0-0.31","+","null","",""
"","3349","audio-keyboard-response","64","117595","0.0-1.0-1.31","../audio/teste-vocab--55.mp3","s","bosque","forè"
"","null","html-keyboard-response","65","118109","0.0-1.0-0.32","+","null","",""
"","1840","audio-keyboard-response","66","120084","0.0-1.0-1.32","../audio/teste-vocab--49.mp3","s","humano","moun"
"","null","html-keyboard-response","67","120589","0.0-1.0-0.33","+","null","",""
"","2880","audio-keyboard-response","68","123667","0.0-1.0-1.33","../audio/teste-vocab--44.mp3","s","premiar","rekonpanse"
"","null","html-keyboard-response","69","124179","0.0-1.0-0.34","+","null","",""
"","1931","audio-keyboard-response","70","126260","0.0-1.0-1.34","../audio/teste-vocab--15.mp3","s","flecha","flèch"
"","null","html-keyboard-response","71","126763","0.0-1.0-0.35","+","null","",""
"","1992","audio-keyboard-response","72","128900","0.0-1.0-1.35","../audio/teste-vocab--27.mp3","s","rio","rivyè"
"","null","html-keyboard-response","73","129411","0.0-1.0-0.36","+","null","",""
"","2368","audio-keyboard-response","74","131916","0.0-1.0-1.36","../audio/teste-vocab--121.mp3","s","atônito","sezi"
"","null","html-keyboard-response","75","132425","0.0-1.0-0.37","+","null","",""
"","4811","audio-keyboard-response","76","137380","0.0-1.0-1.37","../audio/teste-vocab--113.mp3","s","ascender","limen"
"","null","html-keyboard-response","77","137881","0.0-1.0-0.38","+","null","",""
"","4520","audio-keyboard-response","78","142548","0.0-1.0-1.38","../audio/teste-vocab--97.mp3","s","frágil","frajil"
"","null","html-keyboard-response","79","143052","0.0-1.0-0.39","+","null","",""
"","5440","audio-keyboard-response","80","148636","0.0-1.0-1.39","../audio/teste-vocab--38.mp3","s","cerimônia","seremoni"
"","null","html-keyboard-response","81","149149","0.0-1.0-0.40","+","null","",""
"","2669","audio-keyboard-response","82","151949","0.0-1.0-1.40","../audio/teste-vocab--26.mp3","s","cotovelo","koud"
"","null","html-keyboard-response","83","152451","0.0-1.0-0.41","+","null","",""
"","1880","audio-keyboard-response","84","154461","0.0-1.0-1.41","../audio/teste-vocab--130.mp3","s","gentil","dou"
"","null","html-keyboard-response","85","154970","0.0-1.0-0.42","+","null","",""
"","1371","audio-keyboard-response","86","156485","0.0-1.0-1.42","../audio/teste-vocab--16.mp3","s","pescoço","kou"
"","null","html-keyboard-response","87","156998","0.0-1.0-0.43","+","null","",""
"","2299","audio-keyboard-response","88","159389","0.0-1.0-1.43","../audio/teste-vocab--63.mp3","s","transparente","transparan"
"","null","html-keyboard-response","89","159895","0.0-1.0-0.44","+","null","",""
"","3320","audio-keyboard-response","90","163349","0.0-1.0-1.44","../audio/teste-vocab--87.mp3","s","ave","zwazo"
"","null","html-keyboard-response","91","163856","0.0-1.0-0.45","+","null","",""
"","2429","audio-keyboard-response","92","166437","0.0-1.0-1.45","../audio/teste-vocab--81.mp3","s","judicial","jidisyè"
"","null","html-keyboard-response","93","166953","0.0-1.0-0.46","+","null","",""
"","4840","audio-keyboard-response","94","171949","0.0-1.0-1.46","../audio/teste-vocab--66.mp3","s","cooperação","koperasyon"
"","null","html-keyboard-response","95","172460","0.0-1.0-0.47","+","null","",""
"","2341","audio-keyboard-response","96","174981","0.0-1.0-1.47","../audio/teste-vocab--90.mp3","s","carniça","kanivò"
"","null","html-keyboard-response","97","175489","0.0-1.0-0.48","+","null","",""
"","3021","audio-keyboard-response","98","178662","0.0-1.0-1.48","../audio/teste-vocab--116.mp3","s","vestuário","vestyè"
"","null","html-keyboard-response","99","179174","0.0-1.0-0.49","+","null","",""
"","1829","audio-keyboard-response","100","181133","0.0-1.0-1.49","../audio/teste-vocab--123.mp3","s","emissão","emisyon"
"","null","html-keyboard-response","101","181645","0.0-1.0-0.50","+","null","",""
"","6109","audio-keyboard-response","102","187894","0.0-1.0-1.50","../audio/teste-vocab--40.mp3","s","bebida","bwason"
"","null","html-keyboard-response","103","188397","0.0-1.0-0.51","+","null","",""
"","2320","audio-keyboard-response","104","190870","0.0-1.0-1.51","../audio/teste-vocab--96.mp3","s","árido","sechrès"
"","null","html-keyboard-response","105","191384","0.0-1.0-0.52","+","null","",""
"","4541","audio-keyboard-response","106","196054","0.0-1.0-1.52","../audio/teste-vocab--86.mp3","s","pensar","panse"
"","null","html-keyboard-response","107","196571","0.0-1.0-0.53","+","null","",""
"","1469","audio-keyboard-response","108","198198","0.0-1.0-1.53","../audio/teste-vocab--31.mp3","s","vazio","vid"
"","null","html-keyboard-response","109","198708","0.0-1.0-0.54","+","null","",""
"","512","audio-keyboard-response","110","199342","0.0-1.0-1.54","../audio/teste-vocab--14.mp3","s","ler","li"
"","null","html-keyboard-response","111","199856","0.0-1.0-0.55","+","null","",""
"","5939","audio-keyboard-response","112","205887","0.0-1.0-1.55","../audio/teste-vocab--67.mp3","s","corrimão","ranp"
"","null","html-keyboard-response","113","206396","0.0-1.0-0.56","+","null","",""
"","1811","audio-keyboard-response","114","208342","0.0-1.0-1.56","../audio/teste-vocab--126.mp3","s","ambulante","promennen"
"","null","html-keyboard-response","115","208855","0.0-1.0-0.57","+","null","",""
"","5611","audio-keyboard-response","116","214614","0.0-1.0-1.57","../audio/teste-vocab--04.mp3","s","roda","wonn"
"","null","html-keyboard-response","117","215115","0.0-1.0-0.58","+","null","",""
"","1699","audio-keyboard-response","118","216951","0.0-1.0-1.58","../audio/teste-vocab--98.mp3","s","instruir","enstwi"
"","null","html-keyboard-response","119","217457","0.0-1.0-0.59","+","null","",""
"","4781","audio-keyboard-response","120","222383","0.0-1.0-1.59","../audio/teste-vocab--77.mp3","s","comércio","komès"
"","null","html-keyboard-response","121","222886","0.0-1.0-0.60","+","null","",""
"","4888","audio-keyboard-response","122","227911","0.0-1.0-1.60","../audio/teste-vocab--118.mp3","s","paralelogramo","paralelogram"
"","null","html-keyboard-response","123","228424","0.0-1.0-0.61","+","null","",""
"","3909","audio-keyboard-response","124","232487","0.0-1.0-1.61","../audio/teste-vocab--74.mp3","s","desilusão","dezilizyon"
"","null","html-keyboard-response","125","232990","0.0-1.0-0.62","+","null","",""
"","4051","audio-keyboard-response","126","237207","0.0-1.0-1.62","../audio/teste-vocab--89.mp3","s","classificar","klasifika"
"","null","html-keyboard-response","127","237718","0.0-1.0-0.63","+","null","",""
"","5480","audio-keyboard-response","128","243368","0.0-1.0-1.63","../audio/teste-vocab--75.mp3","s","carpinteiro","chapantye"
"","null","html-keyboard-response","129","243878","0.0-1.0-0.64","+","null","",""
"","2099","audio-keyboard-response","130","246111","0.0-1.0-1.64","../audio/teste-vocab--68.mp3","s","surpreendido","sezi"
"","null","html-keyboard-response","131","246620","0.0-1.0-0.65","+","null","",""
"","1760","audio-keyboard-response","132","248544","0.0-1.0-1.65","../audio/teste-vocab--91.mp3","s","bússola","bousòl"
"","null","html-keyboard-response","133","249055","0.0-1.0-0.66","+","null","",""
"","1771","audio-keyboard-response","134","250976","0.0-1.0-1.66","../audio/teste-vocab--01.mp3","s","boneca","pope"
"","null","html-keyboard-response","135","251479","0.0-1.0-0.67","+","null","",""
"","1480","audio-keyboard-response","136","253096","0.0-1.0-1.67","../audio/teste-vocab--36.mp3","s","grupo","gwoup"
"","null","html-keyboard-response","137","253600","0.0-1.0-0.68","+","null","",""
"","3509","audio-keyboard-response","138","257272","0.0-1.0-1.68","../audio/teste-vocab--80.mp3","s","binóculo","longvi"
"","null","html-keyboard-response","139","257779","0.0-1.0-0.69","+","null","",""
"","1939","audio-keyboard-response","140","259880","0.0-1.0-1.69","../audio/teste-vocab--125.mp3","s","lamaçal","labou"
"","null","html-keyboard-response","141","260392","0.0-1.0-0.70","+","null","",""
"","1709","audio-keyboard-response","142","262248","0.0-1.0-1.70","../audio/teste-vocab--11.mp3","s","joelho","jenou"
"","null","html-keyboard-response","143","262752","0.0-1.0-0.71","+","null","",""
"","1939","audio-keyboard-response","144","264832","0.0-1.0-1.71","../audio/teste-vocab--47.mp3","s","envelope","anvlope"
"","null","html-keyboard-response","145","265336","0.0-1.0-0.72","+","null","",""
"","2019","audio-keyboard-response","146","267520","0.0-1.0-1.72","../audio/teste-vocab--52.mp3","s","construção","konstriksyon"
"","null","html-keyboard-response","147","268033","0.0-1.0-0.73","+","null","",""
"","1691","audio-keyboard-response","148","269856","0.0-1.0-1.73","../audio/teste-vocab--07.mp3","s","abajur","lanp"
"","null","html-keyboard-response","149","270363","0.0-1.0-0.74","+","null","",""
"","2181","audio-keyboard-response","150","272696","0.0-1.0-1.74","../audio/teste-vocab--72.mp3","s","ilha","zile"
"","null","html-keyboard-response","151","273205","0.0-1.0-0.75","+","null","",""
"","2040","audio-keyboard-response","152","275392","0.0-1.0-1.75","../audio/teste-vocab--50.mp3","s","artista","atis"
"","null","html-keyboard-response","153","275898","0.0-1.0-0.76","+","null","",""
"","1968","audio-keyboard-response","154","278033","0.0-1.0-1.76","../audio/teste-vocab--33.mp3","s","uniforme","inifòm"
"","null","html-keyboard-response","155","278547","0.0-1.0-0.77","+","null","",""
"","1160","audio-keyboard-response","156","279864","0.0-1.0-1.77","../audio/teste-vocab--13.mp3","s","ambulância","anbilans"
"","null","html-keyboard-response","157","280367","0.0-1.0-0.78","+","null","",""
"","4008","audio-keyboard-response","158","284480","0.0-1.0-1.78","../audio/teste-vocab--92.mp3","s","esférico","won"
"","null","html-keyboard-response","159","284994","0.0-1.0-0.79","+","null","",""
"","1939","audio-keyboard-response","160","287120","0.0-1.0-1.79","../audio/teste-vocab--56.mp3","s","agricultura","agrikilti"
"","null","html-keyboard-response","161","287625","0.0-1.0-0.80","+","null","",""
"","1829","audio-keyboard-response","162","289609","0.0-1.0-1.80","../audio/teste-vocab--78.mp3","s","quarteto","qwatèt"
"","null","html-keyboard-response","163","290114","0.0-1.0-0.81","+","null","",""
"","4291","audio-keyboard-response","164","294545","0.0-1.0-1.81","../audio/teste-vocab--37.mp3","s","músico","mizisyen"
"","null","html-keyboard-response","165","295060","0.0-1.0-0.82","+","null","",""
"","1549","audio-keyboard-response","166","296857","0.0-1.0-1.82","../audio/teste-vocab--12.mp3","s","jaula","kaj"
"","null","html-keyboard-response","167","297373","0.0-1.0-0.83","+","null","",""
"","1880","audio-keyboard-response","168","299401","0.0-1.0-1.83","../audio/teste-vocab--20.mp3","s","medir","mezire"
"","null","html-keyboard-response","169","299910","0.0-1.0-0.84","+","null","",""
"","2011","audio-keyboard-response","170","302057","0.0-1.0-1.84","../audio/teste-vocab--23.mp3","s","acariciar","karese"
"","null","html-keyboard-response","171","302560","0.0-1.0-0.85","+","null","",""
"","1949","audio-keyboard-response","172","304657","0.0-1.0-1.85","../audio/teste-vocab--25.mp3","s","canguru","kanguwou"
"","null","html-keyboard-response","173","305163","0.0-1.0-0.86","+","null","",""
"","2851","audio-keyboard-response","174","308137","0.0-1.0-1.86","../audio/teste-vocab--64.mp3","s","colher","kiyè"
"","null","html-keyboard-response","175","308640","0.0-1.0-0.87","+","null","",""
"","2960","audio-keyboard-response","176","311769","0.0-1.0-1.87","../audio/teste-vocab--21.mp3","s","baleia","balèn"
"","null","html-keyboard-response","177","312277","0.0-1.0-0.88","+","null","",""
"","7160","audio-keyboard-response","178","319594","0.0-1.0-1.88","../audio/teste-vocab--57.mp3","s","raiz","rasin"
"","null","html-keyboard-response","179","320097","0.0-1.0-0.89","+","null","",""
"","1480","audio-keyboard-response","180","321729","0.0-1.0-1.89","../audio/teste-vocab--39.mp3","s","cobra","koulèv"
"","null","html-keyboard-response","181","322240","0.0-1.0-0.90","+","null","",""
"","2021","audio-keyboard-response","182","324426","0.0-1.0-1.90","../audio/teste-vocab--128.mp3","s","incisivo","ensisiv"
"","null","html-keyboard-response","183","324926","0.0-1.0-0.91","+","null","",""
"","2240","audio-keyboard-response","184","327322","0.0-1.0-1.91","../audio/teste-vocab--10.mp3","s","corneta","kòn"
"","null","html-keyboard-response","185","327827","0.0-1.0-0.92","+","null","",""
"","7509","audio-keyboard-response","186","335490","0.0-1.0-1.92","../audio/teste-vocab--88.mp3","s","portátil","pòtab"
"","null","html-keyboard-response","187","336002","0.0-1.0-0.93","+","null","",""
"","4539","audio-keyboard-response","188","340682","0.0-1.0-1.93","../audio/teste-vocab--71.mp3","s","caule","tij"
"","null","html-keyboard-response","189","341191","0.0-1.0-0.94","+","null","",""
"","3411","audio-keyboard-response","190","344746","0.0-1.0-1.94","../audio/teste-vocab--95.mp3","s","submergir","plonje"
"","null","html-keyboard-response","191","345259","0.0-1.0-0.95","+","null","",""
"","3541","audio-keyboard-response","192","348947","0.0-1.0-1.95","../audio/teste-vocab--08.mp3","s","vaca","vach"
"","null","html-keyboard-response","193","349460","0.0-1.0-0.96","+","null","",""
"","3931","audio-keyboard-response","194","353547","0.0-1.0-1.96","../audio/teste-vocab--107.mp3","s","elo","emay"
"","null","html-keyboard-response","195","354056","0.0-1.0-0.97","+","null","",""
"","1491","audio-keyboard-response","196","355707","0.0-1.0-1.97","../audio/teste-vocab--43.mp3","s","mecânico","mekanisyen"
"","null","html-keyboard-response","197","356221","0.0-1.0-0.98","+","null","",""
"","3451","audio-keyboard-response","198","359859","0.0-1.0-1.98","../audio/teste-vocab--105.mp3","s","cítrico","sitrik"
"","null","html-keyboard-response","199","360364","0.0-1.0-0.99","+","null","",""
"","5301","audio-keyboard-response","200","365827","0.0-1.0-1.99","../audio/teste-vocab--09.mp3","s","vela","bouji"
"","null","html-keyboard-response","201","366335","0.0-1.0-0.100","+","null","",""
"","6011","audio-keyboard-response","202","372500","0.0-1.0-1.100","../audio/teste-vocab--101.mp3","s","incandescente","enkandesan"
"","null","html-keyboard-response","203","373008","0.0-1.0-0.101","+","null","",""
"","2371","audio-keyboard-response","204","375539","0.0-1.0-1.101","../audio/teste-vocab--103.mp3","s","utensílio","istansil"
"","null","html-keyboard-response","205","376040","0.0-1.0-0.102","+","null","",""
"","2560","audio-keyboard-response","206","378747","0.0-1.0-1.102","../audio/teste-vocab--115.mp3","s","perpendicular","pèpandikilè"
"","null","html-keyboard-response","207","379262","0.0-1.0-0.103","+","null","",""
"","1389","audio-keyboard-response","208","380803","0.0-1.0-1.103","../audio/teste-vocab--34.mp3","s","tronco","twon"
"","null","html-keyboard-response","209","381319","0.0-1.0-0.104","+","null","",""
"","1400","audio-keyboard-response","210","382796","0.0-1.0-1.104","../audio/teste-vocab--19.mp3","s","hora","è"
"","null","html-keyboard-response","211","383312","0.0-1.0-0.105","+","null","",""
"","2160","audio-keyboard-response","212","385588","0.0-1.0-1.105","../audio/teste-vocab--93.mp3","s","felino","leopa"
"","null","html-keyboard-response","213","386098","0.0-1.0-0.106","+","null","",""
"","3981","audio-keyboard-response","214","390228","0.0-1.0-1.106","../audio/teste-vocab--84.mp3","s","confiar","konfye"
"","null","html-keyboard-response","215","390730","0.0-1.0-0.107","+","null","",""
"","1800","audio-keyboard-response","216","392692","0.0-1.0-1.107","../audio/teste-vocab--104.mp3","s","ira","pwal"
"","null","html-keyboard-response","217","393206","0.0-1.0-0.108","+","null","",""
"","1651","audio-keyboard-response","218","395020","0.0-1.0-1.108","../audio/teste-vocab--73.mp3","s","ângulo","ang"
"","null","html-keyboard-response","219","395534","0.0-1.0-0.109","+","null","",""
"","1261","audio-keyboard-response","220","396948","0.0-1.0-1.109","../audio/teste-vocab--06.mp3","s","barco","bato"
"","null","html-keyboard-response","221","397450","0.0-1.0-0.110","+","null","",""
"","6568","audio-keyboard-response","222","404116","0.0-1.0-1.110","../audio/teste-vocab--53.mp3","s","orientar","oryante"
"","null","html-keyboard-response","223","404617","0.0-1.0-0.111","+","null","",""
"","9861","audio-keyboard-response","224","414621","0.0-1.0-1.111","../audio/teste-vocab--79.mp3","s","moldura"," chanbranl"
"","null","html-keyboard-response","225","415136","0.0-1.0-0.112","+","null","",""
"","2621","audio-keyboard-response","226","417901","0.0-1.0-1.112","../audio/teste-vocab--17.mp3","s","móvel","mobil"
"","null","html-keyboard-response","227","418410","0.0-1.0-0.113","+","null","",""
"","4579","audio-keyboard-response","228","423165","0.0-1.0-1.113","../audio/teste-vocab--18.mp3","s","abelha","myèl"
"","null","html-keyboard-response","229","423679","0.0-1.0-0.114","+","null","",""
"","1829","audio-keyboard-response","230","425653","0.0-1.0-1.114","../audio/teste-vocab--85.mp3","s","trio","trio"
"","null","html-keyboard-response","231","426167","0.0-1.0-0.115","+","null","",""
"","1832","audio-keyboard-response","232","428149","0.0-1.0-1.115","../audio/teste-vocab--62.mp3","s","carretel","bobin"
"","null","html-keyboard-response","233","428655","0.0-1.0-0.116","+","null","",""
"","2531","audio-keyboard-response","234","431341","0.0-1.0-1.116","../audio/teste-vocab--05.mp3","s","limpar","netwaye"
"","null","html-keyboard-response","235","431847","0.0-1.0-0.117","+","null","",""
"","2131","audio-keyboard-response","236","434133","0.0-1.0-1.117","../audio/teste-vocab--58.mp3","s","nutritivo","nourisan"
"","null","html-keyboard-response","237","434634","0.0-1.0-0.118","+","null","",""
"","2000","audio-keyboard-response","238","436790","0.0-1.0-1.118","../audio/teste-vocab--02.mp3","s","homem","gason"
"","null","html-keyboard-response","239","437297","0.0-1.0-0.119","+","null","",""
"","1589","audio-keyboard-response","240","439045","0.0-1.0-1.119","../audio/teste-vocab--76.mp3","s","arquivar","achive"
"","null","html-keyboard-response","241","439550","0.0-1.0-0.120","+","null","",""
"","1739","audio-keyboard-response","242","441437","0.0-1.0-1.120","../audio/teste-vocab--24.mp3","s","acidente","aksidan"
"","null","html-keyboard-response","243","441942","0.0-1.0-0.121","+","null","",""
"","3451","audio-keyboard-response","244","445533","0.0-1.0-1.121","../audio/teste-vocab--102.mp3","s","arrogante","arogan"
"","null","html-keyboard-response","245","446047","0.0-1.0-0.122","+","null","",""
"","1819","audio-keyboard-response","246","448014","0.0-1.0-1.122","../audio/teste-vocab--32.mp3","s","descascar","dekale"
"","null","html-keyboard-response","247","448521","0.0-1.0-0.123","+","null","",""
"","1528","audio-keyboard-response","248","450206","0.0-1.0-1.123","../audio/teste-vocab--46.mp3","s","ombro","zepòl"
"","null","html-keyboard-response","249","450709","0.0-1.0-0.124","+","null","",""
"","1859","audio-keyboard-response","250","452726","0.0-1.0-1.124","../audio/teste-vocab--48.mp3","s","joia","bijou"
"","null","html-keyboard-response","251","453231","0.0-1.0-0.125","+","null","",""
"","1888","audio-keyboard-response","252","455278","0.0-1.0-1.125","../audio/teste-vocab--127.mp3","s","côncavo","konkav"
"","null","html-keyboard-response","253","455782","0.0-1.0-0.126","+","null","",""
"","1149","audio-keyboard-response","254","457086","0.0-1.0-1.126","../audio/teste-vocab--59.mp3","s","par","pè"
"","null","html-keyboard-response","255","457588","0.0-1.0-0.127","+","null","",""
"","1128","audio-keyboard-response","256","458806","0.0-1.0-1.127","../audio/teste-vocab--108.mp3","s","moradia","kay"
"","null","html-keyboard-response","257","459312","0.0-1.0-0.128","+","null","",""
"","1688","audio-keyboard-response","258","461086","0.0-1.0-1.128","../audio/teste-vocab--45.mp3","s","dentista","dantis"
"","null","html-keyboard-response","259","461593","0.0-1.0-0.129","+","null","",""
"","1480","audio-keyboard-response","260","463222","0.0-1.0-1.129","../audio/teste-vocab--129.mp3","s","elipse","elips"
