"view_history","rt","trial_type","trial_index","time_elapsed","internal_node_id","stimulus","response","trial_part","trial","word","question","answer","accuracy"
"[{""page_index"":0,""viewing_time"":3323},{""page_index"":1,""viewing_time"":3272}]","6596","instructions","0","6599","0.0-0.0","","","","","","","",""
"","null","html-keyboard-response","1","7715","0.0-1.0-0.0-0.0","<span style= ""font-size:30px; font-family: monospace"">+</span>","null","fixation","","","","",""
"","2957","html-keyboard-response","2","10925","0.0-1.0-1.0","<span style=""font-size:30px; font-family: monospace"">O</span>"," ","","prac-sent","O","","",""
"","2774","html-keyboard-response","3","13963","0.0-1.0-1.1","<span style=""font-size:30px; font-family: monospace"">dia</span>"," ","","prac-sent","dia","","",""
"","1285","html-keyboard-response","4","15507","0.0-1.0-1.2","<span style=""font-size:30px; font-family: monospace"">estará</span>"," ","","prac-sent","estará","","",""
"","953","html-keyboard-response","5","16715","0.0-1.0-1.3","<span style=""font-size:30px; font-family: monospace"">cheio</span>"," ","","prac-sent","cheio","","",""
"","891","html-keyboard-response","6","17867","0.0-1.0-1.4","<span style=""font-size:30px; font-family: monospace"">de</span>"," ","","prac-sent","de","","",""
"","3063","html-keyboard-response","7","21188","0.0-1.0-1.5","<span style=""font-size:30px; font-family: monospace"">nuvens</span>"," ","","prac-sent","nuvens","","",""
"","1003","html-keyboard-response","8","22444","0.0-1.0-1.6","<span style=""font-size:30px; font-family: monospace"">hoje.</span>"," ","","prac-sent","hoje.","","",""
"","null","html-keyboard-response","9","23708","0.0-1.0-0.7-0.7","<span style= ""font-size:30px; font-family: monospace"">+</span>","null","fixation","","","","",""
"","943","html-keyboard-response","10","24908","0.0-1.0-1.7","<span style=""font-size:30px; font-family: monospace"">A</span>"," ","","prac-sent","A","","",""
"","1339","html-keyboard-response","11","26500","0.0-1.0-1.8","<span style=""font-size:30px; font-family: monospace"">caneca</span>"," ","","prac-sent","caneca","","",""
"","910","html-keyboard-response","12","27668","0.0-1.0-1.9","<span style=""font-size:30px; font-family: monospace"">colorida</span>"," ","","prac-sent","colorida","","",""
"","1272","html-keyboard-response","13","29196","0.0-1.0-1.10","<span style=""font-size:30px; font-family: monospace"">caiu</span>"," ","","prac-sent","caiu","","",""
"","860","html-keyboard-response","14","30316","0.0-1.0-1.11","<span style=""font-size:30px; font-family: monospace"">da</span>"," ","","prac-sent","da","","",""
"","980","html-keyboard-response","15","31548","0.0-1.0-1.12","<span style=""font-size:30px; font-family: monospace"">mesa</span>"," ","","prac-sent","mesa","","",""
"","868","html-keyboard-response","16","32668","0.0-1.0-1.13","<span style=""font-size:30px; font-family: monospace"">de</span>"," ","","prac-sent","de","","",""
"","1084","html-keyboard-response","17","34004","0.0-1.0-1.14","<span style=""font-size:30px; font-family: monospace"">jantar.</span>"," ","","prac-comp","jantar.","","",""
"","8844","html-keyboard-response","18","43100","0.0-1.0-2.14-0.14","<span style=""font-size:30px; font-family: monospace"">A caneca permaneceu na mesa?</span>","s","","prac-comp","","A caneca permaneceu na mesa?","não","false"
"[{""page_index"":0,""viewing_time"":7261}]","7261","instructions","19","50863","0.0-2.0","","","","","","","",""
"","null","html-keyboard-response","20","51966","0.0-3.0-0.0-0.0","<span style= ""font-size:30px; font-family: monospace"">+</span>","null","fixation","","","","",""
"","3531","html-keyboard-response","21","55749","0.0-3.0-1.0","<span style=""font-size:30px; font-family: monospace"">Eu</span>"," ","","exp-sent","Eu","","",""
"","596","html-keyboard-response","22","56597","0.0-3.0-1.1","<span style=""font-size:30px; font-family: monospace"">gosto</span>"," ","","exp-sent","gosto","","",""
"","596","html-keyboard-response","23","57445","0.0-3.0-1.2","<span style=""font-size:30px; font-family: monospace"">de</span>"," ","","exp-sent","de","","",""
"","979","html-keyboard-response","24","58677","0.0-3.0-1.3","<span style=""font-size:30px; font-family: monospace"">molho</span>"," ","","exp-sent","molho","","",""
"","852","html-keyboard-response","25","59781","0.0-3.0-1.4","<span style=""font-size:30px; font-family: monospace"">picante</span>"," ","","exp-sent","picante","","",""
"","884","html-keyboard-response","26","60917","0.0-3.0-1.5","<span style=""font-size:30px; font-family: monospace"">nas</span>"," ","","exp-sent","nas","","",""
"","1324","html-keyboard-response","27","62494","0.0-3.0-1.6","<span style=""font-size:30px; font-family: monospace"">batatas.</span>"," ","","exp-sent","batatas.","","",""
"","null","html-keyboard-response","28","63747","0.0-3.0-0.7-0.7","<span style= ""font-size:30px; font-family: monospace"">+</span>","null","fixation","","","","",""
"","783","html-keyboard-response","29","64781","0.0-3.0-1.7","<span style=""font-size:30px; font-family: monospace"">As</span>"," ","","exp-sent","As","","",""
"","853","html-keyboard-response","30","65886","0.0-3.0-1.8","<span style=""font-size:30px; font-family: monospace"">pessoas</span>"," ","","exp-sent","pessoas","","",""
"","747","html-keyboard-response","31","66886","0.0-3.0-1.9","<span style=""font-size:30px; font-family: monospace"">têm</span>"," ","","exp-sent","têm","","",""
"","724","html-keyboard-response","32","67862","0.0-3.0-1.10","<span style=""font-size:30px; font-family: monospace"">sua</span>"," ","","exp-sent","sua","","",""
"","27261","html-keyboard-response","33","95375","0.0-3.0-1.11","<span style=""font-size:30px; font-family: monospace"">liberdade</span>"," ","","exp-sent","liberdade","","",""
"","1572","html-keyboard-response","34","97198","0.0-3.0-1.12","<span style=""font-size:30px; font-family: monospace"">até</span>"," ","","exp-sent","até","","",""
"","580","html-keyboard-response","35","98031","0.0-3.0-1.13","<span style=""font-size:30px; font-family: monospace"">certo</span>"," ","","exp-sent","certo","","",""
"","1019","html-keyboard-response","36","99302","0.0-3.0-1.14","<span style=""font-size:30px; font-family: monospace"">ponto.</span>"," ","","exp-sent","ponto.","","",""
"","null","html-keyboard-response","37","100556","0.0-3.0-0.15-0.15","<span style= ""font-size:30px; font-family: monospace"">+</span>","null","fixation","","","","",""
"","559","html-keyboard-response","38","101367","0.0-3.0-1.15","<span style=""font-size:30px; font-family: monospace"">A</span>"," ","","exp-sent","A","","",""
"","765","html-keyboard-response","39","102383","0.0-3.0-1.16","<span style=""font-size:30px; font-family: monospace"">empresa</span>"," ","","exp-sent","empresa","","",""
"","669","html-keyboard-response","40","103303","0.0-3.0-1.17","<span style=""font-size:30px; font-family: monospace"">enviou</span>"," ","","exp-sent","enviou","","",""
"","763","html-keyboard-response","41","104319","0.0-3.0-1.18","<span style=""font-size:30px; font-family: monospace"">o</span>"," ","","exp-sent","o","","",""
"","683","html-keyboard-response","42","105255","0.0-3.0-1.19","<span style=""font-size:30px; font-family: monospace"">aviso</span>"," ","","exp-sent","aviso","","",""
"","701","html-keyboard-response","43","106207","0.0-3.0-1.20","<span style=""font-size:30px; font-family: monospace"">hoje</span>"," ","","exp-sent","hoje","","",""
"","596","html-keyboard-response","44","107055","0.0-3.0-1.21","<span style=""font-size:30px; font-family: monospace"">de</span>"," ","","exp-sent","de","","",""
"","812","html-keyboard-response","45","108119","0.0-3.0-1.22","<span style=""font-size:30px; font-family: monospace"">tarde.</span>"," ","","exp-sent","tarde.","","",""
"","null","html-keyboard-response","46","109372","0.0-3.0-0.23-0.23","<span style= ""font-size:30px; font-family: monospace"">+</span>","null","fixation","","","","",""
"","647","html-keyboard-response","47","110271","0.0-3.0-1.23","<span style=""font-size:30px; font-family: monospace"">A</span>"," ","","exp-sent","A","","",""
"","708","html-keyboard-response","48","111231","0.0-3.0-1.24","<span style=""font-size:30px; font-family: monospace"">loja</span>"," ","","exp-sent","loja","","",""
"","581","html-keyboard-response","49","112063","0.0-3.0-1.25","<span style=""font-size:30px; font-family: monospace"">vende</span>"," ","","exp-sent","vende","","",""
"","1029","html-keyboard-response","50","113351","0.0-3.0-1.26","<span style=""font-size:30px; font-family: monospace"">tanto</span>"," ","","exp-sent","tanto","","",""
"","716","html-keyboard-response","51","114319","0.0-3.0-1.27","<span style=""font-size:30px; font-family: monospace"">frituras</span>"," ","","exp-sent","frituras","","",""
"","684","html-keyboard-response","52","115255","0.0-3.0-1.28","<span style=""font-size:30px; font-family: monospace"">quanto</span>"," ","","exp-sent","quanto","","",""
"","852","html-keyboard-response","53","116359","0.0-3.0-1.29","<span style=""font-size:30px; font-family: monospace"">comidas</span>"," ","","exp-sent","comidas","","",""
"","732","html-keyboard-response","54","117343","0.0-3.0-1.30","<span style=""font-size:30px; font-family: monospace"">leves.</span>"," ","","exp-sent","leves.","","",""
"","null","html-keyboard-response","55","118596","0.0-3.0-0.31-0.31","<span style= ""font-size:30px; font-family: monospace"">+</span>","null","fixation","","","","",""
"","6088","html-keyboard-response","56","124935","0.0-3.0-1.31","<span style=""font-size:30px; font-family: monospace"">As</span>"," ","","exp-sent","As","","",""
"","716","html-keyboard-response","57","125903","0.0-3.0-1.32","<span style=""font-size:30px; font-family: monospace"">cadeiras</span>"," ","","exp-sent","cadeiras","","",""
"","589","html-keyboard-response","58","126744","0.0-3.0-1.33","<span style=""font-size:30px; font-family: monospace"">azuis</span>"," ","","exp-sent","azuis","","",""
"","661","html-keyboard-response","59","127656","0.0-3.0-1.34","<span style=""font-size:30px; font-family: monospace"">da</span>"," ","","exp-sent","da","","",""
"","531","html-keyboard-response","60","128439","0.0-3.0-1.35","<span style=""font-size:30px; font-family: monospace"">sala</span>"," ","","exp-sent","sala","","",""
"","685","html-keyboard-response","61","129376","0.0-3.0-1.36","<span style=""font-size:30px; font-family: monospace"">eram</span>"," ","","exp-sent","eram","","",""
"","9596","html-keyboard-response","62","139224","0.0-3.0-1.37","<span style=""font-size:30px; font-family: monospace"">da</span>"," ","","exp-sent","da","","",""
"","900","html-keyboard-response","63","140376","0.0-3.0-1.38","<span style=""font-size:30px; font-family: monospace"">minha</span>"," ","","exp-sent","minha","","",""
"","3132","html-keyboard-response","64","143760","0.0-3.0-1.39","<span style=""font-size:30px; font-family: monospace"">vó.</span>"," ","","comp","vó.","","",""
"","10495","html-keyboard-response","65","154521","0.0-3.0-2.39-0.39","<span style=""font-size:30px; font-family: monospace"">As cadeiras eram da avó?</span>","s","","comp","","As cadeiras eram da avó?","sim","false"
"","null","html-keyboard-response","66","156023","0.0-3.0-0.40-0.40","<span style= ""font-size:30px; font-family: monospace"">+</span>","null","fixation","","","","",""
"","797","html-keyboard-response","67","157072","0.0-3.0-1.40","<span style=""font-size:30px; font-family: monospace"">Este</span>"," ","","exp-sent","Este","","",""
"","612","html-keyboard-response","68","157936","0.0-3.0-1.41","<span style=""font-size:30px; font-family: monospace"">conto</span>"," ","","exp-sent","conto","","",""
"","572","html-keyboard-response","69","158760","0.0-3.0-1.42","<span style=""font-size:30px; font-family: monospace"">tem</span>"," ","","exp-sent","tem","","",""
"","549","html-keyboard-response","70","159560","0.0-3.0-1.43","<span style=""font-size:30px; font-family: monospace"">um</span>"," ","","exp-sent","um","","",""
"","388","html-keyboard-response","71","160200","0.0-3.0-1.44","<span style=""font-size:30px; font-family: monospace"">final</span>"," ","","exp-sent","final","","",""
"","428","html-keyboard-response","72","160880","0.0-3.0-1.45","<span style=""font-size:30px; font-family: monospace"">perfeito.</span>"," ","","exp-sent","perfeito.","","",""
"","null","html-keyboard-response","73","162134","0.0-3.0-0.46-0.46","<span style= ""font-size:30px; font-family: monospace"">+</span>","null","fixation","","","","",""
"","632394","html-keyboard-response","74","794780","0.0-3.0-1.46","<span style=""font-size:30px; font-family: monospace"">Ele</span>"," ","","exp-sent","Ele","","",""
"","844","html-keyboard-response","75","795876","0.0-3.0-1.47","<span style=""font-size:30px; font-family: monospace"">precisa</span>"," ","","exp-sent","precisa","","",""
"","492","html-keyboard-response","76","796620","0.0-3.0-1.48","<span style=""font-size:30px; font-family: monospace"">de</span>"," ","","exp-sent","de","","",""
"","420","html-keyboard-response","77","797292","0.0-3.0-1.49","<span style=""font-size:30px; font-family: monospace"">um</span>"," ","","exp-sent","um","","",""
"","1132","html-keyboard-response","78","798676","0.0-3.0-1.50","<span style=""font-size:30px; font-family: monospace"">protetor</span>"," ","","exp-sent","protetor","","",""
"","484","html-keyboard-response","79","799412","0.0-3.0-1.51","<span style=""font-size:30px; font-family: monospace"">de</span>"," ","","exp-sent","de","","",""
"","524","html-keyboard-response","80","800188","0.0-3.0-1.52","<span style=""font-size:30px; font-family: monospace"">ouvido.</span>"," ","","exp-sent","ouvido.","","",""
"","null","html-keyboard-response","81","801441","0.0-3.0-0.53-0.53","<span style= ""font-size:30px; font-family: monospace"">+</span>","null","fixation","","","","",""
"","638","html-keyboard-response","82","802332","0.0-3.0-1.53","<span style=""font-size:30px; font-family: monospace"">Os</span>"," ","","exp-sent","Os","","",""
"","596","html-keyboard-response","83","803180","0.0-3.0-1.54","<span style=""font-size:30px; font-family: monospace"">hábitos</span>"," ","","exp-sent","hábitos","","",""
"","524","html-keyboard-response","84","803956","0.0-3.0-1.55","<span style=""font-size:30px; font-family: monospace"">de</span>"," ","","exp-sent","de","","",""
"","420","html-keyboard-response","85","804628","0.0-3.0-1.56","<span style=""font-size:30px; font-family: monospace"">lugares</span>"," ","","exp-sent","lugares","","",""
"","508","html-keyboard-response","86","805388","0.0-3.0-1.57","<span style=""font-size:30px; font-family: monospace"">diferentes</span>"," ","","exp-sent","diferentes","","",""
"","621","html-keyboard-response","87","806260","0.0-3.0-1.58","<span style=""font-size:30px; font-family: monospace"">são</span>"," ","","exp-sent","são","","",""
"","588","html-keyboard-response","88","807100","0.0-3.0-1.59","<span style=""font-size:30px; font-family: monospace"">muito</span>"," ","","exp-sent","muito","","",""
"","18117","html-keyboard-response","89","825469","0.0-3.0-1.60","<span style=""font-size:30px; font-family: monospace"">lindos.</span>"," ","","exp-sent","lindos.","","",""
"","null","html-keyboard-response","90","826737","0.0-3.0-0.61-0.61","<span style= ""font-size:30px; font-family: monospace"">+</span>","null","fixation","","","","",""
"","335","html-keyboard-response","91","827325","0.0-3.0-1.61","<span style=""font-size:30px; font-family: monospace"">O</span>"," ","","exp-sent","O","","",""
"","948","html-keyboard-response","92","828525","0.0-3.0-1.62","<span style=""font-size:30px; font-family: monospace"">médico</span>"," ","","exp-sent","médico","","",""
"","1324","html-keyboard-response","93","830101","0.0-3.0-1.63","<span style=""font-size:30px; font-family: monospace"">corrigiu</span>"," ","","exp-sent","corrigiu","","",""
"","881","html-keyboard-response","94","831237","0.0-3.0-1.64","<span style=""font-size:30px; font-family: monospace"">a</span>"," ","","exp-sent","a","","",""
"","1090","html-keyboard-response","95","832581","0.0-3.0-1.65","<span style=""font-size:30px; font-family: monospace"">postura</span>"," ","","exp-sent","postura","","",""
"","18597","html-keyboard-response","96","851430","0.0-3.0-1.66","<span style=""font-size:30px; font-family: monospace"">das</span>"," ","","exp-sent","das","","",""
"","2532","html-keyboard-response","97","854213","0.0-3.0-1.67","<span style=""font-size:30px; font-family: monospace"">costas</span>"," ","","exp-sent","costas","","",""
"","828","html-keyboard-response","98","855293","0.0-3.0-1.68","<span style=""font-size:30px; font-family: monospace"">da</span>"," ","","exp-sent","da","","",""
"","956","html-keyboard-response","99","856501","0.0-3.0-1.69","<span style=""font-size:30px; font-family: monospace"">pessoa.</span>"," ","","exp-sent","pessoa.","","",""
"","null","html-keyboard-response","100","857754","0.0-3.0-0.70-0.70","<span style= ""font-size:30px; font-family: monospace"">+</span>","null","fixation","","","","",""
"","5527","html-keyboard-response","101","863534","0.0-3.0-1.70","<span style=""font-size:30px; font-family: monospace"">Aquele</span>"," ","","exp-sent","Aquele","","",""
"","869","html-keyboard-response","102","864654","0.0-3.0-1.71","<span style=""font-size:30px; font-family: monospace"">era</span>"," ","","exp-sent","era","","",""
"","381","html-keyboard-response","103","865286","0.0-3.0-1.72","<span style=""font-size:30px; font-family: monospace"">um</span>"," ","","exp-sent","um","","",""
"","388","html-keyboard-response","104","865926","0.0-3.0-1.73","<span style=""font-size:30px; font-family: monospace"">caso</span>"," ","","exp-sent","caso","","",""
"","325","html-keyboard-response","105","866502","0.0-3.0-1.74","<span style=""font-size:30px; font-family: monospace"">real</span>"," ","","exp-sent","real","","",""
"","164","html-keyboard-response","106","866918","0.0-3.0-1.75","<span style=""font-size:30px; font-family: monospace"">de</span>"," ","","exp-sent","de","","",""
"","116","html-keyboard-response","107","867286","0.0-3.0-1.76","<span style=""font-size:30px; font-family: monospace"">sequestro</span>"," ","","exp-sent","sequestro","","",""
"","132","html-keyboard-response","108","867670","0.0-3.0-1.77","<span style=""font-size:30px; font-family: monospace"">premeditado.</span>"," ","","comp","premeditado.","","",""
"","4228","html-keyboard-response","109","872150","0.0-3.0-2.77-0.77","<span style=""font-size:30px; font-family: monospace"">Aquele era um caso real de roubo?</span>","s","","comp","","Aquele era um caso real de roubo?","não","false"
"","null","html-keyboard-response","110","873652","0.0-3.0-0.78-0.78","<span style= ""font-size:30px; font-family: monospace"">+</span>","null","fixation","","","","",""
"","62","html-keyboard-response","111","873966","0.0-3.0-1.78","<span style=""font-size:30px; font-family: monospace"">Preciso</span>"," ","","exp-sent","Preciso","","",""
"","133","html-keyboard-response","112","874350","0.0-3.0-1.79","<span style=""font-size:30px; font-family: monospace"">de</span>"," ","","exp-sent","de","","",""
"","29","html-keyboard-response","113","874630","0.0-3.0-1.80","<span style=""font-size:30px; font-family: monospace"">um</span>"," ","","exp-sent","um","","",""
"","37","html-keyboard-response","114","874918","0.0-3.0-1.81","<span style=""font-size:30px; font-family: monospace"">relatório</span>"," ","","exp-sent","relatório","","",""
"","20","html-keyboard-response","115","875190","0.0-3.0-1.82","<span style=""font-size:30px; font-family: monospace"">oficial</span>"," ","","exp-sent","oficial","","",""
"","53","html-keyboard-response","116","875494","0.0-3.0-1.83","<span style=""font-size:30px; font-family: monospace"">para</span>"," ","","exp-sent","para","","",""
"","20","html-keyboard-response","117","875766","0.0-3.0-1.84","<span style=""font-size:30px; font-family: monospace"">amanhã.</span>"," ","","exp-sent","amanhã.","","",""
"","null","html-keyboard-response","118","877020","0.0-3.0-0.85-0.85","<span style= ""font-size:30px; font-family: monospace"">+</span>","null","fixation","","","","",""
"","302","html-keyboard-response","119","877574","0.0-3.0-1.85","<span style=""font-size:30px; font-family: monospace"">Ele</span>"," ","","exp-sent","Ele","","",""
"","53","html-keyboard-response","120","877878","0.0-3.0-1.86","<span style=""font-size:30px; font-family: monospace"">viu</span>"," ","","exp-sent","viu","","",""
"","52","html-keyboard-response","121","878182","0.0-3.0-1.87","<span style=""font-size:30px; font-family: monospace"">um</span>"," ","","exp-sent","um","","",""
"","52","html-keyboard-response","122","878486","0.0-3.0-1.88","<span style=""font-size:30px; font-family: monospace"">inseto</span>"," ","","exp-sent","inseto","","",""
"","37","html-keyboard-response","123","878774","0.0-3.0-1.89","<span style=""font-size:30px; font-family: monospace"">marrom</span>"," ","","exp-sent","marrom","","",""
"","36","html-keyboard-response","124","879062","0.0-3.0-1.90","<span style=""font-size:30px; font-family: monospace"">na</span>"," ","","exp-sent","na","","",""
"","44","html-keyboard-response","125","879358","0.0-3.0-1.91","<span style=""font-size:30px; font-family: monospace"">parede.</span>"," ","","exp-sent","parede.","","",""
"","null","html-keyboard-response","126","880623","0.0-3.0-0.92-0.92","<span style= ""font-size:30px; font-family: monospace"">+</span>","null","fixation","","","","",""
"","59","html-keyboard-response","127","880934","0.0-3.0-1.92","<span style=""font-size:30px; font-family: monospace"">O</span>"," ","","exp-sent","O","","",""
"","36","html-keyboard-response","128","881222","0.0-3.0-1.93","<span style=""font-size:30px; font-family: monospace"">avô</span>"," ","","exp-sent","avô","","",""
"","24","html-keyboard-response","129","881510","0.0-3.0-1.94","<span style=""font-size:30px; font-family: monospace"">fez</span>"," ","","exp-sent","fez","","",""
"","53","html-keyboard-response","130","881814","0.0-3.0-1.95","<span style=""font-size:30px; font-family: monospace"">uma</span>"," ","","exp-sent","uma","","",""
"","53","html-keyboard-response","131","882118","0.0-3.0-1.96","<span style=""font-size:30px; font-family: monospace"">lista</span>"," ","","exp-sent","lista","","",""
"","52","html-keyboard-response","132","882422","0.0-3.0-1.97","<span style=""font-size:30px; font-family: monospace"">de</span>"," ","","exp-sent","de","","",""
"","25","html-keyboard-response","133","882710","0.0-3.0-1.98","<span style=""font-size:30px; font-family: monospace"">compras</span>"," ","","exp-sent","compras","","",""
"","44","html-keyboard-response","134","883006","0.0-3.0-1.99","<span style=""font-size:30px; font-family: monospace"">do</span>"," ","","exp-sent","do","","",""
"","36","html-keyboard-response","135","883294","0.0-3.0-1.100","<span style=""font-size:30px; font-family: monospace"">mercado.</span>"," ","","exp-sent","mercado.","","",""
"","null","html-keyboard-response","136","884555","0.0-3.0-0.101-0.101","<span style= ""font-size:30px; font-family: monospace"">+</span>","null","fixation","","","","",""
"","591","html-keyboard-response","137","885398","0.0-3.0-1.101","<span style=""font-size:30px; font-family: monospace"">As</span>"," ","","exp-sent","As","","",""
"","85","html-keyboard-response","138","885734","0.0-3.0-1.102","<span style=""font-size:30px; font-family: monospace"">pessoas</span>"," ","","exp-sent","pessoas","","",""
"","52","html-keyboard-response","139","886038","0.0-3.0-1.103","<span style=""font-size:30px; font-family: monospace"">não</span>"," ","","exp-sent","não","","",""
"","44","html-keyboard-response","140","886334","0.0-3.0-1.104","<span style=""font-size:30px; font-family: monospace"">enviam</span>"," ","","exp-sent","enviam","","",""
"","1412","html-keyboard-response","141","887998","0.0-3.0-1.105","<span style=""font-size:30px; font-family: monospace"">telegrama</span>"," ","","exp-sent","telegrama","","",""
"","52","html-keyboard-response","142","888302","0.0-3.0-1.106","<span style=""font-size:30px; font-family: monospace"">nos</span>"," ","","exp-sent","nos","","",""
"","68","html-keyboard-response","143","888622","0.0-3.0-1.107","<span style=""font-size:30px; font-family: monospace"">dias</span>"," ","","exp-sent","dias","","",""
"","661","html-keyboard-response","144","889534","0.0-3.0-1.108","<span style=""font-size:30px; font-family: monospace"">de</span>"," ","","exp-sent","de","","",""
"","60","html-keyboard-response","145","889846","0.0-3.0-1.109","<span style=""font-size:30px; font-family: monospace"">hoje.</span>"," ","","exp-sent","hoje.","","",""
"","null","html-keyboard-response","146","891099","0.0-3.0-0.110-0.110","<span style= ""font-size:30px; font-family: monospace"">+</span>","null","fixation","","","","",""
"","2624","html-keyboard-response","147","893975","0.0-3.0-1.110","<span style=""font-size:30px; font-family: monospace"">Ele</span>"," ","","exp-sent","Ele","","",""
"","69","html-keyboard-response","148","894295","0.0-3.0-1.111","<span style=""font-size:30px; font-family: monospace"">não</span>"," ","","exp-sent","não","","",""
"","69","html-keyboard-response","149","894615","0.0-3.0-1.112","<span style=""font-size:30px; font-family: monospace"">gosta</span>"," ","","exp-sent","gosta","","",""
"","60","html-keyboard-response","150","894927","0.0-3.0-1.113","<span style=""font-size:30px; font-family: monospace"">de</span>"," ","","exp-sent","de","","",""
"","60","html-keyboard-response","151","895239","0.0-3.0-1.114","<span style=""font-size:30px; font-family: monospace"">tomate</span>"," ","","exp-sent","tomate","","",""
"","53","html-keyboard-response","152","895543","0.0-3.0-1.115","<span style=""font-size:30px; font-family: monospace"">misturado</span>"," ","","exp-sent","misturado","","",""
"","29","html-keyboard-response","153","895823","0.0-3.0-1.116","<span style=""font-size:30px; font-family: monospace"">na</span>"," ","","exp-sent","na","","",""
"","68","html-keyboard-response","154","896143","0.0-3.0-1.117","<span style=""font-size:30px; font-family: monospace"">comida.</span>"," ","","comp","comida.","","",""
"","4693","html-keyboard-response","155","901087","0.0-3.0-2.117-0.117","<span style=""font-size:30px; font-family: monospace"">Ele gosta de tomate na comida?</span>","s","","comp","","Ele gosta de tomate na comida?","não","false"
"","null","html-keyboard-response","156","902589","0.0-3.0-0.118-0.118","<span style= ""font-size:30px; font-family: monospace"">+</span>","null","fixation","","","","",""
"","126","html-keyboard-response","157","902967","0.0-3.0-1.118","<span style=""font-size:30px; font-family: monospace"">A</span>"," ","","exp-sent","A","","",""
"","77","html-keyboard-response","158","903295","0.0-3.0-1.119","<span style=""font-size:30px; font-family: monospace"">senhora</span>"," ","","exp-sent","senhora","","",""
"","61","html-keyboard-response","159","903607","0.0-3.0-1.120","<span style=""font-size:30px; font-family: monospace"">cumprimentou</span>"," ","","exp-sent","cumprimentou","","",""
"","60","html-keyboard-response","160","903919","0.0-3.0-1.121","<span style=""font-size:30px; font-family: monospace"">o</span>"," ","","exp-sent","o","","",""
"","53","html-keyboard-response","161","904223","0.0-3.0-1.122","<span style=""font-size:30px; font-family: monospace"">operador</span>"," ","","exp-sent","operador","","",""
"","205","html-keyboard-response","162","904679","0.0-3.0-1.123","<span style=""font-size:30px; font-family: monospace"">de</span>"," ","","exp-sent","de","","",""
"","36","html-keyboard-response","163","904967","0.0-3.0-1.124","<span style=""font-size:30px; font-family: monospace"">caixa.</span>"," ","","exp-sent","caixa.","","",""
"","null","html-keyboard-response","164","906220","0.0-3.0-0.125-0.125","<span style= ""font-size:30px; font-family: monospace"">+</span>","null","fixation","","","","",""
"","230","html-keyboard-response","165","906703","0.0-3.0-1.125","<span style=""font-size:30px; font-family: monospace"">A</span>"," ","","exp-sent","A","","",""
"","77","html-keyboard-response","166","907031","0.0-3.0-1.126","<span style=""font-size:30px; font-family: monospace"">gente</span>"," ","","exp-sent","gente","","",""
"","76","html-keyboard-response","167","907359","0.0-3.0-1.127","<span style=""font-size:30px; font-family: monospace"">viu</span>"," ","","exp-sent","viu","","",""
"","365","html-keyboard-response","168","907975","0.0-3.0-1.128","<span style=""font-size:30px; font-family: monospace"">o</span>"," ","","exp-sent","o","","",""
"","85","html-keyboard-response","169","908311","0.0-3.0-1.129","<span style=""font-size:30px; font-family: monospace"">eclipse</span>"," ","","exp-sent","eclipse","","",""
"","84","html-keyboard-response","170","908647","0.0-3.0-1.130","<span style=""font-size:30px; font-family: monospace"">lunar</span>"," ","","exp-sent","lunar","","",""
"","108","html-keyboard-response","171","909007","0.0-3.0-1.131","<span style=""font-size:30px; font-family: monospace"">durante</span>"," ","","exp-sent","durante","","",""
"","149","html-keyboard-response","172","909407","0.0-3.0-1.132","<span style=""font-size:30px; font-family: monospace"">o</span>"," ","","exp-sent","o","","",""
"","93","html-keyboard-response","173","909751","0.0-3.0-1.133","<span style=""font-size:30px; font-family: monospace"">dia.</span>"," ","","exp-sent","dia.","","",""
"","null","html-keyboard-response","174","911004","0.0-3.0-0.134-0.134","<span style= ""font-size:30px; font-family: monospace"">+</span>","null","fixation","","","","",""
"","87","html-keyboard-response","175","911343","0.0-3.0-1.134","<span style=""font-size:30px; font-family: monospace"">A</span>"," ","","exp-sent","A","","",""
"","101","html-keyboard-response","176","911695","0.0-3.0-1.135","<span style=""font-size:30px; font-family: monospace"">mordida</span>"," ","","exp-sent","mordida","","",""
"","92","html-keyboard-response","177","912039","0.0-3.0-1.136","<span style=""font-size:30px; font-family: monospace"">do</span>"," ","","exp-sent","do","","",""
"","68","html-keyboard-response","178","912359","0.0-3.0-1.137","<span style=""font-size:30px; font-family: monospace"">cachorro</span>"," ","","exp-sent","cachorro","","",""
"","52","html-keyboard-response","179","912663","0.0-3.0-1.138","<span style=""font-size:30px; font-family: monospace"">voraz</span>"," ","","exp-sent","voraz","","",""
"","52","html-keyboard-response","180","912967","0.0-3.0-1.139","<span style=""font-size:30px; font-family: monospace"">causou</span>"," ","","exp-sent","causou","","",""
"","101","html-keyboard-response","181","913319","0.0-3.0-1.140","<span style=""font-size:30px; font-family: monospace"">uma</span>"," ","","exp-sent","uma","","",""
"","37","html-keyboard-response","182","913607","0.0-3.0-1.141","<span style=""font-size:30px; font-family: monospace"">cicatriz.</span>"," ","","exp-sent","cicatriz.","","",""
"","null","html-keyboard-response","183","914860","0.0-3.0-0.142-0.142","<span style= ""font-size:30px; font-family: monospace"">+</span>","null","fixation","","","","",""
"","112","html-keyboard-response","184","915223","0.0-3.0-1.142","<span style=""font-size:30px; font-family: monospace"">Elas</span>"," ","","exp-sent","Elas","","",""
"","69","html-keyboard-response","185","915543","0.0-3.0-1.143","<span style=""font-size:30px; font-family: monospace"">não</span>"," ","","exp-sent","não","","",""
"","69","html-keyboard-response","186","915863","0.0-3.0-1.144","<span style=""font-size:30px; font-family: monospace"">viram</span>"," ","","exp-sent","viram","","",""
"","45","html-keyboard-response","187","916159","0.0-3.0-1.145","<span style=""font-size:30px; font-family: monospace"">nenhuma</span>"," ","","exp-sent","nenhuma","","",""
"","52","html-keyboard-response","188","916463","0.0-3.0-1.146","<span style=""font-size:30px; font-family: monospace"">diferença</span>"," ","","exp-sent","diferença","","",""
"","44","html-keyboard-response","189","916759","0.0-3.0-1.147","<span style=""font-size:30px; font-family: monospace"">entre</span>"," ","","exp-sent","entre","","",""
"","36","html-keyboard-response","190","917047","0.0-3.0-1.148","<span style=""font-size:30px; font-family: monospace"">os</span>"," ","","exp-sent","os","","",""
"","44","html-keyboard-response","191","917343","0.0-3.0-1.149","<span style=""font-size:30px; font-family: monospace"">textos.</span>"," ","","exp-sent","textos.","","",""
"","null","html-keyboard-response","192","918596","0.0-3.0-0.150-0.150","<span style= ""font-size:30px; font-family: monospace"">+</span>","null","fixation","","","","",""
"","239","html-keyboard-response","193","919087","0.0-3.0-1.150","<span style=""font-size:30px; font-family: monospace"">Amanhã</span>"," ","","exp-sent","Amanhã","","",""
"","77","html-keyboard-response","194","919415","0.0-3.0-1.151","<span style=""font-size:30px; font-family: monospace"">vai</span>"," ","","exp-sent","vai","","",""
"","44","html-keyboard-response","195","919711","0.0-3.0-1.152","<span style=""font-size:30px; font-family: monospace"">ter</span>"," ","","exp-sent","ter","","",""
"","60","html-keyboard-response","196","920023","0.0-3.0-1.153","<span style=""font-size:30px; font-family: monospace"">um</span>"," ","","exp-sent","um","","",""
"","28","html-keyboard-response","197","920303","0.0-3.0-1.154","<span style=""font-size:30px; font-family: monospace"">bazar</span>"," ","","exp-sent","bazar","","",""
"","28","html-keyboard-response","198","920583","0.0-3.0-1.155","<span style=""font-size:30px; font-family: monospace"">no</span>"," ","","exp-sent","no","","",""
"","28","html-keyboard-response","199","920863","0.0-3.0-1.156","<span style=""font-size:30px; font-family: monospace"">bairro.</span>"," ","","comp","bairro.","","",""
"","7477","html-keyboard-response","200","928592","0.0-3.0-2.156-0.156","<span style=""font-size:30px; font-family: monospace"">Amanhã vai acontecer um bazar no bairro?</span>","s","","comp","","Amanhã vai acontecer um bazar no bairro?","sim","false"
"","null","html-keyboard-response","201","930094","0.0-3.0-0.157-0.157","<span style= ""font-size:30px; font-family: monospace"">+</span>","null","fixation","","","","",""
"","84233665","html-keyboard-response","202","85167915","0.0-3.0-1.157","<span style=""font-size:30px; font-family: monospace"">A</span>"," ","","exp-sent","A","","",""
"","5300","html-keyboard-response","203","85173482","0.0-3.0-1.158","<span style=""font-size:30px; font-family: monospace"">motorista</span>"," ","","exp-sent","motorista","","",""
"","518","html-keyboard-response","204","85174266","0.0-3.0-1.159","<span style=""font-size:30px; font-family: monospace"">fez</span>"," ","","exp-sent","fez","","",""
"","388","html-keyboard-response","205","85174922","0.0-3.0-1.160","<span style=""font-size:30px; font-family: monospace"">o</span>"," ","","exp-sent","o","","",""
"","324","html-keyboard-response","206","85175514","0.0-3.0-1.161","<span style=""font-size:30px; font-family: monospace"">retorno</span>"," ","","exp-sent","retorno","","",""
"","354","html-keyboard-response","207","85176130","0.0-3.0-1.162","<span style=""font-size:30px; font-family: monospace"">com</span>"," ","","exp-sent","com","","",""
"","205","html-keyboard-response","208","85176602","0.0-3.0-1.163","<span style=""font-size:30px; font-family: monospace"">cuidado.</span>"," ","","exp-sent","cuidado.","","",""
"","null","html-keyboard-response","209","85177861","0.0-3.0-0.164-0.164","<span style= ""font-size:30px; font-family: monospace"">+</span>","null","fixation","","","","",""
"","11518","html-keyboard-response","210","85189635","0.0-3.0-1.164","<span style=""font-size:30px; font-family: monospace"">Contos</span>"," ","","exp-sent","Contos","","",""
"","218","html-keyboard-response","211","85190115","0.0-3.0-1.165","<span style=""font-size:30px; font-family: monospace"">de</span>"," ","","exp-sent","de","","",""
"","308","html-keyboard-response","212","85190683","0.0-3.0-1.166","<span style=""font-size:30px; font-family: monospace"">ação</span>"," ","","exp-sent","ação","","",""
"","862","html-keyboard-response","213","85191811","0.0-3.0-1.167","<span style=""font-size:30px; font-family: monospace"">têm</span>"," ","","exp-sent","têm","","",""
"","752","html-keyboard-response","214","85192819","0.0-3.0-1.168","<span style=""font-size:30px; font-family: monospace"">chantagem</span>"," ","","exp-sent","chantagem","","",""
"","369","html-keyboard-response","215","85193443","0.0-3.0-1.169","<span style=""font-size:30px; font-family: monospace"">e</span>"," ","","exp-sent","e","","",""
"","570","html-keyboard-response","216","85194267","0.0-3.0-1.170","<span style=""font-size:30px; font-family: monospace"">muita</span>"," ","","exp-sent","muita","","",""
"","340","html-keyboard-response","217","85194867","0.0-3.0-1.171","<span style=""font-size:30px; font-family: monospace"">luta.</span>"," ","","exp-sent","luta.","","",""
"","null","html-keyboard-response","218","85196139","0.0-3.0-0.172-0.172","<span style= ""font-size:30px; font-family: monospace"">+</span>","null","fixation","","","","",""
"","9113","html-keyboard-response","219","85205507","0.0-3.0-1.172","<span style=""font-size:30px; font-family: monospace"">A</span>"," ","","exp-sent","A","","",""
"","324","html-keyboard-response","220","85206083","0.0-3.0-1.173","<span style=""font-size:30px; font-family: monospace"">bisavó</span>"," ","","exp-sent","bisavó","","",""
"","2437","html-keyboard-response","221","85208771","0.0-3.0-1.174","<span style=""font-size:30px; font-family: monospace"">recebeu</span>"," ","","exp-sent","recebeu","","",""
"","181","html-keyboard-response","222","85209204","0.0-3.0-1.175","<span style=""font-size:30px; font-family: monospace"">um</span>"," ","","exp-sent","um","","",""
"","140","html-keyboard-response","223","85209595","0.0-3.0-1.176","<span style=""font-size:30px; font-family: monospace"">benefício</span>"," ","","exp-sent","benefício","","",""
"","148","html-keyboard-response","224","85209995","0.0-3.0-1.177","<span style=""font-size:30px; font-family: monospace"">temporário</span>"," ","","exp-sent","temporário","","",""
"","108","html-keyboard-response","225","85210355","0.0-3.0-1.178","<span style=""font-size:30px; font-family: monospace"">do</span>"," ","","exp-sent","do","","",""
"","149","html-keyboard-response","226","85210755","0.0-3.0-1.179","<span style=""font-size:30px; font-family: monospace"">governo.</span>"," ","","exp-sent","governo.","","",""
"","null","html-keyboard-response","227","85212009","0.0-3.0-0.180-0.180","<span style= ""font-size:30px; font-family: monospace"">+</span>","null","fixation","","","","",""
"","376","html-keyboard-response","228","85212636","0.0-3.0-1.180","<span style=""font-size:30px; font-family: monospace"">As</span>"," ","","exp-sent","As","","",""
"","786","html-keyboard-response","229","85213683","0.0-3.0-1.181","<span style=""font-size:30px; font-family: monospace"">crianças</span>"," ","","exp-sent","crianças","","",""
"","540","html-keyboard-response","230","85214475","0.0-3.0-1.182","<span style=""font-size:30px; font-family: monospace"">brincaram</span>"," ","","exp-sent","brincaram","","",""
"","948","html-keyboard-response","231","85215676","0.0-3.0-1.183","<span style=""font-size:30px; font-family: monospace"">no</span>"," ","","exp-sent","no","","",""
"","708","html-keyboard-response","232","85216635","0.0-3.0-1.184","<span style=""font-size:30px; font-family: monospace"">balanço</span>"," ","","exp-sent","balanço","","",""
"","1492","html-keyboard-response","233","85218379","0.0-3.0-1.185","<span style=""font-size:30px; font-family: monospace"">a</span>"," ","","exp-sent","a","","",""
"","1476","html-keyboard-response","234","85220108","0.0-3.0-1.186","<span style=""font-size:30px; font-family: monospace"">tarde</span>"," ","","exp-sent","tarde","","",""
"","396","html-keyboard-response","235","85220756","0.0-3.0-1.187","<span style=""font-size:30px; font-family: monospace"">toda.</span>"," ","","exp-sent","toda.","","",""
"","null","html-keyboard-response","236","85222009","0.0-3.0-0.188-0.188","<span style= ""font-size:30px; font-family: monospace"">+</span>","null","fixation","","","","",""
"","487","html-keyboard-response","237","85222748","0.0-3.0-1.188","<span style=""font-size:30px; font-family: monospace"">Ela</span>"," ","","exp-sent","Ela","","",""
"","405","html-keyboard-response","238","85223404","0.0-3.0-1.189","<span style=""font-size:30px; font-family: monospace"">gosta</span>"," ","","exp-sent","gosta","","",""
"","376","html-keyboard-response","239","85224036","0.0-3.0-1.190","<span style=""font-size:30px; font-family: monospace"">de</span>"," ","","exp-sent","de","","",""
"","709","html-keyboard-response","240","85224996","0.0-3.0-1.191","<span style=""font-size:30px; font-family: monospace"">comida</span>"," ","","exp-sent","comida","","",""
"","1244","html-keyboard-response","241","85226493","0.0-3.0-1.192","<span style=""font-size:30px; font-family: monospace"">natural</span>"," ","","exp-sent","natural","","",""
"","11149","html-keyboard-response","242","85237894","0.0-3.0-1.193","<span style=""font-size:30px; font-family: monospace"">no</span>"," ","","exp-sent","no","","",""
"","1107","html-keyboard-response","243","85239253","0.0-3.0-1.194","<span style=""font-size:30px; font-family: monospace"">almoço.</span>"," ","","comp","almoço.","","",""
"","9477","html-keyboard-response","244","85248982","0.0-3.0-2.194-0.194","<span style=""font-size:30px; font-family: monospace"">Ela gosta de comida natural no almoço?</span>","s","","comp","","Ela gosta de comida natural no almoço?","sim","false"
"","null","html-keyboard-response","245","85250486","0.0-3.0-0.195-0.195","<span style= ""font-size:30px; font-family: monospace"">+</span>","null","fixation","","","","",""
"","9701","html-keyboard-response","246","85260438","0.0-3.0-1.195","<span style=""font-size:30px; font-family: monospace"">O</span>"," ","","exp-sent","O","","",""
"","2676","html-keyboard-response","247","85263366","0.0-3.0-1.196","<span style=""font-size:30px; font-family: monospace"">moço</span>"," ","","exp-sent","moço","","",""
"","740","html-keyboard-response","248","85264358","0.0-3.0-1.197","<span style=""font-size:30px; font-family: monospace"">usou</span>"," ","","exp-sent","usou","","",""
"","708","html-keyboard-response","249","85265318","0.0-3.0-1.198","<span style=""font-size:30px; font-family: monospace"">várias</span>"," ","","exp-sent","várias","","",""
"","1004","html-keyboard-response","250","85266574","0.0-3.0-1.199","<span style=""font-size:30px; font-family: monospace"">velas</span>"," ","","exp-sent","velas","","",""
"","668","html-keyboard-response","251","85267494","0.0-3.0-1.200","<span style=""font-size:30px; font-family: monospace"">no</span>"," ","","exp-sent","no","","",""
"","812","html-keyboard-response","252","85268558","0.0-3.0-1.201","<span style=""font-size:30px; font-family: monospace"">enfeite</span>"," ","","exp-sent","enfeite","","",""
"","596","html-keyboard-response","253","85269406","0.0-3.0-1.202","<span style=""font-size:30px; font-family: monospace"">de</span>"," ","","exp-sent","de","","",""
"","484","html-keyboard-response","254","85270142","0.0-3.0-1.203","<span style=""font-size:30px; font-family: monospace"">mesa.</span>"," ","","exp-sent","mesa.","","",""
"","null","html-keyboard-response","255","85271396","0.0-3.0-0.204-0.204","<span style= ""font-size:30px; font-family: monospace"">+</span>","null","fixation","","","","",""
"","50857","html-keyboard-response","256","85322505","0.0-3.0-1.204","<span style=""font-size:30px; font-family: monospace"">Gostamos</span>"," ","","exp-sent","Gostamos","","",""
"","571","html-keyboard-response","257","85323328","0.0-3.0-1.205","<span style=""font-size:30px; font-family: monospace"">de</span>"," ","","exp-sent","de","","",""
"","1123","html-keyboard-response","258","85324703","0.0-3.0-1.206","<span style=""font-size:30px; font-family: monospace"">suco</span>"," ","","exp-sent","suco","","",""
"","733","html-keyboard-response","259","85325688","0.0-3.0-1.207","<span style=""font-size:30px; font-family: monospace"">em</span>"," ","","exp-sent","em","","",""
"","532","html-keyboard-response","260","85326472","0.0-3.0-1.208","<span style=""font-size:30px; font-family: monospace"">garrafa</span>"," ","","exp-sent","garrafa","","",""
"","460","html-keyboard-response","261","85327184","0.0-3.0-1.209","<span style=""font-size:30px; font-family: monospace"">de</span>"," ","","exp-sent","de","","",""
"","436","html-keyboard-response","262","85327872","0.0-3.0-1.210","<span style=""font-size:30px; font-family: monospace"">tamanho</span>"," ","","exp-sent","tamanho","","",""
"","348","html-keyboard-response","263","85328472","0.0-3.0-1.211","<span style=""font-size:30px; font-family: monospace"">pequeno.</span>"," ","","exp-sent","pequeno.","","",""
"","null","html-keyboard-response","264","85329725","0.0-3.0-0.212-0.212","<span style= ""font-size:30px; font-family: monospace"">+</span>","null","fixation","","","","",""
"","6760","html-keyboard-response","265","85336736","0.0-3.0-1.212","<span style=""font-size:30px; font-family: monospace"">Sua</span>"," ","","exp-sent","Sua","","",""
"","1268","html-keyboard-response","266","85338256","0.0-3.0-1.213","<span style=""font-size:30px; font-family: monospace"">filha</span>"," ","","exp-sent","filha","","",""
"","571","html-keyboard-response","267","85339080","0.0-3.0-1.214","<span style=""font-size:30px; font-family: monospace"">é</span>"," ","","exp-sent","é","","",""
"","1076","html-keyboard-response","268","85340408","0.0-3.0-1.215","<span style=""font-size:30px; font-family: monospace"">muito</span>"," ","","exp-sent","muito","","",""
"","1347","html-keyboard-response","269","85342008","0.0-3.0-1.216","<span style=""font-size:30px; font-family: monospace"">capaz</span>"," ","","exp-sent","capaz","","",""
"","11589","html-keyboard-response","270","85353849","0.0-3.0-1.217","<span style=""font-size:30px; font-family: monospace"">e</span>"," ","","exp-sent","e","","",""
"","491","html-keyboard-response","271","85354593","0.0-3.0-1.218","<span style=""font-size:30px; font-family: monospace"">esforçada.</span>"," ","","exp-sent","esforçada.","","",""
"","null","html-keyboard-response","272","85355845","0.0-3.0-0.219-0.219","<span style= ""font-size:30px; font-family: monospace"">+</span>","null","fixation","","","","",""
"","19633","html-keyboard-response","273","85375730","0.0-3.0-1.219","<span style=""font-size:30px; font-family: monospace"">A</span>"," ","","exp-sent","A","","",""
"","9836","html-keyboard-response","274","85385818","0.0-3.0-1.220","<span style=""font-size:30px; font-family: monospace"">batida</span>"," ","","exp-sent","batida","","",""
"","15476","html-keyboard-response","275","85401547","0.0-3.0-1.221","<span style=""font-size:30px; font-family: monospace"">causou</span>"," ","","exp-sent","causou","","",""
"","15605","html-keyboard-response","276","85417403","0.0-3.0-1.222","<span style=""font-size:30px; font-family: monospace"">muita</span>"," ","","exp-sent","muita","","",""
"","8612","html-keyboard-response","277","85426267","0.0-3.0-1.223","<span style=""font-size:30px; font-family: monospace"">confusão</span>"," ","","exp-sent","confusão","","",""
"","5020","html-keyboard-response","278","85431547","0.0-3.0-1.224","<span style=""font-size:30px; font-family: monospace"">na</span>"," ","","exp-sent","na","","",""
"","7734","html-keyboard-response","279","85439547","0.0-3.0-1.225","<span style=""font-size:30px; font-family: monospace"">estrada.</span>"," ","","exp-sent","estrada.","","",""
"","null","html-keyboard-response","280","85440819","0.0-3.0-0.226-0.226","<span style= ""font-size:30px; font-family: monospace"">+</span>","null","fixation","","","","",""
"","11525","html-keyboard-response","281","85452596","0.0-3.0-1.226","<span style=""font-size:30px; font-family: monospace"">Eu</span>"," ","","exp-sent","Eu","","",""
"","692","html-keyboard-response","282","85453539","0.0-3.0-1.227","<span style=""font-size:30px; font-family: monospace"">cozinhei</span>"," ","","exp-sent","cozinhei","","",""
"","828","html-keyboard-response","283","85454619","0.0-3.0-1.228","<span style=""font-size:30px; font-family: monospace"">um</span>"," ","","exp-sent","um","","",""
"","812","html-keyboard-response","284","85455683","0.0-3.0-1.229","<span style=""font-size:30px; font-family: monospace"">almoço</span>"," ","","exp-sent","almoço","","",""
"","1620","html-keyboard-response","285","85457556","0.0-3.0-1.230","<span style=""font-size:30px; font-family: monospace"">nutritivo</span>"," ","","exp-sent","nutritivo","","",""
"","518","html-keyboard-response","286","85458332","0.0-3.0-1.231","<span style=""font-size:30px; font-family: monospace"">para</span>"," ","","exp-sent","para","","",""
"","315","html-keyboard-response","287","85458900","0.0-3.0-1.232","<span style=""font-size:30px; font-family: monospace"">hoje.</span>"," ","","comp","hoje.","","",""
"","6301","html-keyboard-response","288","85465452","0.0-3.0-2.232-0.232","<span style=""font-size:30px; font-family: monospace"">O almoço era nutritivo?</span>","s","","comp","","O almoço era nutritivo?","sim","false"
"","null","html-keyboard-response","289","85466955","0.0-3.0-0.233-0.233","<span style= ""font-size:30px; font-family: monospace"">+</span>","null","fixation","","","","",""
"","21","html-keyboard-response","290","85467228","0.0-3.0-1.233","<span style=""font-size:30px; font-family: monospace"">No</span>"," ","","exp-sent","No","","",""
"","253","html-keyboard-response","291","85467732","0.0-3.0-1.234","<span style=""font-size:30px; font-family: monospace"">passado</span>"," ","","exp-sent","passado","","",""
"","212","html-keyboard-response","292","85468196","0.0-3.0-1.235","<span style=""font-size:30px; font-family: monospace"">houve</span>"," ","","exp-sent","houve","","",""
"","68","html-keyboard-response","293","85468516","0.0-3.0-1.236","<span style=""font-size:30px; font-family: monospace"">uma</span>"," ","","exp-sent","uma","","",""
"","180","html-keyboard-response","294","85468948","0.0-3.0-1.237","<span style=""font-size:30px; font-family: monospace"">rebelião</span>"," ","","exp-sent","rebelião","","",""
"","43","html-keyboard-response","295","85469244","0.0-3.0-1.238","<span style=""font-size:30px; font-family: monospace"">nesta</span>"," ","","exp-sent","nesta","","",""
"","108","html-keyboard-response","296","85469604","0.0-3.0-1.239","<span style=""font-size:30px; font-family: monospace"">cidade.</span>"," ","","exp-sent","cidade.","","",""
"","null","html-keyboard-response","297","85470857","0.0-3.0-0.240-0.240","<span style= ""font-size:30px; font-family: monospace"">+</span>","null","fixation","","","","",""
"","303","html-keyboard-response","298","85471412","0.0-3.0-1.240","<span style=""font-size:30px; font-family: monospace"">Ele</span>"," ","","exp-sent","Ele","","",""
"","36","html-keyboard-response","299","85471700","0.0-3.0-1.241","<span style=""font-size:30px; font-family: monospace"">fundou</span>"," ","","exp-sent","fundou","","",""
"","20","html-keyboard-response","300","85471972","0.0-3.0-1.242","<span style=""font-size:30px; font-family: monospace"">uma</span>"," ","","exp-sent","uma","","",""
"","44","html-keyboard-response","301","85472268","0.0-3.0-1.243","<span style=""font-size:30px; font-family: monospace"">empresa</span>"," ","","exp-sent","empresa","","",""
"","52","html-keyboard-response","302","85472572","0.0-3.0-1.244","<span style=""font-size:30px; font-family: monospace"">privada</span>"," ","","exp-sent","privada","","",""
"","60","html-keyboard-response","303","85472884","0.0-3.0-1.245","<span style=""font-size:30px; font-family: monospace"">sem</span>"," ","","exp-sent","sem","","",""
"","36","html-keyboard-response","304","85473172","0.0-3.0-1.246","<span style=""font-size:30px; font-family: monospace"">ajuda.</span>"," ","","exp-sent","ajuda.","","",""
"","null","html-keyboard-response","305","85474425","0.0-3.0-0.247-0.247","<span style= ""font-size:30px; font-family: monospace"">+</span>","null","fixation","","","","",""
"","328","html-keyboard-response","306","85475004","0.0-3.0-1.247","<span style=""font-size:30px; font-family: monospace"">As</span>"," ","","exp-sent","As","","",""
"","52","html-keyboard-response","307","85475308","0.0-3.0-1.248","<span style=""font-size:30px; font-family: monospace"">meninas</span>"," ","","exp-sent","meninas","","",""
"","28","html-keyboard-response","308","85475588","0.0-3.0-1.249","<span style=""font-size:30px; font-family: monospace"">encontraram</span>"," ","","exp-sent","encontraram","","",""
"","60","html-keyboard-response","309","85475900","0.0-3.0-1.250","<span style=""font-size:30px; font-family: monospace"">um</span>"," ","","exp-sent","um","","",""
"","44","html-keyboard-response","310","85476196","0.0-3.0-1.251","<span style=""font-size:30px; font-family: monospace"">rato</span>"," ","","exp-sent","rato","","",""
"","12","html-keyboard-response","311","85476460","0.0-3.0-1.252","<span style=""font-size:30px; font-family: monospace"">dentro</span>"," ","","exp-sent","dentro","","",""
"","12","html-keyboard-response","312","85476724","0.0-3.0-1.253","<span style=""font-size:30px; font-family: monospace"">de</span>"," ","","exp-sent","de","","",""
"","20","html-keyboard-response","313","85476996","0.0-3.0-1.254","<span style=""font-size:30px; font-family: monospace"">casa.</span>"," ","","exp-sent","casa.","","",""
"","null","html-keyboard-response","314","85478250","0.0-3.0-0.255-0.255","<span style= ""font-size:30px; font-family: monospace"">+</span>","null","fixation","","","","",""
"","927","html-keyboard-response","315","85479428","0.0-3.0-1.255","<span style=""font-size:30px; font-family: monospace"">O</span>"," ","","exp-sent","O","","",""
"","53","html-keyboard-response","316","85479733","0.0-3.0-1.256","<span style=""font-size:30px; font-family: monospace"">texto</span>"," ","","exp-sent","texto","","",""
"","176","html-keyboard-response","317","85480164","0.0-3.0-1.257","<span style=""font-size:30px; font-family: monospace"">tinha</span>"," ","","exp-sent","tinha","","",""
"","20","html-keyboard-response","318","85480436","0.0-3.0-1.258","<span style=""font-size:30px; font-family: monospace"">ideias</span>"," ","","exp-sent","ideias","","",""
"","36","html-keyboard-response","319","85480725","0.0-3.0-1.259","<span style=""font-size:30px; font-family: monospace"">vagas</span>"," ","","exp-sent","vagas","","",""
"","403","html-keyboard-response","320","85481380","0.0-3.0-1.260","<span style=""font-size:30px; font-family: monospace"">e</span>"," ","","exp-sent","e","","",""
"","1556","html-keyboard-response","321","85483188","0.0-3.0-1.261","<span style=""font-size:30px; font-family: monospace"">confusas.</span>"," ","","exp-sent","confusas.","","",""
"","null","html-keyboard-response","322","85484441","0.0-3.0-0.262-0.262","<span style= ""font-size:30px; font-family: monospace"">+</span>","null","fixation","","","","",""
"","415","html-keyboard-response","323","85485108","0.0-3.0-1.262","<span style=""font-size:30px; font-family: monospace"">As</span>"," ","","exp-sent","As","","",""
"","77","html-keyboard-response","324","85485437","0.0-3.0-1.263","<span style=""font-size:30px; font-family: monospace"">crianças</span>"," ","","exp-sent","crianças","","",""
"","444","html-keyboard-response","325","85486133","0.0-3.0-1.264","<span style=""font-size:30px; font-family: monospace"">viram</span>"," ","","exp-sent","viram","","",""
"","76","html-keyboard-response","326","85486460","0.0-3.0-1.265","<span style=""font-size:30px; font-family: monospace"">a</span>"," ","","exp-sent","a","","",""
"","173","html-keyboard-response","327","85486885","0.0-3.0-1.266","<span style=""font-size:30px; font-family: monospace"">acrobata</span>"," ","","exp-sent","acrobata","","",""
"","28","html-keyboard-response","328","85487164","0.0-3.0-1.267","<span style=""font-size:30px; font-family: monospace"">talentosa</span>"," ","","exp-sent","talentosa","","",""
"","28","html-keyboard-response","329","85487444","0.0-3.0-1.268","<span style=""font-size:30px; font-family: monospace"">no</span>"," ","","exp-sent","no","","",""
"","36","html-keyboard-response","330","85487732","0.0-3.0-1.269","<span style=""font-size:30px; font-family: monospace"">circo.</span>"," ","","comp","circo.","","",""
"","11805","html-keyboard-response","331","85499789","0.0-3.0-2.269-0.269","<span style=""font-size:30px; font-family: monospace"">As crianças viram o palhaço no circo?</span>","s","","comp","","As crianças viram o palhaço no circo?","não","false"
"","null","html-keyboard-response","332","85501292","0.0-3.0-0.270-0.270","<span style= ""font-size:30px; font-family: monospace"">+</span>","null","fixation","","","","",""
"","19174","html-keyboard-response","333","85520718","0.0-3.0-1.270","<span style=""font-size:30px; font-family: monospace"">Ganhamos</span>"," ","","exp-sent","Ganhamos","","",""
"","339","html-keyboard-response","334","85521310","0.0-3.0-1.271","<span style=""font-size:30px; font-family: monospace"">passagem</span>"," ","","exp-sent","passagem","","",""
"","180","html-keyboard-response","335","85521741","0.0-3.0-1.272","<span style=""font-size:30px; font-family: monospace"">para</span>"," ","","exp-sent","para","","",""
"","132","html-keyboard-response","336","85522126","0.0-3.0-1.273","<span style=""font-size:30px; font-family: monospace"">uma</span>"," ","","exp-sent","uma","","",""
"","453","html-keyboard-response","337","85522830","0.0-3.0-1.274","<span style=""font-size:30px; font-family: monospace"">viagem</span>"," ","","exp-sent","viagem","","",""
"","252","html-keyboard-response","338","85523334","0.0-3.0-1.275","<span style=""font-size:30px; font-family: monospace"">de</span>"," ","","exp-sent","de","","",""
"","277","html-keyboard-response","339","85523862","0.0-3.0-1.276","<span style=""font-size:30px; font-family: monospace"">férias.</span>"," ","","exp-sent","férias.","","",""
"","null","html-keyboard-response","340","85525115","0.0-3.0-0.277-0.277","<span style= ""font-size:30px; font-family: monospace"">+</span>","null","fixation","","","","",""
"","417","html-keyboard-response","341","85525798","0.0-3.0-1.277","<span style=""font-size:30px; font-family: monospace"">Caiu</span>"," ","","exp-sent","Caiu","","",""
"","772","html-keyboard-response","342","85526822","0.0-3.0-1.278","<span style=""font-size:30px; font-family: monospace"">algo</span>"," ","","exp-sent","algo","","",""
"","468","html-keyboard-response","343","85527542","0.0-3.0-1.279","<span style=""font-size:30px; font-family: monospace"">no</span>"," ","","exp-sent","no","","",""
"","476","html-keyboard-response","344","85528270","0.0-3.0-1.280","<span style=""font-size:30px; font-family: monospace"">meu</span>"," ","","exp-sent","meu","","",""
"","342","html-keyboard-response","345","85528863","0.0-3.0-1.281","<span style=""font-size:30px; font-family: monospace"">olho</span>"," ","","exp-sent","olho","","",""
"","634","html-keyboard-response","346","85529750","0.0-3.0-1.282","<span style=""font-size:30px; font-family: monospace"">ontem</span>"," ","","exp-sent","ontem","","",""
"","413","html-keyboard-response","347","85530414","0.0-3.0-1.283","<span style=""font-size:30px; font-family: monospace"">de</span>"," ","","exp-sent","de","","",""
"","629","html-keyboard-response","348","85531294","0.0-3.0-1.284","<span style=""font-size:30px; font-family: monospace"">tarde.</span>"," ","","exp-sent","tarde.","","",""
"","null","html-keyboard-response","349","85532547","0.0-3.0-0.285-0.285","<span style= ""font-size:30px; font-family: monospace"">+</span>","null","fixation","","","","",""
"","6478","html-keyboard-response","350","85539278","0.0-3.0-1.285","<span style=""font-size:30px; font-family: monospace"">Não</span>"," ","","exp-sent","Não","","",""
"","68","html-keyboard-response","351","85539598","0.0-3.0-1.286","<span style=""font-size:30px; font-family: monospace"">havia</span>"," ","","exp-sent","havia","","",""
"","31157","html-keyboard-response","352","85571008","0.0-3.0-1.287","<span style=""font-size:30px; font-family: monospace"">mais</span>"," ","","exp-sent","mais","","",""
"","477","html-keyboard-response","353","85571751","0.0-3.0-1.288","<span style=""font-size:30px; font-family: monospace"">nenhum</span>"," ","","exp-sent","nenhum","","",""
"","2220","html-keyboard-response","354","85574223","0.0-3.0-1.289","<span style=""font-size:30px; font-family: monospace"">ingresso</span>"," ","","exp-sent","ingresso","","",""
"","493","html-keyboard-response","355","85574967","0.0-3.0-1.290","<span style=""font-size:30px; font-family: monospace"">para</span>"," ","","exp-sent","para","","",""
"","300","html-keyboard-response","356","85575519","0.0-3.0-1.291","<span style=""font-size:30px; font-family: monospace"">o</span>"," ","","exp-sent","o","","",""
"","2373","html-keyboard-response","357","85578144","0.0-3.0-1.292","<span style=""font-size:30px; font-family: monospace"">evento.</span>"," ","","exp-sent","evento.","","",""
"","null","html-keyboard-response","358","85579398","0.0-3.0-0.293-0.293","<span style= ""font-size:30px; font-family: monospace"">+</span>","null","fixation","","","","",""
"","10607","html-keyboard-response","359","85590256","0.0-3.0-1.293","<span style=""font-size:30px; font-family: monospace"">A</span>"," ","","exp-sent","A","","",""
"","162","html-keyboard-response","360","85590671","0.0-3.0-1.294","<span style=""font-size:30px; font-family: monospace"">médica</span>"," ","","exp-sent","médica","","",""
"","27589","html-keyboard-response","361","85618512","0.0-3.0-1.295","<span style=""font-size:30px; font-family: monospace"">descobriu</span>"," ","","exp-sent","descobriu","","",""
"","4","html-keyboard-response","362","85618768","0.0-3.0-1.296","<span style=""font-size:30px; font-family: monospace"">uma</span>"," ","","exp-sent","uma","","",""
"","164","html-keyboard-response","363","85619184","0.0-3.0-1.297","<span style=""font-size:30px; font-family: monospace"">cura</span>"," ","","exp-sent","cura","","",""
"","629","html-keyboard-response","364","85620064","0.0-3.0-1.298","<span style=""font-size:30px; font-family: monospace"">para</span>"," ","","exp-sent","para","","",""
"","92","html-keyboard-response","365","85620408","0.0-3.0-1.299","<span style=""font-size:30px; font-family: monospace"">a</span>"," ","","exp-sent","a","","",""
"","349","html-keyboard-response","366","85621008","0.0-3.0-1.300","<span style=""font-size:30px; font-family: monospace"">doença.</span>"," ","","exp-sent","doença.","","",""
"","null","html-keyboard-response","367","85622260","0.0-3.0-0.301-0.301","<span style= ""font-size:30px; font-family: monospace"">+</span>","null","fixation","","","","",""
"","3671","html-keyboard-response","368","85626184","0.0-3.0-1.301","<span style=""font-size:30px; font-family: monospace"">O</span>"," ","","exp-sent","O","","",""
"","333","html-keyboard-response","369","85626768","0.0-3.0-1.302","<span style=""font-size:30px; font-family: monospace"">menino</span>"," ","","exp-sent","menino","","",""
"","627","html-keyboard-response","370","85627648","0.0-3.0-1.303","<span style=""font-size:30px; font-family: monospace"">riscou</span>"," ","","exp-sent","riscou","","",""
"","1364","html-keyboard-response","371","85629264","0.0-3.0-1.304","<span style=""font-size:30px; font-family: monospace"">o</span>"," ","","exp-sent","o","","",""
"","372","html-keyboard-response","372","85629888","0.0-3.0-1.305","<span style=""font-size:30px; font-family: monospace"">caderno</span>"," ","","exp-sent","caderno","","",""
"","749","html-keyboard-response","373","85630896","0.0-3.0-1.306","<span style=""font-size:30px; font-family: monospace"">com</span>"," ","","exp-sent","com","","",""
"","396","html-keyboard-response","374","85631544","0.0-3.0-1.307","<span style=""font-size:30px; font-family: monospace"">a</span>"," ","","exp-sent","a","","",""
"","475","html-keyboard-response","375","85632272","0.0-3.0-1.308","<span style=""font-size:30px; font-family: monospace"">caneta.</span>"," ","","comp","caneta.","","",""
"","70222","html-keyboard-response","376","85702747","0.0-3.0-2.308-0.308","<span style=""font-size:30px; font-family: monospace"">O menino riscou a parede com a caneta?</span>","s","","comp","","O menino riscou a parede com a caneta?","não","false"
"","null","html-keyboard-response","377","85704261","0.0-3.0-0.309-0.309","<span style= ""font-size:30px; font-family: monospace"">+</span>","null","fixation","","","","",""
"","1522","html-keyboard-response","378","85706035","0.0-3.0-1.309","<span style=""font-size:30px; font-family: monospace"">O</span>"," ","","exp-sent","O","","",""
"","373","html-keyboard-response","379","85706668","0.0-3.0-1.310","<span style=""font-size:30px; font-family: monospace"">travesseiro</span>"," ","","exp-sent","travesseiro","","",""
"","395","html-keyboard-response","380","85707315","0.0-3.0-1.311","<span style=""font-size:30px; font-family: monospace"">era</span>"," ","","exp-sent","era","","",""
"","213","html-keyboard-response","381","85707779","0.0-3.0-1.312","<span style=""font-size:30px; font-family: monospace"">muito</span>"," ","","exp-sent","muito","","",""
"","156","html-keyboard-response","382","85708187","0.0-3.0-1.313","<span style=""font-size:30px; font-family: monospace"">macio</span>"," ","","exp-sent","macio","","",""
"","113","html-keyboard-response","383","85708563","0.0-3.0-1.314","<span style=""font-size:30px; font-family: monospace"">e</span>"," ","","exp-sent","e","","",""
"","109","html-keyboard-response","384","85708923","0.0-3.0-1.315","<span style=""font-size:30px; font-family: monospace"">confortável.</span>"," ","","exp-sent","confortável.","","",""
"","null","html-keyboard-response","385","85710176","0.0-3.0-0.316-0.316","<span style= ""font-size:30px; font-family: monospace"">+</span>","null","fixation","","","","",""
"","4877","html-keyboard-response","386","85715308","0.0-3.0-1.316","<span style=""font-size:30px; font-family: monospace"">Hoje</span>"," ","","exp-sent","Hoje","","",""
"","428","html-keyboard-response","387","85715987","0.0-3.0-1.317","<span style=""font-size:30px; font-family: monospace"">a</span>"," ","","exp-sent","a","","",""
"","300","html-keyboard-response","388","85716539","0.0-3.0-1.318","<span style=""font-size:30px; font-family: monospace"">atendente</span>"," ","","exp-sent","atendente","","",""
"","292","html-keyboard-response","389","85717083","0.0-3.0-1.319","<span style=""font-size:30px; font-family: monospace"">estava</span>"," ","","exp-sent","estava","","",""
"","300","html-keyboard-response","390","85717635","0.0-3.0-1.320","<span style=""font-size:30px; font-family: monospace"">furiosa</span>"," ","","exp-sent","furiosa","","",""
"","309","html-keyboard-response","391","85718195","0.0-3.0-1.321","<span style=""font-size:30px; font-family: monospace"">com</span>"," ","","exp-sent","com","","",""
"","317","html-keyboard-response","392","85718763","0.0-3.0-1.322","<span style=""font-size:30px; font-family: monospace"">o</span>"," ","","exp-sent","o","","",""
"","276","html-keyboard-response","393","85719291","0.0-3.0-1.323","<span style=""font-size:30px; font-family: monospace"">cliente.</span>"," ","","exp-sent","cliente.","","",""
"","null","html-keyboard-response","394","85720544","0.0-3.0-0.324-0.324","<span style= ""font-size:30px; font-family: monospace"">+</span>","null","fixation","","","","",""
"","351","html-keyboard-response","395","85721148","0.0-3.0-1.324","<span style=""font-size:30px; font-family: monospace"">O</span>"," ","","exp-sent","O","","",""
"","700","html-keyboard-response","396","85722100","0.0-3.0-1.325","<span style=""font-size:30px; font-family: monospace"">vizinho</span>"," ","","exp-sent","vizinho","","",""
"","220","html-keyboard-response","397","85722572","0.0-3.0-1.326","<span style=""font-size:30px; font-family: monospace"">é</span>"," ","","exp-sent","é","","",""
"","212","html-keyboard-response","398","85723036","0.0-3.0-1.327","<span style=""font-size:30px; font-family: monospace"">um</span>"," ","","exp-sent","um","","",""
"","236","html-keyboard-response","399","85723524","0.0-3.0-1.328","<span style=""font-size:30px; font-family: monospace"">arquiteto</span>"," ","","exp-sent","arquiteto","","",""
"","252","html-keyboard-response","400","85724028","0.0-3.0-1.329","<span style=""font-size:30px; font-family: monospace"">muito</span>"," ","","exp-sent","muito","","",""
"","213","html-keyboard-response","401","85724500","0.0-3.0-1.330","<span style=""font-size:30px; font-family: monospace"">excêntrico.</span>"," ","","exp-sent","excêntrico.","","",""
"","null","html-keyboard-response","402","85725752","0.0-3.0-0.331-0.331","<span style= ""font-size:30px; font-family: monospace"">+</span>","null","fixation","","","","",""
"","3512","html-keyboard-response","403","85729516","0.0-3.0-1.331","<span style=""font-size:30px; font-family: monospace"">A</span>"," ","","exp-sent","A","","",""
"","37638","html-keyboard-response","404","85767406","0.0-3.0-1.332","<span style=""font-size:30px; font-family: monospace"">nossa</span>"," ","","exp-sent","nossa","","",""
"","305","html-keyboard-response","405","85767965","0.0-3.0-1.333","<span style=""font-size:30px; font-family: monospace"">colega</span>"," ","","exp-sent","colega","","",""
"","60","html-keyboard-response","406","85768277","0.0-3.0-1.334","<span style=""font-size:30px; font-family: monospace"">foi</span>"," ","","exp-sent","foi","","",""
"","357","html-keyboard-response","407","85768885","0.0-3.0-1.335","<span style=""font-size:30px; font-family: monospace"">má</span>"," ","","exp-sent","má","","",""
"","260","html-keyboard-response","408","85769397","0.0-3.0-1.336","<span style=""font-size:30px; font-family: monospace"">com</span>"," ","","exp-sent","com","","",""
"","4092","html-keyboard-response","409","85773741","0.0-3.0-1.337","<span style=""font-size:30px; font-family: monospace"">as</span>"," ","","exp-sent","as","","",""
"","92","html-keyboard-response","410","85774086","0.0-3.0-1.338","<span style=""font-size:30px; font-family: monospace"">crianças.</span>"," ","","exp-sent","crianças.","","",""
"","null","html-keyboard-response","411","85775338","0.0-3.0-0.339-0.339","<span style= ""font-size:30px; font-family: monospace"">+</span>","null","fixation","","","","",""
"","37353","html-keyboard-response","412","85812943","0.0-3.0-1.339","<span style=""font-size:30px; font-family: monospace"">Virtudes</span>"," ","","exp-sent","Virtudes","","",""
"","1116","html-keyboard-response","413","85814310","0.0-3.0-1.340","<span style=""font-size:30px; font-family: monospace"">não</span>"," ","","exp-sent","não","","",""
"","1085","html-keyboard-response","414","85815646","0.0-3.0-1.341","<span style=""font-size:30px; font-family: monospace"">são</span>"," ","","exp-sent","são","","",""
"","1512","html-keyboard-response","415","85817415","0.0-3.0-1.342","<span style=""font-size:30px; font-family: monospace"">preguiça,</span>"," ","","exp-sent","preguiça,","","",""
"","1037","html-keyboard-response","416","85818703","0.0-3.0-1.343","<span style=""font-size:30px; font-family: monospace"">gula</span>"," ","","exp-sent","gula","","",""
"","325","html-keyboard-response","417","85819279","0.0-3.0-1.344","<span style=""font-size:30px; font-family: monospace"">nem</span>"," ","","exp-sent","nem","","",""
"","204","html-keyboard-response","418","85819735","0.0-3.0-1.345","<span style=""font-size:30px; font-family: monospace"">ganância.</span>"," ","","comp","ganância.","","",""
"","56006","html-keyboard-response","419","85875992","0.0-3.0-2.345-0.345","<span style=""font-size:30px; font-family: monospace"">Preguiça é uma virtude?</span>","s","","comp","","Preguiça é uma virtude?","não","false"
"","null","html-keyboard-response","420","85877495","0.0-3.0-0.346-0.346","<span style= ""font-size:30px; font-family: monospace"">+</span>","null","fixation","","","","",""
"","69","html-keyboard-response","421","85877816","0.0-3.0-1.346","<span style=""font-size:30px; font-family: monospace"">Ele</span>"," ","","exp-sent","Ele","","",""
"","173","html-keyboard-response","422","85878240","0.0-3.0-1.347","<span style=""font-size:30px; font-family: monospace"">é</span>"," ","","exp-sent","é","","",""
"","220","html-keyboard-response","423","85878712","0.0-3.0-1.348","<span style=""font-size:30px; font-family: monospace"">um</span>"," ","","exp-sent","um","","",""
"","420","html-keyboard-response","424","85879384","0.0-3.0-1.349","<span style=""font-size:30px; font-family: monospace"">pai</span>"," ","","exp-sent","pai","","",""
"","300","html-keyboard-response","425","85879936","0.0-3.0-1.350","<span style=""font-size:30px; font-family: monospace"">ausente</span>"," ","","exp-sent","ausente","","",""
"","108","html-keyboard-response","426","85880296","0.0-3.0-1.351","<span style=""font-size:30px; font-family: monospace"">e</span>"," ","","exp-sent","e","","",""
"","60","html-keyboard-response","427","85880609","0.0-3.0-1.352","<span style=""font-size:30px; font-family: monospace"">muito</span>"," ","","exp-sent","muito","","",""
"","100","html-keyboard-response","428","85880960","0.0-3.0-1.353","<span style=""font-size:30px; font-family: monospace"">fofoqueiro.</span>"," ","","exp-sent","fofoqueiro.","","",""
"","null","html-keyboard-response","429","85882214","0.0-3.0-0.354-0.354","<span style= ""font-size:30px; font-family: monospace"">+</span>","null","fixation","","","","",""
"","239","html-keyboard-response","430","85882704","0.0-3.0-1.354","<span style=""font-size:30px; font-family: monospace"">O</span>"," ","","exp-sent","O","","",""
"","60","html-keyboard-response","431","85883016","0.0-3.0-1.355","<span style=""font-size:30px; font-family: monospace"">filho</span>"," ","","exp-sent","filho","","",""
"","52","html-keyboard-response","432","85883320","0.0-3.0-1.356","<span style=""font-size:30px; font-family: monospace"">lavou</span>"," ","","exp-sent","lavou","","",""
"","268","html-keyboard-response","433","85883840","0.0-3.0-1.357","<span style=""font-size:30px; font-family: monospace"">a</span>"," ","","exp-sent","a","","",""
"","396","html-keyboard-response","434","85884489","0.0-3.0-1.358","<span style=""font-size:30px; font-family: monospace"">roupa</span>"," ","","exp-sent","roupa","","",""
"","20","html-keyboard-response","435","85884761","0.0-3.0-1.359","<span style=""font-size:30px; font-family: monospace"">sem</span>"," ","","exp-sent","sem","","",""
"","26","html-keyboard-response","436","85885041","0.0-3.0-1.360","<span style=""font-size:30px; font-family: monospace"">nenhuma</span>"," ","","exp-sent","nenhuma","","",""
"","324","html-keyboard-response","437","85885617","0.0-3.0-1.361","<span style=""font-size:30px; font-family: monospace"">ajuda.</span>"," ","","exp-sent","ajuda.","","",""
"","null","html-keyboard-response","438","85886870","0.0-3.0-0.362-0.362","<span style= ""font-size:30px; font-family: monospace"">+</span>","null","fixation","","","","",""
"","71","html-keyboard-response","439","85887193","0.0-3.0-1.362","<span style=""font-size:30px; font-family: monospace"">O</span>"," ","","exp-sent","O","","",""
"","292","html-keyboard-response","440","85887737","0.0-3.0-1.363","<span style=""font-size:30px; font-family: monospace"">menino</span>"," ","","exp-sent","menino","","",""
"","52","html-keyboard-response","441","85888041","0.0-3.0-1.364","<span style=""font-size:30px; font-family: monospace"">quebrou</span>"," ","","exp-sent","quebrou","","",""
"","148","html-keyboard-response","442","85888441","0.0-3.0-1.365","<span style=""font-size:30px; font-family: monospace"">a</span>"," ","","exp-sent","a","","",""
"","44","html-keyboard-response","443","85888737","0.0-3.0-1.366","<span style=""font-size:30px; font-family: monospace"">perna</span>"," ","","exp-sent","perna","","",""
"","148","html-keyboard-response","444","85889137","0.0-3.0-1.367","<span style=""font-size:30px; font-family: monospace"">nos</span>"," ","","exp-sent","nos","","",""
"","11","html-keyboard-response","445","85889401","0.0-3.0-1.368","<span style=""font-size:30px; font-family: monospace"">esportes.</span>"," ","","exp-sent","esportes.","","",""
"","null","html-keyboard-response","446","85890654","0.0-3.0-0.369-0.369","<span style= ""font-size:30px; font-family: monospace"">+</span>","null","fixation","","","","",""
"","271","html-keyboard-response","447","85891177","0.0-3.0-1.369","<span style=""font-size:30px; font-family: monospace"">Ela</span>"," ","","exp-sent","Ela","","",""
"","333","html-keyboard-response","448","85891761","0.0-3.0-1.370","<span style=""font-size:30px; font-family: monospace"">brincou</span>"," ","","exp-sent","brincou","","",""
"","45","html-keyboard-response","449","85892057","0.0-3.0-1.371","<span style=""font-size:30px; font-family: monospace"">com</span>"," ","","exp-sent","com","","",""
"","52","html-keyboard-response","450","85892361","0.0-3.0-1.372","<span style=""font-size:30px; font-family: monospace"">uma</span>"," ","","exp-sent","uma","","",""
"","36","html-keyboard-response","451","85892649","0.0-3.0-1.373","<span style=""font-size:30px; font-family: monospace"">menina</span>"," ","","exp-sent","menina","","",""
"","20","html-keyboard-response","452","85892921","0.0-3.0-1.374","<span style=""font-size:30px; font-family: monospace"">da</span>"," ","","exp-sent","da","","",""
"","44","html-keyboard-response","453","85893217","0.0-3.0-1.375","<span style=""font-size:30px; font-family: monospace"">turma.</span>"," ","","exp-sent","turma.","","",""
"","null","html-keyboard-response","454","85894471","0.0-3.0-0.376-0.376","<span style= ""font-size:30px; font-family: monospace"">+</span>","null","fixation","","","","",""
"","783","html-keyboard-response","455","85895521","0.0-3.0-1.376","<span style=""font-size:30px; font-family: monospace"">Ele</span>"," ","","exp-sent","Ele","","",""
"","572","html-keyboard-response","456","85896345","0.0-3.0-1.377","<span style=""font-size:30px; font-family: monospace"">esteve</span>"," ","","exp-sent","esteve","","",""
"","301","html-keyboard-response","457","85896897","0.0-3.0-1.378","<span style=""font-size:30px; font-family: monospace"">no</span>"," ","","exp-sent","no","","",""
"","638","html-keyboard-response","458","85897786","0.0-3.0-1.379","<span style=""font-size:30px; font-family: monospace"">escritório</span>"," ","","exp-sent","escritório","","",""
"","211","html-keyboard-response","459","85898249","0.0-3.0-1.380","<span style=""font-size:30px; font-family: monospace"">o</span>"," ","","exp-sent","o","","",""
"","180","html-keyboard-response","460","85898681","0.0-3.0-1.381","<span style=""font-size:30px; font-family: monospace"">dia</span>"," ","","exp-sent","dia","","",""
"","140","html-keyboard-response","461","85899073","0.0-3.0-1.382","<span style=""font-size:30px; font-family: monospace"">inteiro.</span>"," ","","comp","inteiro.","","",""
"","4692","html-keyboard-response","462","85904017","0.0-3.0-2.382-0.382","<span style=""font-size:30px; font-family: monospace"">Ele esteve no parque o dia inteiro?</span>","s","","comp","","Ele esteve no parque o dia inteiro?","não","false"
"","null","html-keyboard-response","463","85905521","0.0-3.0-0.383-0.383","<span style= ""font-size:30px; font-family: monospace"">+</span>","null","fixation","","","","",""
"","18773","html-keyboard-response","464","85924546","0.0-3.0-1.383","<span style=""font-size:30px; font-family: monospace"">Barulho</span>"," ","","exp-sent","Barulho","","",""
"","92","html-keyboard-response","465","85924890","0.0-3.0-1.384","<span style=""font-size:30px; font-family: monospace"">de</span>"," ","","exp-sent","de","","",""
"","36","html-keyboard-response","466","85925178","0.0-3.0-1.385","<span style=""font-size:30px; font-family: monospace"">carros</span>"," ","","exp-sent","carros","","",""
"","28","html-keyboard-response","467","85925458","0.0-3.0-1.386","<span style=""font-size:30px; font-family: monospace"">é</span>"," ","","exp-sent","é","","",""
"","1300","html-keyboard-response","468","85927010","0.0-3.0-1.387","<span style=""font-size:30px; font-family: monospace"">irritante</span>"," ","","exp-sent","irritante","","",""
"","4","html-keyboard-response","469","85927266","0.0-3.0-1.388","<span style=""font-size:30px; font-family: monospace"">para</span>"," ","","exp-sent","para","","",""
"","140","html-keyboard-response","470","85927658","0.0-3.0-1.389","<span style=""font-size:30px; font-family: monospace"">a</span>"," ","","exp-sent","a","","",""
"","3420","html-keyboard-response","471","85931330","0.0-3.0-1.390","<span style=""font-size:30px; font-family: monospace"">moça.</span>"," ","","exp-sent","moça.","","",""
"","null","html-keyboard-response","472","85932584","0.0-3.0-0.391-0.391","<span style= ""font-size:30px; font-family: monospace"">+</span>","null","fixation","","","","",""
"","87","html-keyboard-response","473","85932922","0.0-3.0-1.391","<span style=""font-size:30px; font-family: monospace"">A</span>"," ","","exp-sent","A","","",""
"","28","html-keyboard-response","474","85933202","0.0-3.0-1.392","<span style=""font-size:30px; font-family: monospace"">loja</span>"," ","","exp-sent","loja","","",""
"","52","html-keyboard-response","475","85933506","0.0-3.0-1.393","<span style=""font-size:30px; font-family: monospace"">também</span>"," ","","exp-sent","também","","",""
"","52","html-keyboard-response","476","85933810","0.0-3.0-1.394","<span style=""font-size:30px; font-family: monospace"">vende</span>"," ","","exp-sent","vende","","",""
"","4","html-keyboard-response","477","85934066","0.0-3.0-1.395","<span style=""font-size:30px; font-family: monospace"">taça</span>"," ","","exp-sent","taça","","",""
"","60","html-keyboard-response","478","85934378","0.0-3.0-1.396","<span style=""font-size:30px; font-family: monospace"">de</span>"," ","","exp-sent","de","","",""
"","5","html-keyboard-response","479","85934634","0.0-3.0-1.397","<span style=""font-size:30px; font-family: monospace"">vinho</span>"," ","","exp-sent","vinho","","",""
"","140","html-keyboard-response","480","85935026","0.0-3.0-1.398","<span style=""font-size:30px; font-family: monospace"">e</span>"," ","","exp-sent","e","","",""
"","52","html-keyboard-response","481","85935330","0.0-3.0-1.399","<span style=""font-size:30px; font-family: monospace"">espumante.</span>"," ","","exp-sent","espumante.","","",""
"","null","html-keyboard-response","482","85936583","0.0-3.0-0.400-0.400","<span style= ""font-size:30px; font-family: monospace"">+</span>","null","fixation","","","","",""
"","223","html-keyboard-response","483","85937058","0.0-3.0-1.400","<span style=""font-size:30px; font-family: monospace"">A</span>"," ","","exp-sent","A","","",""
"","20","html-keyboard-response","484","85937330","0.0-3.0-1.401","<span style=""font-size:30px; font-family: monospace"">bruxa</span>"," ","","exp-sent","bruxa","","",""
"","292","html-keyboard-response","485","85937874","0.0-3.0-1.402","<span style=""font-size:30px; font-family: monospace"">tinha</span>"," ","","exp-sent","tinha","","",""
"","124","html-keyboard-response","486","85938250","0.0-3.0-1.403","<span style=""font-size:30px; font-family: monospace"">uma</span>"," ","","exp-sent","uma","","",""
"","156","html-keyboard-response","487","85938658","0.0-3.0-1.404","<span style=""font-size:30px; font-family: monospace"">vassoura</span>"," ","","exp-sent","vassoura","","",""
"","100","html-keyboard-response","488","85939010","0.0-3.0-1.405","<span style=""font-size:30px; font-family: monospace"">e</span>"," ","","exp-sent","e","","",""
"","84","html-keyboard-response","489","85939346","0.0-3.0-1.406","<span style=""font-size:30px; font-family: monospace"">um</span>"," ","","exp-sent","um","","",""
"","148","html-keyboard-response","490","85939746","0.0-3.0-1.407","<span style=""font-size:30px; font-family: monospace"">gato.</span>"," ","","exp-sent","gato.","","",""
"","null","html-keyboard-response","491","85941000","0.0-3.0-0.408-0.408","<span style= ""font-size:30px; font-family: monospace"">+</span>","null","fixation","","","","",""
"","30","html-keyboard-response","492","85941282","0.0-3.0-1.408","<span style=""font-size:30px; font-family: monospace"">Eu</span>"," ","","exp-sent","Eu","","",""
"","132","html-keyboard-response","493","85941666","0.0-3.0-1.409","<span style=""font-size:30px; font-family: monospace"">me</span>"," ","","exp-sent","me","","",""
"","148","html-keyboard-response","494","85942067","0.0-3.0-1.410","<span style=""font-size:30px; font-family: monospace"">divirto</span>"," ","","exp-sent","divirto","","",""
"","348","html-keyboard-response","495","85942666","0.0-3.0-1.411","<span style=""font-size:30px; font-family: monospace"">em</span>"," ","","exp-sent","em","","",""
"","148","html-keyboard-response","496","85943066","0.0-3.0-1.412","<span style=""font-size:30px; font-family: monospace"">festas</span>"," ","","exp-sent","festas","","",""
"","300","html-keyboard-response","497","85943618","0.0-3.0-1.413","<span style=""font-size:30px; font-family: monospace"">de</span>"," ","","exp-sent","de","","",""
"","60","html-keyboard-response","498","85943930","0.0-3.0-1.414","<span style=""font-size:30px; font-family: monospace"">criança.</span>"," ","","exp-sent","criança.","","",""
"","null","html-keyboard-response","499","85945183","0.0-3.0-0.415-0.415","<span style= ""font-size:30px; font-family: monospace"">+</span>","null","fixation","","","","",""
"","223","html-keyboard-response","500","85945658","0.0-3.0-1.415","<span style=""font-size:30px; font-family: monospace"">A</span>"," ","","exp-sent","A","","",""
"","4","html-keyboard-response","501","85945914","0.0-3.0-1.416","<span style=""font-size:30px; font-family: monospace"">janela</span>"," ","","exp-sent","janela","","",""
"","60","html-keyboard-response","502","85946226","0.0-3.0-1.417","<span style=""font-size:30px; font-family: monospace"">alta</span>"," ","","exp-sent","alta","","",""
"","260","html-keyboard-response","503","85946738","0.0-3.0-1.418","<span style=""font-size:30px; font-family: monospace"">estava</span>"," ","","exp-sent","estava","","",""
"","28","html-keyboard-response","504","85947018","0.0-3.0-1.419","<span style=""font-size:30px; font-family: monospace"">quebrada</span>"," ","","exp-sent","quebrada","","",""
"","148","html-keyboard-response","505","85947418","0.0-3.0-1.420","<span style=""font-size:30px; font-family: monospace"">desde</span>"," ","","exp-sent","desde","","",""
"","284","html-keyboard-response","506","85947955","0.0-3.0-1.421","<span style=""font-size:30px; font-family: monospace"">ontem.</span>"," ","","comp","ontem.","","",""
"","15917","html-keyboard-response","507","85964123","0.0-3.0-2.421-0.421","<span style=""font-size:30px; font-family: monospace"">A janela alta estava quebrada?</span>","s","","comp","","A janela alta estava quebrada?","sim","false"
"","null","html-keyboard-response","508","85965627","0.0-3.0-0.422-0.422","<span style= ""font-size:30px; font-family: monospace"">+</span>","null","fixation","","","","",""
"","84","html-keyboard-response","509","85965963","0.0-3.0-1.422","<span style=""font-size:30px; font-family: monospace"">Minha</span>"," ","","exp-sent","Minha","","",""
"","28","html-keyboard-response","510","85966243","0.0-3.0-1.423","<span style=""font-size:30px; font-family: monospace"">prima</span>"," ","","exp-sent","prima","","",""
"","44","html-keyboard-response","511","85966539","0.0-3.0-1.424","<span style=""font-size:30px; font-family: monospace"">trocou</span>"," ","","exp-sent","trocou","","",""
"","61","html-keyboard-response","512","85966851","0.0-3.0-1.425","<span style=""font-size:30px; font-family: monospace"">a</span>"," ","","exp-sent","a","","",""
"","172","html-keyboard-response","513","85967275","0.0-3.0-1.426","<span style=""font-size:30px; font-family: monospace"">tela</span>"," ","","exp-sent","tela","","",""
"","132","html-keyboard-response","514","85967659","0.0-3.0-1.427","<span style=""font-size:30px; font-family: monospace"">do</span>"," ","","exp-sent","do","","",""
"","60","html-keyboard-response","515","85967971","0.0-3.0-1.428","<span style=""font-size:30px; font-family: monospace"">celular</span>"," ","","exp-sent","celular","","",""
"","394961","html-keyboard-response","516","86363185","0.0-3.0-1.429","<span style=""font-size:30px; font-family: monospace"">duas</span>"," ","","exp-sent","duas","","",""
"","306","html-keyboard-response","517","86363743","0.0-3.0-1.430","<span style=""font-size:30px; font-family: monospace"">vezes.</span>"," ","","exp-sent","vezes.","","",""
"","null","html-keyboard-response","518","86364996","0.0-3.0-0.431-0.431","<span style= ""font-size:30px; font-family: monospace"">+</span>","null","fixation","","","","",""
"","1317","html-keyboard-response","519","86366567","0.0-3.0-1.431","<span style=""font-size:30px; font-family: monospace"">Agora</span>"," ","","exp-sent","Agora","","",""
"","276","html-keyboard-response","520","86367095","0.0-3.0-1.432","<span style=""font-size:30px; font-family: monospace"">a</span>"," ","","exp-sent","a","","",""
"","44","html-keyboard-response","521","86367391","0.0-3.0-1.433","<span style=""font-size:30px; font-family: monospace"">minha</span>"," ","","exp-sent","minha","","",""
"","28","html-keyboard-response","522","86367671","0.0-3.0-1.434","<span style=""font-size:30px; font-family: monospace"">única</span>"," ","","exp-sent","única","","",""
"","37","html-keyboard-response","523","86367960","0.0-3.0-1.435","<span style=""font-size:30px; font-family: monospace"">preocupação</span>"," ","","exp-sent","preocupação","","",""
"","172","html-keyboard-response","524","86368383","0.0-3.0-1.436","<span style=""font-size:30px; font-family: monospace"">é</span>"," ","","exp-sent","é","","",""
"","68","html-keyboard-response","525","86368703","0.0-3.0-1.437","<span style=""font-size:30px; font-family: monospace"">um</span>"," ","","exp-sent","um","","",""
"","45","html-keyboard-response","526","86369000","0.0-3.0-1.438","<span style=""font-size:30px; font-family: monospace"">descanso</span>"," ","","exp-sent","descanso","","",""
"","219","html-keyboard-response","527","86369472","0.0-3.0-1.439","<span style=""font-size:30px; font-family: monospace"">tranquilo.</span>"," ","","exp-sent","tranquilo.","","",""
"","null","html-keyboard-response","528","86370725","0.0-3.0-0.440-0.440","<span style= ""font-size:30px; font-family: monospace"">+</span>","null","fixation","","","","",""
"","78","html-keyboard-response","529","86371055","0.0-3.0-1.440","<span style=""font-size:30px; font-family: monospace"">A</span>"," ","","exp-sent","A","","",""
"","148","html-keyboard-response","530","86371456","0.0-3.0-1.441","<span style=""font-size:30px; font-family: monospace"">criança</span>"," ","","exp-sent","criança","","",""
"","85","html-keyboard-response","531","86371792","0.0-3.0-1.442","<span style=""font-size:30px; font-family: monospace"">ganhou</span>"," ","","exp-sent","ganhou","","",""
"","76","html-keyboard-response","532","86372120","0.0-3.0-1.443","<span style=""font-size:30px; font-family: monospace"">um</span>"," ","","exp-sent","um","","",""
"","19","html-keyboard-response","533","86372391","0.0-3.0-1.444","<span style=""font-size:30px; font-family: monospace"">presente</span>"," ","","exp-sent","presente","","",""
"","12","html-keyboard-response","534","86372655","0.0-3.0-1.445","<span style=""font-size:30px; font-family: monospace"">maravilhoso.</span>"," ","","exp-sent","maravilhoso.","","",""
"","null","html-keyboard-response","535","86373908","0.0-3.0-0.446-0.446","<span style= ""font-size:30px; font-family: monospace"">+</span>","null","fixation","","","","",""
"","1248","html-keyboard-response","536","86375408","0.0-3.0-1.446","<span style=""font-size:30px; font-family: monospace"">Os</span>"," ","","exp-sent","Os","","",""
"","451","html-keyboard-response","537","86376111","0.0-3.0-1.447","<span style=""font-size:30px; font-family: monospace"">bichos</span>"," ","","exp-sent","bichos","","",""
"","733","html-keyboard-response","538","86377096","0.0-3.0-1.448","<span style=""font-size:30px; font-family: monospace"">têm</span>"," ","","exp-sent","têm","","",""
"","244","html-keyboard-response","539","86377591","0.0-3.0-1.449","<span style=""font-size:30px; font-family: monospace"">um</span>"," ","","exp-sent","um","","",""
"","2500","html-keyboard-response","540","86380344","0.0-3.0-1.450","<span style=""font-size:30px; font-family: monospace"">instinto</span>"," ","","exp-sent","instinto","","",""
"","244","html-keyboard-response","541","86380840","0.0-3.0-1.451","<span style=""font-size:30px; font-family: monospace"">de</span>"," ","","exp-sent","de","","",""
"","68","html-keyboard-response","542","86381160","0.0-3.0-1.452","<span style=""font-size:30px; font-family: monospace"">sobrevivência</span>"," ","","exp-sent","sobrevivência","","",""
"","5","html-keyboard-response","543","86381416","0.0-3.0-1.453","<span style=""font-size:30px; font-family: monospace"">forte.</span>"," ","","exp-sent","forte.","","",""
"","null","html-keyboard-response","544","86382669","0.0-3.0-0.454-0.454","<span style= ""font-size:30px; font-family: monospace"">+</span>","null","fixation","","","","",""
"","215","html-keyboard-response","545","86383136","0.0-3.0-1.454","<span style=""font-size:30px; font-family: monospace"">Aquele</span>"," ","","exp-sent","Aquele","","",""
"","52","html-keyboard-response","546","86383440","0.0-3.0-1.455","<span style=""font-size:30px; font-family: monospace"">menino</span>"," ","","exp-sent","menino","","",""
"","1173","html-keyboard-response","547","86384864","0.0-3.0-1.456","<span style=""font-size:30px; font-family: monospace"">alto</span>"," ","","exp-sent","alto","","",""
"","75","html-keyboard-response","548","86385192","0.0-3.0-1.457","<span style=""font-size:30px; font-family: monospace"">é</span>"," ","","exp-sent","é","","",""
"","115","html-keyboard-response","549","86385560","0.0-3.0-1.458","<span style=""font-size:30px; font-family: monospace"">exibido</span>"," ","","exp-sent","exibido","","",""
"","45","html-keyboard-response","550","86385856","0.0-3.0-1.459","<span style=""font-size:30px; font-family: monospace"">e</span>"," ","","exp-sent","e","","",""
"","28","html-keyboard-response","551","86386136","0.0-3.0-1.460","<span style=""font-size:30px; font-family: monospace"">sovina.</span>"," ","","comp","sovina.","","",""
"","56622","html-keyboard-response","552","86443010","0.0-3.0-2.460-0.460","<span style=""font-size:30px; font-family: monospace"">Aquele menino é humilde?</span>","s","","comp","","Aquele menino é humilde?","não","false"
"","null","html-keyboard-response","553","86444511","0.0-3.0-0.461-0.461","<span style= ""font-size:30px; font-family: monospace"">+</span>","null","fixation","","","","",""
"","150","html-keyboard-response","554","86444914","0.0-3.0-1.461","<span style=""font-size:30px; font-family: monospace"">A</span>"," ","","exp-sent","A","","",""
"","316","html-keyboard-response","555","86445482","0.0-3.0-1.462","<span style=""font-size:30px; font-family: monospace"">força</span>"," ","","exp-sent","força","","",""
"","4636","html-keyboard-response","556","86450370","0.0-3.0-1.463","<span style=""font-size:30px; font-family: monospace"">d'água</span>"," ","","exp-sent","d'água","","",""
"","3036","html-keyboard-response","557","86453658","0.0-3.0-1.464","<span style=""font-size:30px; font-family: monospace"">estava</span>"," ","","exp-sent","estava","","",""
"","188","html-keyboard-response","558","86454098","0.0-3.0-1.465","<span style=""font-size:30px; font-family: monospace"">normal</span>"," ","","exp-sent","normal","","",""
"","11","html-keyboard-response","559","86454362","0.0-3.0-1.466","<span style=""font-size:30px; font-family: monospace"">naquele</span>"," ","","exp-sent","naquele","","",""
"","28","html-keyboard-response","560","86454642","0.0-3.0-1.467","<span style=""font-size:30px; font-family: monospace"">dia.</span>"," ","","exp-sent","dia.","","",""
"","null","html-keyboard-response","561","86455895","0.0-3.0-0.468-0.468","<span style= ""font-size:30px; font-family: monospace"">+</span>","null","fixation","","","","",""
"","439","html-keyboard-response","562","86456586","0.0-3.0-1.468","<span style=""font-size:30px; font-family: monospace"">A</span>"," ","","exp-sent","A","","",""
"","3101","html-keyboard-response","563","86459938","0.0-3.0-1.469","<span style=""font-size:30px; font-family: monospace"">médica</span>"," ","","exp-sent","médica","","",""
"","4516","html-keyboard-response","564","86464706","0.0-3.0-1.470","<span style=""font-size:30px; font-family: monospace"">ofereceu</span>"," ","","exp-sent","ofereceu","","",""
"","884","html-keyboard-response","565","86465842","0.0-3.0-1.471","<span style=""font-size:30px; font-family: monospace"">a</span>"," ","","exp-sent","a","","",""
"","35","html-keyboard-response","566","86466131","0.0-3.0-1.472","<span style=""font-size:30px; font-family: monospace"">pomada</span>"," ","","exp-sent","pomada","","",""
"","24045","html-keyboard-response","567","86490428","0.0-3.0-1.473","<span style=""font-size:30px; font-family: monospace"">para</span>"," ","","exp-sent","para","","",""
"","98","html-keyboard-response","568","86490779","0.0-3.0-1.474","<span style=""font-size:30px; font-family: monospace"">o</span>"," ","","exp-sent","o","","",""
"","84","html-keyboard-response","569","86491115","0.0-3.0-1.475","<span style=""font-size:30px; font-family: monospace"">avô.</span>"," ","","exp-sent","avô.","","",""
"","null","html-keyboard-response","570","86492368","0.0-3.0-0.476-0.476","<span style= ""font-size:30px; font-family: monospace"">+</span>","null","fixation","","","","",""
"","103","html-keyboard-response","571","86492723","0.0-3.0-1.476","<span style=""font-size:30px; font-family: monospace"">Ele</span>"," ","","exp-sent","Ele","","",""
"","76","html-keyboard-response","572","86493051","0.0-3.0-1.477","<span style=""font-size:30px; font-family: monospace"">conversou</span>"," ","","exp-sent","conversou","","",""
"","5","html-keyboard-response","573","86493315","0.0-3.0-1.478","<span style=""font-size:30px; font-family: monospace"">com</span>"," ","","exp-sent","com","","",""
"","52","html-keyboard-response","574","86493619","0.0-3.0-1.479","<span style=""font-size:30px; font-family: monospace"">o</span>"," ","","exp-sent","o","","",""
"","36","html-keyboard-response","575","86493907","0.0-3.0-1.480","<span style=""font-size:30px; font-family: monospace"">patrão</span>"," ","","exp-sent","patrão","","",""
"","27","html-keyboard-response","576","86494187","0.0-3.0-1.481","<span style=""font-size:30px; font-family: monospace"">durante</span>"," ","","exp-sent","durante","","",""
"","28","html-keyboard-response","577","86494467","0.0-3.0-1.482","<span style=""font-size:30px; font-family: monospace"">a</span>"," ","","exp-sent","a","","",""
"","52","html-keyboard-response","578","86494771","0.0-3.0-1.483","<span style=""font-size:30px; font-family: monospace"">tarde.</span>"," ","","exp-sent","tarde.","","",""
"","null","html-keyboard-response","579","86496024","0.0-3.0-0.484-0.484","<span style= ""font-size:30px; font-family: monospace"">+</span>","null","fixation","","","","",""
"","135","html-keyboard-response","580","86496411","0.0-3.0-1.484","<span style=""font-size:30px; font-family: monospace"">Algumas</span>"," ","","exp-sent","Algumas","","",""
"","85","html-keyboard-response","581","86496747","0.0-3.0-1.485","<span style=""font-size:30px; font-family: monospace"">pessoas</span>"," ","","exp-sent","pessoas","","",""
