[
	{
		"view_history": [
			{
				"page_index": 0,
				"viewing_time": 11621
			}
		],
		"rt": 11622,
		"trial_type": "instructions",
		"trial_index": 0,
		"time_elapsed": 11984,
		"internal_node_id": "0.0-0.0"
	},
	{
		"rt": 44576,
		"response": {
			"age": "38\n1984"
		},
		"trial_type": "survey-text",
		"trial_index": 1,
		"time_elapsed": 57320,
		"internal_node_id": "0.0-1.0"
	},
	{
		"rt": 3977,
		"response": {
			"sex": "Masculino"
		},
		"question_order": [
			0
		],
		"trial_type": "survey-multi-choice",
		"trial_index": 2,
		"time_elapsed": 61400,
		"internal_node_id": "0.0-2.0"
	},
	{
		"rt": 10878,
		"response": {
			"own_schooling": "Ensino Fundamental"
		},
		"question_order": [
			0
		],
		"trial_type": "survey-multi-choice",
		"trial_index": 3,
		"time_elapsed": 72392,
		"internal_node_id": "0.0-3.0"
	},
	{
		"rt": 9703,
		"response": {
			"mother_schooling": "Outro"
		},
		"question_order": [
			0
		],
		"trial_type": "survey-multi-choice",
		"trial_index": 4,
		"time_elapsed": 82202,
		"internal_node_id": "0.0-4.0"
	},
	{
		"rt": 4697,
		"response": {
			"father_schooling": "Outro"
		},
		"question_order": [
			0
		],
		"trial_type": "survey-multi-choice",
		"trial_index": 5,
		"time_elapsed": 87016,
		"internal_node_id": "0.0-5.0"
	},
	{
		"rt": 32750,
		"response": {
			"language_0": "",
			"listening_0": "",
			"speaking_0": "",
			"reading_0": "",
			"writing_0": "",
			"language_1": "",
			"listening_1": "",
			"speaking_1": "",
			"reading_1": "",
			"writing_1": "",
			"language_2": "",
			"listening_2": "",
			"speaking_2": "",
			"reading_2": "",
			"writing_2": "",
			"language_3": "",
			"listening_3": "",
			"speaking_3": "",
			"reading_3": "",
			"writing_3": ""
		},
		"trial_type": "survey-html-form",
		"trial_index": 6,
		"time_elapsed": 119883,
		"internal_node_id": "0.0-6.0"
	},
	{
		"rt": 17550,
		"response": {
			"language_3": "",
			"listening_3": "",
			"speaking_3": "",
			"reading_3": "",
			"writing_3": "",
			"language_1": "",
			"listening_1": "",
			"speaking_1": "",
			"reading_1": "",
			"writing_1": "",
			"language_2": "",
			"listening_2": "",
			"speaking_2": "",
			"reading_2": "",
			"writing_2": ""
		},
		"trial_type": "survey-html-form",
		"trial_index": 7,
		"time_elapsed": 137547,
		"internal_node_id": "0.0-7.0"
	},
	{
		"rt": 6666,
		"response": {
			"country_of_origin": "haiti"
		},
		"trial_type": "survey-text",
		"trial_index": 8,
		"time_elapsed": 144330,
		"internal_node_id": "0.0-8.0"
	},
	{
		"rt": 8301,
		"response": {
			"country_of_residence": "brasil"
		},
		"trial_type": "survey-text",
		"trial_index": 9,
		"time_elapsed": 152738,
		"internal_node_id": "0.0-9.0"
	},
	{
		"rt": 13408,
		"response": {
			"country_0": "",
			"duration_0": "",
			"language_0": "",
			"frequency_0": "",
			"country_1": "",
			"duration_1": "",
			"language_1": "",
			"frequency_1": "",
			"country_2": "",
			"duration_2": "",
			"language_2": "",
			"frequency_2": "",
			"country_3": "",
			"duration_3": "",
			"language_3": "",
			"frequency_3": ""
		},
		"trial_type": "survey-html-form",
		"trial_index": 10,
		"time_elapsed": 166259,
		"internal_node_id": "0.0-10.0"
	},
	{
		"rt": 43150,
		"response": {
			"language_0": "3",
			"context_0": "",
			"language_1": "",
			"context_1": "",
			"language_2": "",
			"context_2": "",
			"language_3": "",
			"context_3": ""
		},
		"trial_type": "survey-html-form",
		"trial_index": 11,
		"time_elapsed": 209516,
		"internal_node_id": "0.0-11.0"
	},
	{
		"rt": 27616,
		"response": {
			"language_0": "trabalha",
			"home_0": "",
			"friends_0": "",
			"school_0": "",
			"work_0": "",
			"computer_0": "",
			"games_0": "",
			"language_1": "",
			"home_1": "",
			"friends_1": "",
			"school_1": "",
			"work_1": "",
			"computer_1": "",
			"games_1": "",
			"language_2": "",
			"home_2": "",
			"friends_2": "",
			"school_2": "",
			"work_2": "",
			"computer_2": "",
			"games_2": "",
			"language_3": "",
			"home_3": "",
			"friends_3": "",
			"school_3": "",
			"work_3": "",
			"computer_3": "",
			"games_3": ""
		},
		"trial_type": "survey-html-form",
		"trial_index": 12,
		"time_elapsed": 237238,
		"internal_node_id": "0.0-12.0"
	},
	{
		"rt": 9589,
		"response": {
			"new_languages": 4
		},
		"question_order": [
			0
		],
		"trial_type": "survey-likert",
		"trial_index": 13,
		"time_elapsed": 246941,
		"internal_node_id": "0.0-13.0"
	},
	{
		"rt": 12831,
		"response": {
			"language_0": "",
			"listen_0": "5",
			"talk_0": "",
			"read_0": "",
			"write_0": "",
			"language_1": "",
			"listen_1": "",
			"talk_1": "",
			"read_1": "",
			"write_1": "",
			"language_2": "",
			"listen_2": "",
			"talk_2": "",
			"read_2": "",
			"write_2": "",
			"language_3": "",
			"listen_3": "",
			"talk_3": "",
			"read_3": "",
			"write_3": ""
		},
		"trial_type": "survey-html-form",
		"trial_index": 14,
		"time_elapsed": 259879,
		"internal_node_id": "0.0-14.0"
	},
	{
		"rt": 23479,
		"response": {
			"language_0": "trabalho",
			"tv_0": "",
			"radio_0": "",
			"read_fun_0": "",
			"read_work_0": "",
			"write_0": "",
			"social_nets_0": "",
			"language_1": "",
			"tv_1": "",
			"radio_1": "",
			"read_fun_1": "",
			"read_work_1": "",
			"write_1": "",
			"social_nets_1": "",
			"language_2": "",
			"tv_2": "",
			"radio_2": "",
			"read_fun_2": "",
			"read_work_2": "",
			"write_2": "",
			"social_nets_2": "",
			"language_3": "",
			"tv_3": "",
			"radio_3": "",
			"read_fun_3": "",
			"read_work_3": "",
			"write_3": "",
			"social_nets_3": ""
		},
		"trial_type": "survey-html-form",
		"trial_index": 15,
		"time_elapsed": 283464,
		"internal_node_id": "0.0-15.0"
	},
	{
		"rt": 31800,
		"response": {
			"language_0": "trabalho",
			"family_0": "",
			"friends_0": "",
			"work_0": "",
			"school_0": "",
			"language_1": "",
			"family_1": "",
			"friends_1": "",
			"work_1": "",
			"school_1": "",
			"language_2": "",
			"family_2": "",
			"friends_2": "",
			"work_2": "",
			"school_2": "",
			"language_3": "",
			"family_3": "",
			"friends_3": "",
			"work_3": "",
			"school_3": ""
		},
		"trial_type": "survey-html-form",
		"trial_index": 16,
		"time_elapsed": 315376,
		"internal_node_id": "0.0-16.0"
	},
	{
		"rt": 12781,
		"response": {
			"language_0_0": "",
			"language_0_1": "",
			"language_0_2": "",
			"language_0_3": "",
			"language_1_0": "",
			"language_1_1": "",
			"language_1_2": "",
			"language_1_3": "",
			"language_2_0": "",
			"language_2_1": "",
			"language_2_2": "",
			"language_2_3": "",
			"language_3_0": "trabalho",
			"language_3_1": "",
			"language_3_2": "",
			"language_3_3": ""
		},
		"trial_type": "survey-html-form",
		"trial_index": 17,
		"time_elapsed": 328264,
		"internal_node_id": "0.0-17.0"
	},
	{
		"rt": 61000,
		"response": {
			"language_2": "",
			"think_2": "",
			"selftalk_2": "",
			"emotions_2": "",
			"dream_2": "",
			"math_2": "",
			"remember_2": "",
			"pray_2": "",
			"language_1": "",
			"think_1": "",
			"selftalk_1": "",
			"emotions_1": "",
			"dream_1": "",
			"math_1": "",
			"remember_1": "",
			"pray_1": "",
			"language_3": "",
			"think_3": "",
			"selftalk_3": "",
			"emotions_3": "",
			"dream_3": "",
			"math_3": "",
			"remember_3": "",
			"pray_3": ""
		},
		"trial_type": "survey-html-form",
		"trial_index": 18,
		"time_elapsed": 389371,
		"internal_node_id": "0.0-18.0"
	},
	{
		"rt": 7671,
		"response": {
			"dificuldade_visao_ou_audicao": "Não"
		},
		"question_order": [
			0
		],
		"trial_type": "survey-multi-choice",
		"trial_index": 19,
		"time_elapsed": 397153,
		"internal_node_id": "0.0-19.0"
	},
	{
		"rt": 9600,
		"response": {
			"detalhes_dificuldades_audicao_ou_visao": ""
		},
		"trial_type": "survey-text",
		"trial_index": 20,
		"time_elapsed": 406914,
		"internal_node_id": "0.0-20.0"
	},
	{
		"rt": 21298,
		"response": {
			"additional_info": ""
		},
		"trial_type": "survey-text",
		"trial_index": 21,
		"time_elapsed": 428322,
		"internal_node_id": "0.0-21.0"
	}
]