"view_history","rt","trial_type","trial_index","time_elapsed","internal_node_id","stimulus","response","class","status","answer","correct","trial","letters"
"[{""page_index"":0,""viewing_time"":3005}]","3005","instructions","0","3007","0.0-0.0","","","","","","","",""
"","null","html-keyboard-response","1","3625","0.0-1.0-0.0","+","null","","","","","",""
"","6414","html-keyboard-response","2","10040","0.0-1.0-1.0","oliva","s","null","cog","word","S","prac","null"
"","null","html-keyboard-response","3","10544","0.0-1.0-0.1","+","null","","","","","",""
"","798","html-keyboard-response","4","11343","0.0-1.0-1.1","daja","s","null","noncog","pseudo","N","prac","null"
"","null","html-keyboard-response","5","11851","0.0-1.0-0.2","+","null","","","","","",""
"","482","html-keyboard-response","6","12334","0.0-1.0-1.2","calmaria","s","null","noncog","word","S","prac","null"
"","null","html-keyboard-response","7","12842","0.0-1.0-0.3","+","null","","","","","",""
"","996","html-keyboard-response","8","13839","0.0-1.0-1.3","órgão","s","null","noncog","word","S","prac","null"
"","null","html-keyboard-response","9","14344","0.0-1.0-0.4","+","null","","","","","",""
"","238","html-keyboard-response","10","14583","0.0-1.0-1.4","crante","s","null","noncog","pseudo","N","prac","null"
"","null","html-keyboard-response","11","15093","0.0-1.0-0.5","+","null","","","","","",""
"","216","html-keyboard-response","12","15311","0.0-1.0-1.5","plibar","s","null","noncog","pseudo","N","prac","null"
"","null","html-keyboard-response","13","15812","0.0-1.0-0.6","+","null","","","","","",""
"","130","html-keyboard-response","14","15943","0.0-1.0-1.6","chassi","s","null","cog","word","S","prac","null"
"[{""page_index"":0,""viewing_time"":14024}]","14024","instructions","15","29968","0.0-2.0","","","","","","","",""
"","null","html-keyboard-response","16","30571","0.0-3.0-0.0","+","null","","","","","",""
"","59533","html-keyboard-response","17","90105","0.0-3.0-1.0","promeção","s","null","noncog","pseudo","N","exp","null"
"","null","html-keyboard-response","18","90607","0.0-3.0-0.1","+","null","","","","","",""
"","42087083","html-keyboard-response","19","42180776","0.0-3.0-1.1","dacada","s","null","noncog","pseudo","N","exp","null"
"","null","html-keyboard-response","20","42181285","0.0-3.0-0.2","+","null","","","","","",""
"","121","html-keyboard-response","21","42181407","0.0-3.0-1.2","senareta","s","null","noncog","pseudo","N","exp","null"
"","null","html-keyboard-response","22","42181922","0.0-3.0-0.3","+","null","","","","","",""
"","1813","html-keyboard-response","23","42183735","0.0-3.0-1.3","ofreta","s","null","noncog","pseudo","N","exp","null"
"","null","html-keyboard-response","24","42184237","0.0-3.0-0.4","+","null","","","","","",""
"","123","html-keyboard-response","25","42184361","0.0-3.0-1.4","oricia","s","null","noncog","pseudo","N","exp","null"
"","null","html-keyboard-response","26","42184875","0.0-3.0-0.5","+","null","","","","","",""
"","572","html-keyboard-response","27","42185448","0.0-3.0-1.5","vitrive","s","null","noncog","pseudo","N","exp","null"
"","null","html-keyboard-response","28","42185961","0.0-3.0-0.6","+","null","","","","","",""
"","430","html-keyboard-response","29","42186392","0.0-3.0-1.6","macras","s","null","noncog","pseudo","N","exp","null"
"","null","html-keyboard-response","30","42186903","0.0-3.0-0.7","+","null","","","","","",""
"","1136","html-keyboard-response","31","42188040","0.0-3.0-1.7","jantar","s","v","noncog","word","S","exp","6"
"","null","html-keyboard-response","32","42188548","0.0-3.0-0.8","+","null","","","","","",""
"","603","html-keyboard-response","33","42189152","0.0-3.0-1.8","rédesa","s","null","noncog","pseudo","N","exp","null"
"","null","html-keyboard-response","34","42189665","0.0-3.0-0.9","+","null","","","","","",""
"","246","html-keyboard-response","35","42189912","0.0-3.0-1.9","conjerto","s","null","noncog","pseudo","N","exp","null"
"","null","html-keyboard-response","36","42190416","0.0-3.0-0.10","+","null","","","","","",""
"","311","html-keyboard-response","37","42190728","0.0-3.0-1.10","cerca","s","n","noncog","word","S","exp","5"
"","null","html-keyboard-response","38","42191230","0.0-3.0-0.11","+","null","","","","","",""
"","353","html-keyboard-response","39","42191584","0.0-3.0-1.11","risbos","s","null","noncog","pseudo","N","exp","null"
"","null","html-keyboard-response","40","42192092","0.0-3.0-0.12","+","null","","","","","",""
"","299","html-keyboard-response","41","42192392","0.0-3.0-1.12","incomodar","s","v","noncog","word","S","exp","9"
"","null","html-keyboard-response","42","42192893","0.0-3.0-0.13","+","null","","","","","",""
"","394","html-keyboard-response","43","42193288","0.0-3.0-1.13","fratos","s","null","noncog","pseudo","N","exp","null"
"","null","html-keyboard-response","44","42193800","0.0-3.0-0.14","+","null","","","","","",""
"","215","html-keyboard-response","45","42194016","0.0-3.0-1.14","esperar","s","v","cog","word","S","exp","7"
"","null","html-keyboard-response","46","42194518","0.0-3.0-0.15","+","null","","","","","",""
"","545","html-keyboard-response","47","42195064","0.0-3.0-1.15","barco","s","n","cog","word","S","exp","5"
"","null","html-keyboard-response","48","42195572","0.0-3.0-0.16","+","null","","","","","",""
"","2675","html-keyboard-response","49","42198248","0.0-3.0-1.16","bracos","s","null","noncog","pseudo","N","exp","null"
"","null","html-keyboard-response","50","42198749","0.0-3.0-0.17","+","null","","","","","",""
"","314","html-keyboard-response","51","42199064","0.0-3.0-1.17","promessa","s","n","noncog","word","S","exp","8"
"","null","html-keyboard-response","52","42199578","0.0-3.0-0.18","+","null","","","","","",""
"","541","html-keyboard-response","53","42200120","0.0-3.0-1.18","trenos","s","null","noncog","pseudo","N","exp","null"
"","null","html-keyboard-response","54","42200633","0.0-3.0-0.19","+","null","","","","","",""
"","300273","html-keyboard-response","55","42500907","0.0-3.0-1.19","pedaço","s","n","noncog","word","S","exp","6"
"","null","html-keyboard-response","56","42501408","0.0-3.0-0.20","+","null","","","","","",""
"","288","html-keyboard-response","57","42501697","0.0-3.0-1.20","mania","s","n","cog","word","S","exp","5"
"","null","html-keyboard-response","58","42502198","0.0-3.0-0.21","+","null","","","","","",""
"","210","html-keyboard-response","59","42502409","0.0-3.0-1.21","prever","s","v","cog","word","S","exp","6"
"","null","html-keyboard-response","60","42502912","0.0-3.0-0.22","+","null","","","","","",""
"","57","html-keyboard-response","61","42502969","0.0-3.0-1.22","aitrou","s","null","noncog","pseudo","N","exp","null"
"","null","html-keyboard-response","62","42503470","0.0-3.0-0.23","+","null","","","","","",""
"","378","html-keyboard-response","63","42503849","0.0-3.0-1.23","avenas","s","null","noncog","pseudo","N","exp","null"
"","null","html-keyboard-response","64","42504351","0.0-3.0-0.24","+","null","","","","","",""
"","324805","html-keyboard-response","65","42829156","0.0-3.0-1.24","undivídio","s","null","noncog","pseudo","N","exp","null"
"","null","html-keyboard-response","66","42829657","0.0-3.0-0.25","+","null","","","","","",""
"","1201","html-keyboard-response","67","42830859","0.0-3.0-1.25","pimada","s","null","noncog","pseudo","N","exp","null"
"","null","html-keyboard-response","68","42831360","0.0-3.0-0.26","+","null","","","","","",""
"","131","html-keyboard-response","69","42831491","0.0-3.0-1.26","açúcar","s","n","noncog","word","S","exp","6"
"","null","html-keyboard-response","70","42832007","0.0-3.0-0.27","+","null","","","","","",""
"","476","html-keyboard-response","71","42832483","0.0-3.0-1.27","lagoa","s","n","cog","word","S","exp","5"
"","null","html-keyboard-response","72","42832985","0.0-3.0-0.28","+","null","","","","","",""
"","114","html-keyboard-response","73","42833099","0.0-3.0-1.28","tela","s","n","noncog","word","S","exp","4"
"","null","html-keyboard-response","74","42833600","0.0-3.0-0.29","+","null","","","","","",""
"","482","html-keyboard-response","75","42834083","0.0-3.0-1.29","pneucania","s","null","noncog","pseudo","N","exp","null"
"","null","html-keyboard-response","76","42834585","0.0-3.0-0.30","+","null","","","","","",""
"","2186","html-keyboard-response","77","42836771","0.0-3.0-1.30","manfa","s","null","noncog","pseudo","N","exp","null"
"","null","html-keyboard-response","78","42837273","0.0-3.0-0.31","+","null","","","","","",""
"","446089","html-keyboard-response","79","43283362","0.0-3.0-1.31","extravagante","s","a","cog","word","S","exp","12"
"","null","html-keyboard-response","80","43283866","0.0-3.0-0.32","+","null","","","","","",""
"","479","html-keyboard-response","81","43284345","0.0-3.0-1.32","plinta","s","null","noncog","pseudo","N","exp","null"
"","null","html-keyboard-response","82","43284847","0.0-3.0-0.33","+","null","","","","","",""
"","234","html-keyboard-response","83","43285081","0.0-3.0-1.33","mal","s","a","cog","word","S","exp","3"
"","null","html-keyboard-response","84","43285582","0.0-3.0-0.34","+","null","","","","","",""
"","2","html-keyboard-response","85","43285585","0.0-3.0-1.34","verdade","s","n","cog","word","S","exp","7"
"","null","html-keyboard-response","86","43286088","0.0-3.0-0.35","+","null","","","","","",""
"","289","html-keyboard-response","87","43286377","0.0-3.0-1.35","manais","s","null","noncog","pseudo","N","exp","null"
"","null","html-keyboard-response","88","43286878","0.0-3.0-0.36","+","null","","","","","",""
"","178","html-keyboard-response","89","43287057","0.0-3.0-1.36","liso","s","n","noncog","word","S","exp","4"
"","null","html-keyboard-response","90","43287560","0.0-3.0-0.37","+","null","","","","","",""
"","133686","html-keyboard-response","91","43421246","0.0-3.0-1.37","alfabeto","s","n","cog","word","S","exp","8"
"","null","html-keyboard-response","92","43421747","0.0-3.0-0.38","+","null","","","","","",""
"","73","html-keyboard-response","93","43421821","0.0-3.0-1.38","prenas","s","null","noncog","pseudo","N","exp","null"
"","null","html-keyboard-response","94","43422323","0.0-3.0-0.39","+","null","","","","","",""
"","82","html-keyboard-response","95","43422405","0.0-3.0-1.39","fasdas","s","null","noncog","pseudo","N","exp","null"
"","null","html-keyboard-response","96","43422906","0.0-3.0-0.40","+","null","","","","","",""
"","178","html-keyboard-response","97","43423085","0.0-3.0-1.40","reduzir","s","v","cog","word","S","exp","7"
"","null","html-keyboard-response","98","43423588","0.0-3.0-0.41","+","null","","","","","",""
"","217","html-keyboard-response","99","43423805","0.0-3.0-1.41","tio","s","n","noncog","word","S","exp","3"
"","null","html-keyboard-response","100","43424313","0.0-3.0-0.42","+","null","","","","","",""
"","35","html-keyboard-response","101","43424349","0.0-3.0-1.42","tronca","s","null","noncog","pseudo","N","exp","null"
"","null","html-keyboard-response","102","43424851","0.0-3.0-0.43","+","null","","","","","",""
"","146","html-keyboard-response","103","43424997","0.0-3.0-1.43","morija","s","null","noncog","pseudo","N","exp","null"
"","null","html-keyboard-response","104","43425499","0.0-3.0-0.44","+","null","","","","","",""
"","81","html-keyboard-response","105","43425581","0.0-3.0-1.44","aemaça","s","null","noncog","pseudo","N","exp","null"
"","null","html-keyboard-response","106","43426083","0.0-3.0-0.45","+","null","","","","","",""
"","18","html-keyboard-response","107","43426101","0.0-3.0-1.45","multiplicar","s","v","cog","word","S","exp","11"
"","null","html-keyboard-response","108","43426603","0.0-3.0-0.46","+","null","","","","","",""
"","58","html-keyboard-response","109","43426661","0.0-3.0-1.46","sintonizar","s","v","noncog","word","S","exp","10"
"","null","html-keyboard-response","110","43427163","0.0-3.0-0.47","+","null","","","","","",""
"","18","html-keyboard-response","111","43427181","0.0-3.0-1.47","ensuas","s","null","noncog","pseudo","N","exp","null"
"","null","html-keyboard-response","112","43427683","0.0-3.0-0.48","+","null","","","","","",""
"","434","html-keyboard-response","113","43428117","0.0-3.0-1.48","delirar","s","v","noncog","word","S","exp","7"
"","null","html-keyboard-response","114","43428620","0.0-3.0-0.49","+","null","","","","","",""
"","289","html-keyboard-response","115","43428909","0.0-3.0-1.49","motre","s","null","noncog","pseudo","N","exp","null"
"","null","html-keyboard-response","116","43429410","0.0-3.0-0.50","+","null","","","","","",""
"","58","html-keyboard-response","117","43429469","0.0-3.0-1.50","fino","s","a","cog","word","S","exp","4"
"","null","html-keyboard-response","118","43429971","0.0-3.0-0.51","+","null","","","","","",""
"","170","html-keyboard-response","119","43430141","0.0-3.0-1.51","oper","s","null","noncog","pseudo","N","exp","null"
"","null","html-keyboard-response","120","43430643","0.0-3.0-0.52","+","null","","","","","",""
"","218","html-keyboard-response","121","43430861","0.0-3.0-1.52","enxerido","s","a","noncog","word","S","exp","8"
"","null","html-keyboard-response","122","43431363","0.0-3.0-0.53","+","null","","","","","",""
"","410","html-keyboard-response","123","43431774","0.0-3.0-1.53","tatear","s","v","cog","word","S","exp","6"
"","null","html-keyboard-response","124","43432276","0.0-3.0-0.54","+","null","","","","","",""
"","449","html-keyboard-response","125","43432726","0.0-3.0-1.54","comércio","s","n","noncog","word","S","exp","8"
"","null","html-keyboard-response","126","43433227","0.0-3.0-0.55","+","null","","","","","",""
"","122","html-keyboard-response","127","43433350","0.0-3.0-1.55","bandido","s","n","cog","word","S","exp","7"
"","null","html-keyboard-response","128","43433851","0.0-3.0-0.56","+","null","","","","","",""
"","130","html-keyboard-response","129","43433982","0.0-3.0-1.56","ênclio","s","null","noncog","pseudo","N","exp","null"
"","null","html-keyboard-response","130","43434484","0.0-3.0-0.57","+","null","","","","","",""
"","161","html-keyboard-response","131","43434646","0.0-3.0-1.57","abieso","s","null","noncog","pseudo","N","exp","null"
"","null","html-keyboard-response","132","43435148","0.0-3.0-0.58","+","null","","","","","",""
"","449","html-keyboard-response","133","43435598","0.0-3.0-1.58","casuas","s","null","noncog","pseudo","N","exp","null"
"","null","html-keyboard-response","134","43436100","0.0-3.0-0.59","+","null","","","","","",""
"","2345","html-keyboard-response","135","43438446","0.0-3.0-1.59","disbrituir","s","null","noncog","pseudo","N","exp","null"
"","null","html-keyboard-response","136","43438947","0.0-3.0-0.60","+","null","","","","","",""
"","210","html-keyboard-response","137","43439158","0.0-3.0-1.60","pitada","s","n","noncog","word","S","exp","6"
"","null","html-keyboard-response","138","43439660","0.0-3.0-0.61","+","null","","","","","",""
"","385","html-keyboard-response","139","43440046","0.0-3.0-1.61","atapdar","s","null","noncog","pseudo","N","exp","null"
"","null","html-keyboard-response","140","43440548","0.0-3.0-0.62","+","null","","","","","",""
"","353","html-keyboard-response","141","43440902","0.0-3.0-1.62","dilheira","s","null","noncog","pseudo","N","exp","null"
"","null","html-keyboard-response","142","43441403","0.0-3.0-0.63","+","null","","","","","",""
"","2738","html-keyboard-response","143","43444142","0.0-3.0-1.63","motros","s","null","noncog","pseudo","N","exp","null"
"","null","html-keyboard-response","144","43444644","0.0-3.0-0.64","+","null","","","","","",""
"","169","html-keyboard-response","145","43444814","0.0-3.0-1.64","convidado","s","n","noncog","word","S","exp","9"
"","null","html-keyboard-response","146","43445316","0.0-3.0-0.65","+","null","","","","","",""
"","129","html-keyboard-response","147","43445446","0.0-3.0-1.65","francês","s","a","cog","word","S","exp","7"
"","null","html-keyboard-response","148","43445948","0.0-3.0-0.66","+","null","","","","","",""
"","337","html-keyboard-response","149","43446286","0.0-3.0-1.66","nivelado","s","a","cog","word","S","exp","8"
"","null","html-keyboard-response","150","43446787","0.0-3.0-0.67","+","null","","","","","",""
"","234","html-keyboard-response","151","43447022","0.0-3.0-1.67","loaco","s","null","noncog","pseudo","N","exp","null"
"","null","html-keyboard-response","152","43447525","0.0-3.0-0.68","+","null","","","","","",""
"","145","html-keyboard-response","153","43447670","0.0-3.0-1.68","crutas","s","null","noncog","pseudo","N","exp","null"
"","null","html-keyboard-response","154","43448171","0.0-3.0-0.69","+","null","","","","","",""
"","130","html-keyboard-response","155","43448302","0.0-3.0-1.69","nervoso","s","a","noncog","word","S","exp","7"
"","null","html-keyboard-response","156","43448804","0.0-3.0-0.70","+","null","","","","","",""
"","130","html-keyboard-response","157","43448934","0.0-3.0-1.70","aparme","s","null","noncog","pseudo","N","exp","null"
"","null","html-keyboard-response","158","43449435","0.0-3.0-0.71","+","null","","","","","",""
"","538","html-keyboard-response","159","43449974","0.0-3.0-1.71","taberia","s","null","noncog","pseudo","N","exp","null"
"","null","html-keyboard-response","160","43450475","0.0-3.0-0.72","+","null","","","","","",""
"","122","html-keyboard-response","161","43450598","0.0-3.0-1.72","distraído","s","a","cog","word","S","exp","9"
"","null","html-keyboard-response","162","43451099","0.0-3.0-0.73","+","null","","","","","",""
"","2363","html-keyboard-response","163","43453462","0.0-3.0-1.73","braras","s","null","noncog","pseudo","N","exp","null"
"","null","html-keyboard-response","164","43453965","0.0-3.0-0.74","+","null","","","","","",""
"","337","html-keyboard-response","165","43454303","0.0-3.0-1.74","cristal","s","n","cog","word","S","exp","7"
"","null","html-keyboard-response","166","43454804","0.0-3.0-0.75","+","null","","","","","",""
"","41","html-keyboard-response","167","43454846","0.0-3.0-1.75","socorro","s","n","noncog","word","S","exp","7"
"","null","html-keyboard-response","168","43455348","0.0-3.0-0.76","+","null","","","","","",""
"","986","html-keyboard-response","169","43456334","0.0-3.0-1.76","delomir","s","null","noncog","pseudo","N","exp","null"
"","null","html-keyboard-response","170","43456836","0.0-3.0-0.77","+","null","","","","","",""
"","1906","html-keyboard-response","171","43458742","0.0-3.0-1.77","tímido","s","a","cog","word","S","exp","6"
"","null","html-keyboard-response","172","43459245","0.0-3.0-0.78","+","null","","","","","",""
"","105","html-keyboard-response","173","43459350","0.0-3.0-1.78","ideisa","s","null","noncog","pseudo","N","exp","null"
"","null","html-keyboard-response","174","43459852","0.0-3.0-0.79","+","null","","","","","",""
"","49","html-keyboard-response","175","43459902","0.0-3.0-1.79","verceja","s","null","noncog","pseudo","N","exp","null"
"","null","html-keyboard-response","176","43460405","0.0-3.0-0.80","+","null","","","","","",""
"","65","html-keyboard-response","177","43460471","0.0-3.0-1.80","espionar","s","v","cog","word","S","exp","8"
"","null","html-keyboard-response","178","43460971","0.0-3.0-0.81","+","null","","","","","",""
"","1578","html-keyboard-response","179","43462551","0.0-3.0-1.81","frotes","s","null","noncog","pseudo","N","exp","null"
"","null","html-keyboard-response","180","43463052","0.0-3.0-0.82","+","null","","","","","",""
"","1258","html-keyboard-response","181","43464311","0.0-3.0-1.82","euorpa","s","null","noncog","pseudo","N","exp","null"
"","null","html-keyboard-response","182","43464812","0.0-3.0-0.83","+","null","","","","","",""
"","25","html-keyboard-response","183","43464839","0.0-3.0-1.83","grátis","s","a","cog","word","S","exp","6"
"","null","html-keyboard-response","184","43465341","0.0-3.0-0.84","+","null","","","","","",""
"","801","html-keyboard-response","185","43466143","0.0-3.0-1.84","afonher","s","null","noncog","pseudo","N","exp","null"
"","null","html-keyboard-response","186","43466644","0.0-3.0-0.85","+","null","","","","","",""
"","194","html-keyboard-response","187","43466839","0.0-3.0-1.85","destino","s","n","cog","word","S","exp","7"
"","null","html-keyboard-response","188","43467340","0.0-3.0-0.86","+","null","","","","","",""
"","1298","html-keyboard-response","189","43468639","0.0-3.0-1.86","país","s","n","noncog","word","S","exp","4"
"","null","html-keyboard-response","190","43469140","0.0-3.0-0.87","+","null","","","","","",""
"","2122","html-keyboard-response","191","43471263","0.0-3.0-1.87","cirado","s","null","noncog","pseudo","N","exp","null"
"","null","html-keyboard-response","192","43471764","0.0-3.0-0.88","+","null","","","","","",""
"","74","html-keyboard-response","193","43471839","0.0-3.0-1.88","ocinto","s","null","noncog","pseudo","N","exp","null"
"","null","html-keyboard-response","194","43472340","0.0-3.0-0.89","+","null","","","","","",""
"","7699","html-keyboard-response","195","43480039","0.0-3.0-1.89","papai","s","n","cog","word","S","exp","5"
"","null","html-keyboard-response","196","43480540","0.0-3.0-0.90","+","null","","","","","",""
"","8106","html-keyboard-response","197","43488647","0.0-3.0-1.90","nevela","s","null","noncog","pseudo","N","exp","null"
"","null","html-keyboard-response","198","43489150","0.0-3.0-0.91","+","null","","","","","",""
"","177","html-keyboard-response","199","43489327","0.0-3.0-1.91","sábio","s","n","noncog","word","S","exp","5"
"","null","html-keyboard-response","200","43489828","0.0-3.0-0.92","+","null","","","","","",""
"","162","html-keyboard-response","201","43489991","0.0-3.0-1.92","cenada","s","null","noncog","pseudo","N","exp","null"
"","null","html-keyboard-response","202","43490493","0.0-3.0-0.93","+","null","","","","","",""
"","66","html-keyboard-response","203","43490559","0.0-3.0-1.93","pantufa","s","n","cog","word","S","exp","7"
"","null","html-keyboard-response","204","43491060","0.0-3.0-0.94","+","null","","","","","",""
"","426","html-keyboard-response","205","43491487","0.0-3.0-1.94","franda","s","null","noncog","pseudo","N","exp","null"
"","null","html-keyboard-response","206","43491990","0.0-3.0-0.95","+","null","","","","","",""
"","329","html-keyboard-response","207","43492320","0.0-3.0-1.95","bachir","s","null","noncog","pseudo","N","exp","null"
"","null","html-keyboard-response","208","43492822","0.0-3.0-0.96","+","null","","","","","",""
"","297","html-keyboard-response","209","43493119","0.0-3.0-1.96","ilhure","s","null","noncog","pseudo","N","exp","null"
"","null","html-keyboard-response","210","43493620","0.0-3.0-0.97","+","null","","","","","",""
"","234","html-keyboard-response","211","43493855","0.0-3.0-1.97","perbas","s","null","noncog","pseudo","N","exp","null"
"","null","html-keyboard-response","212","43494357","0.0-3.0-0.98","+","null","","","","","",""
"","98","html-keyboard-response","213","43494455","0.0-3.0-1.98","nome","s","n","cog","word","S","exp","4"
"","null","html-keyboard-response","214","43494956","0.0-3.0-0.99","+","null","","","","","",""
"","498","html-keyboard-response","215","43495456","0.0-3.0-1.99","preferir","s","v","cog","word","S","exp","8"
"","null","html-keyboard-response","216","43495957","0.0-3.0-0.100","+","null","","","","","",""
"","122","html-keyboard-response","217","43496079","0.0-3.0-1.100","usnado","s","null","noncog","pseudo","N","exp","null"
"","null","html-keyboard-response","218","43496582","0.0-3.0-0.101","+","null","","","","","",""
"","184","html-keyboard-response","219","43496768","0.0-3.0-1.101","candifência","s","null","noncog","pseudo","N","exp","null"
"","null","html-keyboard-response","220","43497279","0.0-3.0-0.102","+","null","","","","","",""
"","167","html-keyboard-response","221","43497448","0.0-3.0-1.102","enxarto","s","null","noncog","pseudo","N","exp","null"
"","null","html-keyboard-response","222","43497950","0.0-3.0-0.103","+","null","","","","","",""
"","281","html-keyboard-response","223","43498232","0.0-3.0-1.103","adoçar","s","v","noncog","word","S","exp","6"
"","null","html-keyboard-response","224","43498733","0.0-3.0-0.104","+","null","","","","","",""
"","258","html-keyboard-response","225","43498992","0.0-3.0-1.104","ótimo","s","a","noncog","word","S","exp","5"
"","null","html-keyboard-response","226","43499503","0.0-3.0-0.105","+","null","","","","","",""
"","96","html-keyboard-response","227","43499600","0.0-3.0-1.105","temperar","s","v","noncog","word","S","exp","8"
"","null","html-keyboard-response","228","43500101","0.0-3.0-0.106","+","null","","","","","",""
"","26","html-keyboard-response","229","43500128","0.0-3.0-1.106","vervas","s","null","noncog","pseudo","N","exp","null"
"","null","html-keyboard-response","230","43500629","0.0-3.0-0.107","+","null","","","","","",""
"","146","html-keyboard-response","231","43500776","0.0-3.0-1.107","alpica","s","null","noncog","pseudo","N","exp","null"
"","null","html-keyboard-response","232","43501277","0.0-3.0-0.108","+","null","","","","","",""
"","98","html-keyboard-response","233","43501376","0.0-3.0-1.108","mua","s","null","noncog","pseudo","N","exp","null"
"","null","html-keyboard-response","234","43501877","0.0-3.0-0.109","+","null","","","","","",""
"","250","html-keyboard-response","235","43502128","0.0-3.0-1.109","azul","s","n","noncog","word","S","exp","4"
"","null","html-keyboard-response","236","43502629","0.0-3.0-0.110","+","null","","","","","",""
"","1651","html-keyboard-response","237","43504280","0.0-3.0-1.110","sanque","s","null","noncog","pseudo","N","exp","null"
"","null","html-keyboard-response","238","43504781","0.0-3.0-0.111","+","null","","","","","",""
"","18","html-keyboard-response","239","43504800","0.0-3.0-1.111","bibarconato","s","null","noncog","pseudo","N","exp","null"
"","null","html-keyboard-response","240","43505303","0.0-3.0-0.112","+","null","","","","","",""
"","721","html-keyboard-response","241","43506024","0.0-3.0-1.112","ronronar","s","v","cog","word","S","exp","8"
"","null","html-keyboard-response","242","43506525","0.0-3.0-0.113","+","null","","","","","",""
"","450","html-keyboard-response","243","43506976","0.0-3.0-1.113","enedro","s","null","noncog","pseudo","N","exp","null"
"","null","html-keyboard-response","244","43507477","0.0-3.0-0.114","+","null","","","","","",""
"","218","html-keyboard-response","245","43507696","0.0-3.0-1.114","planalto","s","n","cog","word","S","exp","8"
"","null","html-keyboard-response","246","43508198","0.0-3.0-0.115","+","null","","","","","",""
"","185","html-keyboard-response","247","43508384","0.0-3.0-1.115","garastia","s","null","noncog","pseudo","N","exp","null"
"","null","html-keyboard-response","248","43508886","0.0-3.0-0.116","+","null","","","","","",""
"","217","html-keyboard-response","249","43509104","0.0-3.0-1.116","especial","s","a","cog","word","S","exp","8"
"","null","html-keyboard-response","250","43509606","0.0-3.0-0.117","+","null","","","","","",""
"","201","html-keyboard-response","251","43509808","0.0-3.0-1.117","lorfaz","s","null","noncog","pseudo","N","exp","null"
"","null","html-keyboard-response","252","43510309","0.0-3.0-0.118","+","null","","","","","",""
"","331","html-keyboard-response","253","43510640","0.0-3.0-1.118","nacional","s","a","cog","word","S","exp","8"
"","null","html-keyboard-response","254","43511141","0.0-3.0-0.119","+","null","","","","","",""
"","186","html-keyboard-response","255","43511328","0.0-3.0-1.119","gruja","s","null","noncog","pseudo","N","exp","null"
"","null","html-keyboard-response","256","43511830","0.0-3.0-0.120","+","null","","","","","",""
"","138","html-keyboard-response","257","43511968","0.0-3.0-1.120","lagras","s","null","noncog","pseudo","N","exp","null"
"","null","html-keyboard-response","258","43512469","0.0-3.0-0.121","+","null","","","","","",""
"","234","html-keyboard-response","259","43512704","0.0-3.0-1.121","hipócrita","s","a","noncog","word","S","exp","9"
"","null","html-keyboard-response","260","43513206","0.0-3.0-0.122","+","null","","","","","",""
"","18","html-keyboard-response","261","43513224","0.0-3.0-1.122","independente","s","a","noncog","word","S","exp","12"
"","null","html-keyboard-response","262","43513726","0.0-3.0-0.123","+","null","","","","","",""
"","145","html-keyboard-response","263","43513872","0.0-3.0-1.123","espaço","s","n","cog","word","S","exp","6"
"","null","html-keyboard-response","264","43514375","0.0-3.0-0.124","+","null","","","","","",""
"","129","html-keyboard-response","265","43514504","0.0-3.0-1.124","podilo","s","null","noncog","pseudo","N","exp","null"
"","null","html-keyboard-response","266","43515006","0.0-3.0-0.125","+","null","","","","","",""
"","9","html-keyboard-response","267","43515016","0.0-3.0-1.125","pritas","s","null","noncog","pseudo","N","exp","null"
"","null","html-keyboard-response","268","43515518","0.0-3.0-0.126","+","null","","","","","",""
"","178","html-keyboard-response","269","43515696","0.0-3.0-1.126","revista","s","n","cog","word","S","exp","7"
"","null","html-keyboard-response","270","43516198","0.0-3.0-0.127","+","null","","","","","",""
"","153","html-keyboard-response","271","43516352","0.0-3.0-1.127","gertas","s","null","noncog","pseudo","N","exp","null"
"","null","html-keyboard-response","272","43516854","0.0-3.0-0.128","+","null","","","","","",""
"","10","html-keyboard-response","273","43516864","0.0-3.0-1.128","anjo","s","n","cog","word","S","exp","4"
"","null","html-keyboard-response","274","43517365","0.0-3.0-0.129","+","null","","","","","",""
"","34","html-keyboard-response","275","43517400","0.0-3.0-1.129","dipata","s","null","noncog","pseudo","N","exp","null"
"","null","html-keyboard-response","276","43517902","0.0-3.0-0.130","+","null","","","","","",""
"","98","html-keyboard-response","277","43518000","0.0-3.0-1.130","montanha","s","n","cog","word","S","exp","8"
"","null","html-keyboard-response","278","43518502","0.0-3.0-0.131","+","null","","","","","",""
"","153","html-keyboard-response","279","43518656","0.0-3.0-1.131","carona","s","n","noncog","word","S","exp","6"
"","null","html-keyboard-response","280","43519157","0.0-3.0-0.132","+","null","","","","","",""
"","243","html-keyboard-response","281","43519400","0.0-3.0-1.132","usfiga","s","null","noncog","pseudo","N","exp","null"
"","null","html-keyboard-response","282","43519902","0.0-3.0-0.133","+","null","","","","","",""
"","217","html-keyboard-response","283","43520120","0.0-3.0-1.133","pangos","s","null","noncog","pseudo","N","exp","null"
"","null","html-keyboard-response","284","43520622","0.0-3.0-0.134","+","null","","","","","",""
"","122","html-keyboard-response","285","43520745","0.0-3.0-1.134","bambu","s","n","cog","word","S","exp","5"
"","null","html-keyboard-response","286","43521246","0.0-3.0-0.135","+","null","","","","","",""
"","73","html-keyboard-response","287","43521320","0.0-3.0-1.135","irratinte","s","null","noncog","pseudo","N","exp","null"
"","null","html-keyboard-response","288","43521823","0.0-3.0-0.136","+","null","","","","","",""
"","185","html-keyboard-response","289","43522008","0.0-3.0-1.136","telefone","s","n","cog","word","S","exp","8"
"","null","html-keyboard-response","290","43522510","0.0-3.0-0.137","+","null","","","","","",""
"","33","html-keyboard-response","291","43522544","0.0-3.0-1.137","memória","s","n","cog","word","S","exp","7"
"","null","html-keyboard-response","292","43523046","0.0-3.0-0.138","+","null","","","","","",""
"","2","html-keyboard-response","293","43523049","0.0-3.0-1.138","deselegante","s","a","noncog","word","S","exp","11"
"","null","html-keyboard-response","294","43523552","0.0-3.0-0.139","+","null","","","","","",""
"","0","html-keyboard-response","295","43523553","0.0-3.0-1.139","matinal","s","a","cog","word","S","exp","7"
"","null","html-keyboard-response","296","43524054","0.0-3.0-0.140","+","null","","","","","",""
"","2","html-keyboard-response","297","43524057","0.0-3.0-1.140","afual","s","null","noncog","pseudo","N","exp","null"
"","null","html-keyboard-response","298","43524559","0.0-3.0-0.141","+","null","","","","","",""
"","193","html-keyboard-response","299","43524752","0.0-3.0-1.141","viver","s","v","cog","word","S","exp","5"
"","null","html-keyboard-response","300","43525253","0.0-3.0-0.142","+","null","","","","","",""
"","194","html-keyboard-response","301","43525448","0.0-3.0-1.142","agressivo","s","a","cog","word","S","exp","9"
"","null","html-keyboard-response","302","43525950","0.0-3.0-0.143","+","null","","","","","",""
"","178","html-keyboard-response","303","43526128","0.0-3.0-1.143","livro","s","n","cog","word","S","exp","5"
"","null","html-keyboard-response","304","43526629","0.0-3.0-0.144","+","null","","","","","",""
"","170","html-keyboard-response","305","43526800","0.0-3.0-1.144","drama","s","n","cog","word","S","exp","5"
"","null","html-keyboard-response","306","43527302","0.0-3.0-0.145","+","null","","","","","",""
"","234","html-keyboard-response","307","43527536","0.0-3.0-1.145","hébies","s","null","noncog","pseudo","N","exp","null"
"","null","html-keyboard-response","308","43528039","0.0-3.0-0.146","+","null","","","","","",""
"","25","html-keyboard-response","309","43528065","0.0-3.0-1.146","mabras","s","null","noncog","pseudo","N","exp","null"
"","null","html-keyboard-response","310","43528566","0.0-3.0-0.147","+","null","","","","","",""
"","18","html-keyboard-response","311","43528585","0.0-3.0-1.147","beima","s","null","noncog","pseudo","N","exp","null"
"","null","html-keyboard-response","312","43529086","0.0-3.0-0.148","+","null","","","","","",""
"","201","html-keyboard-response","313","43529289","0.0-3.0-1.148","esprotiar","s","null","noncog","pseudo","N","exp","null"
"","null","html-keyboard-response","314","43529791","0.0-3.0-0.149","+","null","","","","","",""
"","177","html-keyboard-response","315","43529969","0.0-3.0-1.149","dia","s","n","noncog","word","S","exp","3"
"","null","html-keyboard-response","316","43530470","0.0-3.0-0.150","+","null","","","","","",""
"","18","html-keyboard-response","317","43530489","0.0-3.0-1.150","salpicado","s","a","noncog","word","S","exp","9"
"","null","html-keyboard-response","318","43530991","0.0-3.0-0.151","+","null","","","","","",""
"","305","html-keyboard-response","319","43531297","0.0-3.0-1.151","suipestar","s","null","noncog","pseudo","N","exp","null"
"","null","html-keyboard-response","320","43531798","0.0-3.0-0.152","+","null","","","","","",""
"","250","html-keyboard-response","321","43532049","0.0-3.0-1.152","oecano","s","null","noncog","pseudo","N","exp","null"
"","null","html-keyboard-response","322","43532550","0.0-3.0-0.153","+","null","","","","","",""
"","10","html-keyboard-response","323","43532561","0.0-3.0-1.153","filosofia","s","n","cog","word","S","exp","9"
"","null","html-keyboard-response","324","43533062","0.0-3.0-0.154","+","null","","","","","",""
"","2","html-keyboard-response","325","43533065","0.0-3.0-1.154","grótis","s","null","noncog","pseudo","N","exp","null"
"","null","html-keyboard-response","326","43533567","0.0-3.0-0.155","+","null","","","","","",""
"","577","html-keyboard-response","327","43534145","0.0-3.0-1.155","burtos","s","null","noncog","pseudo","N","exp","null"
"","null","html-keyboard-response","328","43534646","0.0-3.0-0.156","+","null","","","","","",""
"","346","html-keyboard-response","329","43534993","0.0-3.0-1.156","fogão","s","n","noncog","word","S","exp","5"
"","null","html-keyboard-response","330","43535493","0.0-3.0-0.157","+","null","","","","","",""
"","234","html-keyboard-response","331","43535729","0.0-3.0-1.157","brincar","s","v","noncog","word","S","exp","7"
"","null","html-keyboard-response","332","43536230","0.0-3.0-0.158","+","null","","","","","",""
"","154","html-keyboard-response","333","43536385","0.0-3.0-1.158","boreta","s","null","noncog","pseudo","N","exp","null"
"","null","html-keyboard-response","334","43536886","0.0-3.0-0.159","+","null","","","","","",""
"","258","html-keyboard-response","335","43537145","0.0-3.0-1.159","mudança","s","n","noncog","word","S","exp","7"
"","null","html-keyboard-response","336","43537646","0.0-3.0-0.160","+","null","","","","","",""
"","170","html-keyboard-response","337","43537817","0.0-3.0-1.160","propaganda","s","n","cog","word","S","exp","10"
"","null","html-keyboard-response","338","43538318","0.0-3.0-0.161","+","null","","","","","",""
"","162","html-keyboard-response","339","43538481","0.0-3.0-1.161","traduzir","s","v","cog","word","S","exp","8"
"","null","html-keyboard-response","340","43538982","0.0-3.0-0.162","+","null","","","","","",""
"","170","html-keyboard-response","341","43539153","0.0-3.0-1.162","cravo","s","n","noncog","word","S","exp","5"
"","null","html-keyboard-response","342","43539654","0.0-3.0-0.163","+","null","","","","","",""
"","210","html-keyboard-response","343","43539865","0.0-3.0-1.163","apontar","s","v","noncog","word","S","exp","7"
"","null","html-keyboard-response","344","43540366","0.0-3.0-0.164","+","null","","","","","",""
"","138","html-keyboard-response","345","43540505","0.0-3.0-1.164","carro","s","n","noncog","word","S","exp","5"
"","null","html-keyboard-response","346","43541006","0.0-3.0-0.165","+","null","","","","","",""
"","74","html-keyboard-response","347","43541081","0.0-3.0-1.165","verde","s","a","noncog","word","S","exp","5"
"","null","html-keyboard-response","348","43541583","0.0-3.0-0.166","+","null","","","","","",""
"","177","html-keyboard-response","349","43541761","0.0-3.0-1.166","berquesa","s","null","noncog","pseudo","N","exp","null"
"","null","html-keyboard-response","350","43542262","0.0-3.0-0.167","+","null","","","","","",""
"","18","html-keyboard-response","351","43542281","0.0-3.0-1.167","glória","s","n","cog","word","S","exp","6"
"","null","html-keyboard-response","352","43542783","0.0-3.0-0.168","+","null","","","","","",""
"","169","html-keyboard-response","353","43542953","0.0-3.0-1.168","esfoce","s","null","noncog","pseudo","N","exp","null"
"","null","html-keyboard-response","354","43543455","0.0-3.0-0.169","+","null","","","","","",""
"","153","html-keyboard-response","355","43543609","0.0-3.0-1.169","fofo","s","a","noncog","word","S","exp","4"
"","null","html-keyboard-response","356","43544111","0.0-3.0-0.170","+","null","","","","","",""
"","193","html-keyboard-response","357","43544305","0.0-3.0-1.170","refletir","s","v","cog","word","S","exp","8"
"","null","html-keyboard-response","358","43544806","0.0-3.0-0.171","+","null","","","","","",""
"","146","html-keyboard-response","359","43544953","0.0-3.0-1.171","lapestra","s","null","noncog","pseudo","N","exp","null"
"","null","html-keyboard-response","360","43545455","0.0-3.0-0.172","+","null","","","","","",""
"","129","html-keyboard-response","361","43545585","0.0-3.0-1.172","perdão","s","n","noncog","word","S","exp","6"
"","null","html-keyboard-response","362","43546087","0.0-3.0-0.173","+","null","","","","","",""
"","121","html-keyboard-response","363","43546209","0.0-3.0-1.173","crolatário","s","null","noncog","pseudo","N","exp","null"
"","null","html-keyboard-response","364","43546711","0.0-3.0-0.174","+","null","","","","","",""
"","169","html-keyboard-response","365","43546881","0.0-3.0-1.174","parceter","s","null","noncog","pseudo","N","exp","null"
"","null","html-keyboard-response","366","43547382","0.0-3.0-0.175","+","null","","","","","",""
"","10","html-keyboard-response","367","43547393","0.0-3.0-1.175","quenzina","s","null","noncog","pseudo","N","exp","null"
"","null","html-keyboard-response","368","43547895","0.0-3.0-0.176","+","null","","","","","",""
"","233","html-keyboard-response","369","43548129","0.0-3.0-1.176","espinho","s","n","noncog","word","S","exp","7"
"","null","html-keyboard-response","370","43548631","0.0-3.0-0.177","+","null","","","","","",""
"","137","html-keyboard-response","371","43548769","0.0-3.0-1.177","árovre","s","null","noncog","pseudo","N","exp","null"
"","null","html-keyboard-response","372","43549270","0.0-3.0-0.178","+","null","","","","","",""
"","186","html-keyboard-response","373","43549457","0.0-3.0-1.178","bagunceira","s","a","noncog","word","S","exp","10"
"","null","html-keyboard-response","374","43549959","0.0-3.0-0.179","+","null","","","","","",""
"","161","html-keyboard-response","375","43550121","0.0-3.0-1.179","instruído","s","a","noncog","word","S","exp","9"
"","null","html-keyboard-response","376","43550624","0.0-3.0-0.180","+","null","","","","","",""
"","136","html-keyboard-response","377","43550761","0.0-3.0-1.180","trabalhar","s","v","noncog","word","S","exp","9"
"","null","html-keyboard-response","378","43551262","0.0-3.0-0.181","+","null","","","","","",""
"","114","html-keyboard-response","379","43551377","0.0-3.0-1.181","tênis","s","n","cog","word","S","exp","5"
"","null","html-keyboard-response","380","43551879","0.0-3.0-0.182","+","null","","","","","",""
"","177","html-keyboard-response","381","43552057","0.0-3.0-1.182","costra","s","null","noncog","pseudo","N","exp","null"
"","null","html-keyboard-response","382","43552559","0.0-3.0-0.183","+","null","","","","","",""
"","193","html-keyboard-response","383","43552753","0.0-3.0-1.183","filme","s","n","cog","word","S","exp","5"
"","null","html-keyboard-response","384","43553255","0.0-3.0-0.184","+","null","","","","","",""
"","162","html-keyboard-response","385","43553417","0.0-3.0-1.184","bancada","s","n","noncog","word","S","exp","7"
"","null","html-keyboard-response","386","43553918","0.0-3.0-0.185","+","null","","","","","",""
"","154","html-keyboard-response","387","43554073","0.0-3.0-1.185","faínas","s","null","noncog","pseudo","N","exp","null"
"","null","html-keyboard-response","388","43554576","0.0-3.0-0.186","+","null","","","","","",""
"","1297","html-keyboard-response","389","43555873","0.0-3.0-1.186","raspar","s","v","noncog","word","S","exp","6"
"","null","html-keyboard-response","390","43556376","0.0-3.0-0.187","+","null","","","","","",""
"","281","html-keyboard-response","391","43556657","0.0-3.0-1.187","melão","s","n","cog","word","S","exp","5"
"","null","html-keyboard-response","392","43557160","0.0-3.0-0.188","+","null","","","","","",""
"","217","html-keyboard-response","393","43557377","0.0-3.0-1.188","tartos","s","null","noncog","pseudo","N","exp","null"
"","null","html-keyboard-response","394","43557878","0.0-3.0-0.189","+","null","","","","","",""
"","18","html-keyboard-response","395","43557897","0.0-3.0-1.189","medalha","s","n","cog","word","S","exp","7"
"","null","html-keyboard-response","396","43558399","0.0-3.0-0.190","+","null","","","","","",""
"","570","html-keyboard-response","397","43558969","0.0-3.0-1.190","dencosto","s","null","noncog","pseudo","N","exp","null"
"","null","html-keyboard-response","398","43559470","0.0-3.0-0.191","+","null","","","","","",""
"","179","html-keyboard-response","399","43559649","0.0-3.0-1.191","âgnulo","s","null","noncog","pseudo","N","exp","null"
"","null","html-keyboard-response","400","43560152","0.0-3.0-0.192","+","null","","","","","",""
"","169","html-keyboard-response","401","43560321","0.0-3.0-1.192","aletiê","s","null","noncog","pseudo","N","exp","null"
"","null","html-keyboard-response","402","43560823","0.0-3.0-0.193","+","null","","","","","",""
"","490","html-keyboard-response","403","43561314","0.0-3.0-1.193","grave","s","a","cog","word","S","exp","5"
"","null","html-keyboard-response","404","43561815","0.0-3.0-0.194","+","null","","","","","",""
"","41","html-keyboard-response","405","43561857","0.0-3.0-1.194","gordo","s","a","noncog","word","S","exp","5"
"","null","html-keyboard-response","406","43562359","0.0-3.0-0.195","+","null","","","","","",""
"","2","html-keyboard-response","407","43562362","0.0-3.0-1.195","civil","s","a","cog","word","S","exp","5"
"","null","html-keyboard-response","408","43562865","0.0-3.0-0.196","+","null","","","","","",""
"","176","html-keyboard-response","409","43563042","0.0-3.0-1.196","trair","s","v","cog","word","S","exp","5"
"","null","html-keyboard-response","410","43563543","0.0-3.0-0.197","+","null","","","","","",""
"","234","html-keyboard-response","411","43563778","0.0-3.0-1.197","selir","s","null","noncog","pseudo","N","exp","null"
"","null","html-keyboard-response","412","43564279","0.0-3.0-0.198","+","null","","","","","",""
"","154","html-keyboard-response","413","43564434","0.0-3.0-1.198","chorão","s","a","noncog","word","S","exp","6"
"","null","html-keyboard-response","414","43564935","0.0-3.0-0.199","+","null","","","","","",""
"","138","html-keyboard-response","415","43565074","0.0-3.0-1.199","prantal","s","null","noncog","pseudo","N","exp","null"
"","null","html-keyboard-response","416","43565577","0.0-3.0-0.200","+","null","","","","","",""
"","416","html-keyboard-response","417","43565994","0.0-3.0-1.200","agravar","s","v","cog","word","S","exp","7"
"","null","html-keyboard-response","418","43566496","0.0-3.0-0.201","+","null","","","","","",""
"","2057","html-keyboard-response","419","43568554","0.0-3.0-1.201","carregar","s","v","noncog","word","S","exp","8"
"","null","html-keyboard-response","420","43569055","0.0-3.0-0.202","+","null","","","","","",""
"","330","html-keyboard-response","421","43569386","0.0-3.0-1.202","aivões","s","null","noncog","pseudo","N","exp","null"
"","null","html-keyboard-response","422","43569888","0.0-3.0-0.203","+","null","","","","","",""
"","177","html-keyboard-response","423","43570066","0.0-3.0-1.203","areia","s","n","noncog","word","S","exp","5"
"","null","html-keyboard-response","424","43570567","0.0-3.0-0.204","+","null","","","","","",""
"","26","html-keyboard-response","425","43570594","0.0-3.0-1.204","cápsula","s","n","noncog","word","S","exp","7"
"","null","html-keyboard-response","426","43571095","0.0-3.0-0.205","+","null","","","","","",""
"","298","html-keyboard-response","427","43571394","0.0-3.0-1.205","liberal","s","a","cog","word","S","exp","7"
"","null","html-keyboard-response","428","43571896","0.0-3.0-0.206","+","null","","","","","",""
"","305","html-keyboard-response","429","43572202","0.0-3.0-1.206","orupas","s","null","noncog","pseudo","N","exp","null"
"","null","html-keyboard-response","430","43572703","0.0-3.0-0.207","+","null","","","","","",""
"","90","html-keyboard-response","431","43572794","0.0-3.0-1.207","animado","s","a","noncog","word","S","exp","7"
"","null","html-keyboard-response","432","43573295","0.0-3.0-0.208","+","null","","","","","",""
"","26","html-keyboard-response","433","43573322","0.0-3.0-1.208","pega-pega","s","n","noncog","word","S","exp","8"
"","null","html-keyboard-response","434","43573823","0.0-3.0-0.209","+","null","","","","","",""
"","354","html-keyboard-response","435","43574178","0.0-3.0-1.209","aperor","s","null","noncog","pseudo","N","exp","null"
"","null","html-keyboard-response","436","43574681","0.0-3.0-0.210","+","null","","","","","",""
"","153","html-keyboard-response","437","43574834","0.0-3.0-1.210","cascata","s","n","noncog","word","S","exp","7"
"","null","html-keyboard-response","438","43575336","0.0-3.0-0.211","+","null","","","","","",""
"","177","html-keyboard-response","439","43575514","0.0-3.0-1.211","sustentar","s","v","noncog","word","S","exp","9"
"","null","html-keyboard-response","440","43576017","0.0-3.0-0.212","+","null","","","","","",""
"","1145","html-keyboard-response","441","43577162","0.0-3.0-1.212","imitar","s","v","cog","word","S","exp","6"
"","null","html-keyboard-response","442","43577663","0.0-3.0-0.213","+","null","","","","","",""
"","514","html-keyboard-response","443","43578178","0.0-3.0-1.213","arranjar","s","v","cog","word","S","exp","8"
"","null","html-keyboard-response","444","43578681","0.0-3.0-0.214","+","null","","","","","",""
"","137","html-keyboard-response","445","43578818","0.0-3.0-1.214","farcas","s","null","noncog","pseudo","N","exp","null"
"","null","html-keyboard-response","446","43579319","0.0-3.0-0.215","+","null","","","","","",""
"","170","html-keyboard-response","447","43579490","0.0-3.0-1.215","detative","s","null","noncog","pseudo","N","exp","null"
"","null","html-keyboard-response","448","43579992","0.0-3.0-0.216","+","null","","","","","",""
"","82","html-keyboard-response","449","43580074","0.0-3.0-1.216","gilha","s","null","noncog","pseudo","N","exp","null"
"","null","html-keyboard-response","450","43580575","0.0-3.0-0.217","+","null","","","","","",""
"","162","html-keyboard-response","451","43580738","0.0-3.0-1.217","fusbão","s","null","noncog","pseudo","N","exp","null"
"","null","html-keyboard-response","452","43581240","0.0-3.0-0.218","+","null","","","","","",""
"","1794","html-keyboard-response","453","43583035","0.0-3.0-1.218","hedoru","s","null","noncog","pseudo","N","exp","null"
"","null","html-keyboard-response","454","43583536","0.0-3.0-0.219","+","null","","","","","",""
"","66","html-keyboard-response","455","43583602","0.0-3.0-1.219","jastor","s","null","noncog","pseudo","N","exp","null"
"","null","html-keyboard-response","456","43584103","0.0-3.0-0.220","+","null","","","","","",""
"","50","html-keyboard-response","457","43584154","0.0-3.0-1.220","protas","s","null","noncog","pseudo","N","exp","null"
"","null","html-keyboard-response","458","43584656","0.0-3.0-0.221","+","null","","","","","",""
"","514","html-keyboard-response","459","43585170","0.0-3.0-1.221","dobradiça","s","n","noncog","word","S","exp","9"
"","null","html-keyboard-response","460","43585671","0.0-3.0-0.222","+","null","","","","","",""
"","202","html-keyboard-response","461","43585874","0.0-3.0-1.222","morar","s","v","noncog","word","S","exp","5"
"","null","html-keyboard-response","462","43586376","0.0-3.0-0.223","+","null","","","","","",""
"","162","html-keyboard-response","463","43586538","0.0-3.0-1.223","terdia","s","null","noncog","pseudo","N","exp","null"
"","null","html-keyboard-response","464","43587039","0.0-3.0-0.224","+","null","","","","","",""
"","418","html-keyboard-response","465","43587458","0.0-3.0-1.224","ejerro","s","null","noncog","pseudo","N","exp","null"
"","null","html-keyboard-response","466","43587960","0.0-3.0-0.225","+","null","","","","","",""
"","441","html-keyboard-response","467","43588402","0.0-3.0-1.225","uchães","s","null","noncog","pseudo","N","exp","null"
"","null","html-keyboard-response","468","43588905","0.0-3.0-0.226","+","null","","","","","",""
"","129","html-keyboard-response","469","43589034","0.0-3.0-1.226","atitro","s","null","noncog","pseudo","N","exp","null"
"","null","html-keyboard-response","470","43589536","0.0-3.0-0.227","+","null","","","","","",""
"","169","html-keyboard-response","471","43589706","0.0-3.0-1.227","resmungar","s","v","noncog","word","S","exp","9"
"","null","html-keyboard-response","472","43590209","0.0-3.0-0.228","+","null","","","","","",""
"","241","html-keyboard-response","473","43590450","0.0-3.0-1.228","morno","s","a","noncog","word","S","exp","5"
"","null","html-keyboard-response","474","43590952","0.0-3.0-0.229","+","null","","","","","",""
"","178","html-keyboard-response","475","43591130","0.0-3.0-1.229","tinta","s","n","cog","word","S","exp","5"
"","null","html-keyboard-response","476","43591633","0.0-3.0-0.230","+","null","","","","","",""
"","297","html-keyboard-response","477","43591930","0.0-3.0-1.230","telafonir","s","null","noncog","pseudo","N","exp","null"
"","null","html-keyboard-response","478","43592433","0.0-3.0-0.231","+","null","","","","","",""
"","6609","html-keyboard-response","479","43599043","0.0-3.0-1.231","pulmão","s","n","noncog","word","S","exp","6"
"","null","html-keyboard-response","480","43599546","0.0-3.0-0.232","+","null","","","","","",""
"","0","html-keyboard-response","481","43599547","0.0-3.0-1.232","cinema","s","n","cog","word","S","exp","6"
"","null","html-keyboard-response","482","43600049","0.0-3.0-0.233","+","null","","","","","",""
"","193","html-keyboard-response","483","43600243","0.0-3.0-1.233","rovaz","s","null","noncog","pseudo","N","exp","null"
"","null","html-keyboard-response","484","43600745","0.0-3.0-0.234","+","null","","","","","",""
"","177","html-keyboard-response","485","43600923","0.0-3.0-1.234","atrasar","s","v","noncog","word","S","exp","7"
"","null","html-keyboard-response","486","43601424","0.0-3.0-0.235","+","null","","","","","",""
"","3490","html-keyboard-response","487","43604915","0.0-3.0-1.235","uçar","s","null","noncog","pseudo","N","exp","null"
"","null","html-keyboard-response","488","43605416","0.0-3.0-0.236","+","null","","","","","",""
"","26","html-keyboard-response","489","43605443","0.0-3.0-1.236","revear","s","null","noncog","pseudo","N","exp","null"
"","null","html-keyboard-response","490","43605945","0.0-3.0-0.237","+","null","","","","","",""
"","161","html-keyboard-response","491","43606107","0.0-3.0-1.237","encelhor","s","null","noncog","pseudo","N","exp","null"
"","null","html-keyboard-response","492","43606609","0.0-3.0-0.238","+","null","","","","","",""
"","1081","html-keyboard-response","493","43607691","0.0-3.0-1.238","chato","s","n","noncog","word","S","exp","5"
"","null","html-keyboard-response","494","43608192","0.0-3.0-0.239","+","null","","","","","",""
"","30059","html-keyboard-response","495","43638252","0.0-3.0-1.239","escumo","s","null","noncog","pseudo","N","exp","null"
