"view_history","rt","trial_type","trial_index","time_elapsed","internal_node_id","stimulus","response","portuguese","kreyol"
"[{""page_index"":0,""viewing_time"":3931}]","3931","instructions","0","3932","0.0-0.0","","","",""
"","null","html-keyboard-response","1","4542","0.0-1.0-0.0","+","null","",""
"","7269","audio-keyboard-response","2","11862","0.0-1.0-1.0","../audio/teste-vocab--41.mp3","s","médico","doktè,"
"","null","html-keyboard-response","3","12370","0.0-1.0-0.1","+","null","",""
"","9720","audio-keyboard-response","4","22139","0.0-1.0-1.1","../audio/teste-vocab--105.mp3","s","cítrico","sitrik"
"","null","html-keyboard-response","5","22655","0.0-1.0-0.2","+","null","",""
"","3781","audio-keyboard-response","6","26487","0.0-1.0-1.2","../audio/teste-vocab--123.mp3","n","emissão","emisyon"
"","null","html-keyboard-response","7","27002","0.0-1.0-0.3","+","null","",""
"","2701","audio-keyboard-response","8","29916","0.0-1.0-1.3","../audio/teste-vocab--67.mp3","s","corrimão","ranp"
"","null","html-keyboard-response","9","30425","0.0-1.0-0.4","+","null","",""
"","3440","audio-keyboard-response","10","33976","0.0-1.0-1.4","../audio/teste-vocab--110.mp3","n","prodígio","pwodij"
"","null","html-keyboard-response","11","34483","0.0-1.0-0.5","+","null","",""
"","5291","audio-keyboard-response","12","39830","0.0-1.0-1.5","../audio/teste-vocab--85.mp3","s","trio","trio"
"","null","html-keyboard-response","13","40338","0.0-1.0-0.6","+","null","",""
"","3189","audio-keyboard-response","14","43704","0.0-1.0-1.6","../audio/teste-vocab--60.mp3","n","secretaria","sekretè"
"","null","html-keyboard-response","15","44212","0.0-1.0-0.7","+","null","",""
"","5232","audio-keyboard-response","16","49571","0.0-1.0-1.7","../audio/teste-vocab--124.mp3","n","obelisco","obelisk"
"","null","html-keyboard-response","17","50082","0.0-1.0-0.8","+","null","",""
"","7229","audio-keyboard-response","18","57429","0.0-1.0-1.8","../audio/teste-vocab--111.mp3","s","jubilosa","rejwisans"
"","null","html-keyboard-response","19","57935","0.0-1.0-0.9","+","null","",""
"","9960","audio-keyboard-response","20","68244","0.0-1.0-1.9","../audio/teste-vocab--72.mp3","s","ilha","zile"
"","null","html-keyboard-response","21","68756","0.0-1.0-0.10","+","null","",""
"","3648","audio-keyboard-response","22","72539","0.0-1.0-1.10","../audio/teste-vocab--118.mp3","s","paralelogramo","paralelogram"
"","null","html-keyboard-response","23","73054","0.0-1.0-0.11","+","null","",""
"","1931","audio-keyboard-response","24","75156","0.0-1.0-1.11","../audio/teste-vocab--55.mp3","s","bosque","forè"
"","null","html-keyboard-response","25","75659","0.0-1.0-0.12","+","null","",""
"","2189","audio-keyboard-response","26","78058","0.0-1.0-1.12","../audio/teste-vocab--113.mp3","s","ascender","limen"
"","null","html-keyboard-response","27","78568","0.0-1.0-0.13","+","null","",""
"","2440","audio-keyboard-response","28","81577","0.0-1.0-1.13","../audio/teste-vocab--09.mp3","s","vela","bouji"
"","null","html-keyboard-response","29","82081","0.0-1.0-0.14","+","null","",""
"","1811","audio-keyboard-response","30","84031","0.0-1.0-1.14","../audio/teste-vocab--24.mp3","s","acidente","aksidan"
"","null","html-keyboard-response","31","84542","0.0-1.0-0.15","+","null","",""
"","3072","audio-keyboard-response","32","87850","0.0-1.0-1.15","../audio/teste-vocab--80.mp3","s","binóculo","longvi"
"","null","html-keyboard-response","33","88361","0.0-1.0-0.16","+","null","",""
"","1939","audio-keyboard-response","34","90433","0.0-1.0-1.16","../audio/teste-vocab--87.mp3","s","ave","zwazo"
"","null","html-keyboard-response","35","90936","0.0-1.0-0.17","+","null","",""
"","2560","audio-keyboard-response","36","93639","0.0-1.0-1.17","../audio/teste-vocab--36.mp3","s","grupo","gwoup"
"","null","html-keyboard-response","37","94141","0.0-1.0-0.18","+","null","",""
"","2240","audio-keyboard-response","38","96514","0.0-1.0-1.18","../audio/teste-vocab--125.mp3","s","lamaçal","labou"
"","null","html-keyboard-response","39","97028","0.0-1.0-0.19","+","null","",""
"","1901","audio-keyboard-response","40","99056","0.0-1.0-1.19","../audio/teste-vocab--15.mp3","s","flecha","flèch"
"","null","html-keyboard-response","41","99562","0.0-1.0-0.20","+","null","",""
"","1872","audio-keyboard-response","42","101486","0.0-1.0-1.20","../audio/teste-vocab--14.mp3","s","ler","li"
"","null","html-keyboard-response","43","101988","0.0-1.0-0.21","+","null","",""
"","1979","audio-keyboard-response","44","104019","0.0-1.0-1.21","../audio/teste-vocab--102.mp3","s","arrogante","arogan"
"","null","html-keyboard-response","45","104531","0.0-1.0-0.22","+","null","",""
"","1440","audio-keyboard-response","46","106043","0.0-1.0-1.22","../audio/teste-vocab--18.mp3","s","abelha","myèl"
"","null","html-keyboard-response","47","106555","0.0-1.0-0.23","+","null","",""
"","2139","audio-keyboard-response","48","108829","0.0-1.0-1.23","../audio/teste-vocab--94.mp3","s","paralelo","paralèl"
"","null","html-keyboard-response","49","109335","0.0-1.0-0.24","+","null","",""
"","1771","audio-keyboard-response","50","111359","0.0-1.0-1.24","../audio/teste-vocab--03.mp3","s","balançar","balanse"
"","null","html-keyboard-response","51","111872","0.0-1.0-0.25","+","null","",""
"","1648","audio-keyboard-response","52","113579","0.0-1.0-1.25","../audio/teste-vocab--27.mp3","s","rio","rivyè"
"","null","html-keyboard-response","53","114094","0.0-1.0-0.26","+","null","",""
"","1491","audio-keyboard-response","54","115807","0.0-1.0-1.26","../audio/teste-vocab--07.mp3","s","abajur","lanp"
"","null","html-keyboard-response","55","116320","0.0-1.0-0.27","+","null","",""
"","1819","audio-keyboard-response","56","118194","0.0-1.0-1.27","../audio/teste-vocab--95.mp3","s","submergir","plonje"
"","null","html-keyboard-response","57","118700","0.0-1.0-0.28","+","null","",""
"","1611","audio-keyboard-response","58","120666","0.0-1.0-1.28","../audio/teste-vocab--98.mp3","s","instruir","enstwi"
"","null","html-keyboard-response","59","121174","0.0-1.0-0.29","+","null","",""
"","17181","audio-keyboard-response","60","138440","0.0-1.0-1.29","../audio/teste-vocab--70.mp3","n","funil","antónwa"
"","null","html-keyboard-response","61","138946","0.0-1.0-0.30","+","null","",""
"","5680","audio-keyboard-response","62","144725","0.0-1.0-1.30","../audio/teste-vocab--99.mp3","n","arqueólogo","akeyológ"
"","null","html-keyboard-response","63","145235","0.0-1.0-0.31","+","null","",""
"","3000","audio-keyboard-response","64","148299","0.0-1.0-1.31","../audio/teste-vocab--34.mp3","n","tronco","twon"
"","null","html-keyboard-response","65","148810","0.0-1.0-0.32","+","null","",""
"","4400","audio-keyboard-response","66","153405","0.0-1.0-1.32","../audio/teste-vocab--109.mp3","n","anfíbio","anfibyen"
"","null","html-keyboard-response","67","153920","0.0-1.0-0.33","+","null","",""
"","2488","audio-keyboard-response","68","156502","0.0-1.0-1.33","../audio/teste-vocab--65.mp3","s","discussão","diskisyon"
"","null","html-keyboard-response","69","157014","0.0-1.0-0.34","+","null","",""
"","1440","audio-keyboard-response","70","158554","0.0-1.0-1.34","../audio/teste-vocab--59.mp3","s","par","pè"
"","null","html-keyboard-response","71","159056","0.0-1.0-0.35","+","null","",""
"","6928","audio-keyboard-response","72","166102","0.0-1.0-1.35","../audio/teste-vocab--69.mp3","n","pingar","degoute"
"","null","html-keyboard-response","73","166607","0.0-1.0-0.36","+","null","",""
"","1731","audio-keyboard-response","74","168386","0.0-1.0-1.36","../audio/teste-vocab--68.mp3","s","surpreendido","sezi"
"","null","html-keyboard-response","75","168899","0.0-1.0-0.37","+","null","",""
"","1752","audio-keyboard-response","76","170695","0.0-1.0-1.37","../audio/teste-vocab--39.mp3","s","cobra","koulèv"
"","null","html-keyboard-response","77","171211","0.0-1.0-0.38","+","null","",""
"","1960","audio-keyboard-response","78","173250","0.0-1.0-1.38","../audio/teste-vocab--121.mp3","s","atônito","sezi"
"","null","html-keyboard-response","79","173766","0.0-1.0-0.39","+","null","",""
"","1928","audio-keyboard-response","80","175741","0.0-1.0-1.39","../audio/teste-vocab--82.mp3","s","roer","ronje"
"","null","html-keyboard-response","81","176246","0.0-1.0-0.40","+","null","",""
"","1739","audio-keyboard-response","82","178027","0.0-1.0-1.40","../audio/teste-vocab--90.mp3","s","carniça","kanivò"
"","null","html-keyboard-response","83","178542","0.0-1.0-0.41","+","null","",""
"","3611","audio-keyboard-response","84","182176","0.0-1.0-1.41","../audio/teste-vocab--129.mp3","n","elipse","elips"
"","null","html-keyboard-response","85","182692","0.0-1.0-0.42","+","null","",""
"","2029","audio-keyboard-response","86","184845","0.0-1.0-1.42","../audio/teste-vocab--13.mp3","s","ambulância","anbilans"
"","null","html-keyboard-response","87","185351","0.0-1.0-0.43","+","null","",""
"","1608","audio-keyboard-response","88","187059","0.0-1.0-1.43","../audio/teste-vocab--04.mp3","s","roda","wonn"
"","null","html-keyboard-response","89","187568","0.0-1.0-0.44","+","null","",""
"","3592","audio-keyboard-response","90","191210","0.0-1.0-1.44","../audio/teste-vocab--128.mp3","s","incisivo","ensisiv"
"","null","html-keyboard-response","91","191724","0.0-1.0-0.45","+","null","",""
"","2032","audio-keyboard-response","92","193934","0.0-1.0-1.45","../audio/teste-vocab--38.mp3","s","cerimônia","seremoni"
"","null","html-keyboard-response","93","194444","0.0-1.0-0.46","+","null","",""
"","3411","audio-keyboard-response","94","197892","0.0-1.0-1.46","../audio/teste-vocab--79.mp3","s","moldura"," chanbranl"
"","null","html-keyboard-response","95","198403","0.0-1.0-0.47","+","null","",""
"","3499","audio-keyboard-response","96","201955","0.0-1.0-1.47","../audio/teste-vocab--107.mp3","s","elo","emay"
"","null","html-keyboard-response","97","202469","0.0-1.0-0.48","+","null","",""
"","2259","audio-keyboard-response","98","204781","0.0-1.0-1.48","../audio/teste-vocab--130.mp3","s","gentil","dou"
"","null","html-keyboard-response","99","205290","0.0-1.0-0.49","+","null","",""
"","2429","audio-keyboard-response","100","207752","0.0-1.0-1.49","../audio/teste-vocab--58.mp3","s","nutritivo","nourisan"
"","null","html-keyboard-response","101","208259","0.0-1.0-0.50","+","null","",""
"","1600","audio-keyboard-response","102","210093","0.0-1.0-1.50","../audio/teste-vocab--126.mp3","s","ambulante","promennen"
"","null","html-keyboard-response","103","210604","0.0-1.0-0.51","+","null","",""
"","1531","audio-keyboard-response","104","212272","0.0-1.0-1.51","../audio/teste-vocab--73.mp3","s","ângulo","ang"
"","null","html-keyboard-response","105","212780","0.0-1.0-0.52","+","null","",""
"","1899","audio-keyboard-response","106","214791","0.0-1.0-1.52","../audio/teste-vocab--96.mp3","s","árido","sechrès"
"","null","html-keyboard-response","107","215303","0.0-1.0-0.53","+","null","",""
"","2040","audio-keyboard-response","108","217495","0.0-1.0-1.53","../audio/teste-vocab--114.mp3","s","fragmentar","dechire"
"","null","html-keyboard-response","109","218003","0.0-1.0-0.54","+","null","",""
"","1512","audio-keyboard-response","110","219649","0.0-1.0-1.54","../audio/teste-vocab--49.mp3","s","humano","moun"
"","null","html-keyboard-response","111","220159","0.0-1.0-0.55","+","null","",""
"","2341","audio-keyboard-response","112","222568","0.0-1.0-1.55","../audio/teste-vocab--01.mp3","s","boneca","pope"
"","null","html-keyboard-response","113","223084","0.0-1.0-0.56","+","null","",""
"","1589","audio-keyboard-response","114","224737","0.0-1.0-1.56","../audio/teste-vocab--64.mp3","s","colher","kiyè"
"","null","html-keyboard-response","115","225239","0.0-1.0-0.57","+","null","",""
"","3629","audio-keyboard-response","116","228965","0.0-1.0-1.57","../audio/teste-vocab--112.mp3","s","aparição","aparisyon"
"","null","html-keyboard-response","117","229471","0.0-1.0-0.58","+","null","",""
"","1781","audio-keyboard-response","118","231327","0.0-1.0-1.58","../audio/teste-vocab--46.mp3","s","ombro","zepòl"
"","null","html-keyboard-response","119","231843","0.0-1.0-0.59","+","null","",""
"","2819","audio-keyboard-response","120","234739","0.0-1.0-1.59","../audio/teste-vocab--19.mp3","s","hora","è"
"","null","html-keyboard-response","121","235250","0.0-1.0-0.60","+","null","",""
"","2200","audio-keyboard-response","122","237533","0.0-1.0-1.60","../audio/teste-vocab--43.mp3","s","mecânico","mekanisyen"
"","null","html-keyboard-response","123","238043","0.0-1.0-0.61","+","null","",""
"","4581","audio-keyboard-response","124","242721","0.0-1.0-1.61","../audio/teste-vocab--83.mp3","n","morsa","mòs"
"","null","html-keyboard-response","125","243229","0.0-1.0-0.62","+","null","",""
"","1320","audio-keyboard-response","126","244643","0.0-1.0-1.62","../audio/teste-vocab--108.mp3","s","moradia","kay"
"","null","html-keyboard-response","127","245157","0.0-1.0-0.63","+","null","",""
"","3429","audio-keyboard-response","128","248636","0.0-1.0-1.63","../audio/teste-vocab--115.mp3","s","perpendicular","pèpandikilè"
"","null","html-keyboard-response","129","249148","0.0-1.0-0.64","+","null","",""
"","1869","audio-keyboard-response","130","251059","0.0-1.0-1.64","../audio/teste-vocab--48.mp3","s","joia","bijou"
"","null","html-keyboard-response","131","251563","0.0-1.0-0.65","+","null","",""
"","2099","audio-keyboard-response","132","253706","0.0-1.0-1.65","../audio/teste-vocab--56.mp3","s","agricultura","agrikilti"
"","null","html-keyboard-response","133","254221","0.0-1.0-0.66","+","null","",""
"","2400","audio-keyboard-response","134","256700","0.0-1.0-1.66","../audio/teste-vocab--76.mp3","s","arquivar","achive"
"","null","html-keyboard-response","135","257211","0.0-1.0-0.67","+","null","",""
"","1789","audio-keyboard-response","136","259078","0.0-1.0-1.67","../audio/teste-vocab--31.mp3","s","vazio","vid"
"","null","html-keyboard-response","137","259585","0.0-1.0-0.68","+","null","",""
"","2179","audio-keyboard-response","138","261869","0.0-1.0-1.68","../audio/teste-vocab--61.mp3","s","iluminação","iliminasyon"
"","null","html-keyboard-response","139","262374","0.0-1.0-0.69","+","null","",""
"","1760","audio-keyboard-response","140","264194","0.0-1.0-1.69","../audio/teste-vocab--02.mp3","s","homem","gason"
"","null","html-keyboard-response","141","264708","0.0-1.0-0.70","+","null","",""
"","1869","audio-keyboard-response","142","266725","0.0-1.0-1.70","../audio/teste-vocab--119.mp3","s","numeroso","anpil"
"","null","html-keyboard-response","143","267240","0.0-1.0-0.71","+","null","",""
"","1880","audio-keyboard-response","144","269180","0.0-1.0-1.71","../audio/teste-vocab--120.mp3","s","induzir","pwovoke"
"","null","html-keyboard-response","145","269693","0.0-1.0-0.72","+","null","",""
"","2288","audio-keyboard-response","146","272016","0.0-1.0-1.72","../audio/teste-vocab--30.mp3","s","pintor","pent"
"","null","html-keyboard-response","147","272527","0.0-1.0-0.73","+","null","",""
"","2211","audio-keyboard-response","148","274802","0.0-1.0-1.73","../audio/teste-vocab--63.mp3","s","transparente","transparan"
"","null","html-keyboard-response","149","275305","0.0-1.0-0.74","+","null","",""
"","2149","audio-keyboard-response","150","277505","0.0-1.0-1.74","../audio/teste-vocab--57.mp3","s","raiz","rasin"
"","null","html-keyboard-response","151","278014","0.0-1.0-0.75","+","null","",""
"","2261","audio-keyboard-response","152","280450","0.0-1.0-1.75","../audio/teste-vocab--77.mp3","s","comércio","komès"
"","null","html-keyboard-response","153","280962","0.0-1.0-0.76","+","null","",""
"","2080","audio-keyboard-response","154","283078","0.0-1.0-1.76","../audio/teste-vocab--17.mp3","s","móvel","mobil"
"","null","html-keyboard-response","155","283589","0.0-1.0-0.77","+","null","",""
"","6629","audio-keyboard-response","156","290277","0.0-1.0-1.77","../audio/teste-vocab--12.mp3","n","jaula","kaj"
"","null","html-keyboard-response","157","290786","0.0-1.0-0.78","+","null","",""
"","3128","audio-keyboard-response","158","294057","0.0-1.0-1.78","../audio/teste-vocab--71.mp3","s","caule","tij"
"","null","html-keyboard-response","159","294570","0.0-1.0-0.79","+","null","",""
"","1989","audio-keyboard-response","160","296782","0.0-1.0-1.79","../audio/teste-vocab--62.mp3","s","carretel","bobin"
"","null","html-keyboard-response","161","297293","0.0-1.0-0.80","+","null","",""
"","1851","audio-keyboard-response","162","299207","0.0-1.0-1.80","../audio/teste-vocab--06.mp3","s","barco","bato"
"","null","html-keyboard-response","163","299718","0.0-1.0-0.81","+","null","",""
"","2581","audio-keyboard-response","164","302366","0.0-1.0-1.81","../audio/teste-vocab--75.mp3","s","carpinteiro","chapantye"
"","null","html-keyboard-response","165","302882","0.0-1.0-0.82","+","null","",""
"","2480","audio-keyboard-response","166","305457","0.0-1.0-1.82","../audio/teste-vocab--32.mp3","s","descascar","dekale"
"","null","html-keyboard-response","167","305971","0.0-1.0-0.83","+","null","",""
"","2219","audio-keyboard-response","168","309269","0.0-1.0-1.83","../audio/teste-vocab--21.mp3","s","baleia","balèn"
"","null","html-keyboard-response","169","309781","0.0-1.0-0.84","+","null","",""
"","3029","audio-keyboard-response","170","312918","0.0-1.0-1.84","../audio/teste-vocab--100.mp3","s","consumir","konsome"
"","null","html-keyboard-response","171","313428","0.0-1.0-0.85","+","null","",""
"","1891","audio-keyboard-response","172","315398","0.0-1.0-1.85","../audio/teste-vocab--106.mp3","s","lubrificar","grese"
"","null","html-keyboard-response","173","315904","0.0-1.0-0.86","+","null","",""
"","2069","audio-keyboard-response","174","318073","0.0-1.0-1.86","../audio/teste-vocab--51.mp3","s","recolher","kolekte"
"","null","html-keyboard-response","175","318587","0.0-1.0-0.87","+","null","",""
"","1819","audio-keyboard-response","176","320475","0.0-1.0-1.87","../audio/teste-vocab--29.mp3","s","rasgar","chire"
"","null","html-keyboard-response","177","320982","0.0-1.0-0.88","+","null","",""
"","2291","audio-keyboard-response","178","323327","0.0-1.0-1.88","../audio/teste-vocab--93.mp3","s","felino","leopa"
"","null","html-keyboard-response","179","323839","0.0-1.0-0.89","+","null","",""
"","2541","audio-keyboard-response","180","326481","0.0-1.0-1.89","../audio/teste-vocab--104.mp3","s","ira","pwal"
"","null","html-keyboard-response","181","326997","0.0-1.0-0.90","+","null","",""
"","1971","audio-keyboard-response","182","329041","0.0-1.0-1.90","../audio/teste-vocab--47.mp3","s","envelope","anvlope"
"","null","html-keyboard-response","183","329541","0.0-1.0-0.91","+","null","",""
"","2371","audio-keyboard-response","184","331991","0.0-1.0-1.91","../audio/teste-vocab--122.mp3","s","transeunte","pasajè"
"","null","html-keyboard-response","185","332505","0.0-1.0-0.92","+","null","",""
"","4760","audio-keyboard-response","186","337382","0.0-1.0-1.92","../audio/teste-vocab--127.mp3","n","côncavo","konkav"
"","null","html-keyboard-response","187","337885","0.0-1.0-0.93","+","null","",""
"","4328","audio-keyboard-response","188","342263","0.0-1.0-1.93","../audio/teste-vocab--53.mp3","s","orientar","oryante"
"","null","html-keyboard-response","189","342776","0.0-1.0-0.94","+","null","",""
"","4789","audio-keyboard-response","190","347589","0.0-1.0-1.94","../audio/teste-vocab--101.mp3","n","incandescente","enkandesan"
"","null","html-keyboard-response","191","348103","0.0-1.0-0.95","+","null","",""
"","1581","audio-keyboard-response","192","349730","0.0-1.0-1.95","../audio/teste-vocab--86.mp3","s","pensar","panse"
"","null","html-keyboard-response","193","350245","0.0-1.0-0.96","+","null","",""
"","5571","audio-keyboard-response","194","355956","0.0-1.0-1.96","../audio/teste-vocab--74.mp3","s","desilusão","dezilizyon"
"","null","html-keyboard-response","195","356462","0.0-1.0-0.97","+","null","",""
"","2131","audio-keyboard-response","196","358650","0.0-1.0-1.97","../audio/teste-vocab--50.mp3","s","artista","atis"
"","null","html-keyboard-response","197","359152","0.0-1.0-0.98","+","null","",""
"","2040","audio-keyboard-response","198","361296","0.0-1.0-1.98","../audio/teste-vocab--88.mp3","s","portátil","pòtab"
"","null","html-keyboard-response","199","361804","0.0-1.0-0.99","+","null","",""
"","2680","audio-keyboard-response","200","364602","0.0-1.0-1.99","../audio/teste-vocab--66.mp3","s","cooperação","koperasyon"
"","null","html-keyboard-response","201","365105","0.0-1.0-0.100","+","null","",""
"","2131","audio-keyboard-response","202","367364","0.0-1.0-1.100","../audio/teste-vocab--44.mp3","s","premiar","rekonpanse"
"","null","html-keyboard-response","203","367866","0.0-1.0-0.101","+","null","",""
"","2309","audio-keyboard-response","204","370246","0.0-1.0-1.101","../audio/teste-vocab--37.mp3","s","músico","mizisyen"
"","null","html-keyboard-response","205","370758","0.0-1.0-0.102","+","null","",""
"","2149","audio-keyboard-response","206","373275","0.0-1.0-1.102","../audio/teste-vocab--26.mp3","s","cotovelo","koud"
"","null","html-keyboard-response","207","373780","0.0-1.0-0.103","+","null","",""
"","1659","audio-keyboard-response","208","375540","0.0-1.0-1.103","../audio/teste-vocab--54.mp3","s","arbusto","raje"
"","null","html-keyboard-response","209","376050","0.0-1.0-0.104","+","null","",""
"","1600","audio-keyboard-response","210","377722","0.0-1.0-1.104","../audio/teste-vocab--33.mp3","s","uniforme","inifòm"
"","null","html-keyboard-response","211","378228","0.0-1.0-0.105","+","null","",""
"","1419","audio-keyboard-response","212","379828","0.0-1.0-1.105","../audio/teste-vocab--117.mp3","s","córnea","kòn"
"","null","html-keyboard-response","213","380330","0.0-1.0-0.106","+","null","",""
"","1869","audio-keyboard-response","214","382323","0.0-1.0-1.106","../audio/teste-vocab--84.mp3","s","confiar","konfye"
"","null","html-keyboard-response","215","382838","0.0-1.0-0.107","+","null","",""
"","1611","audio-keyboard-response","216","384918","0.0-1.0-1.107","../audio/teste-vocab--08.mp3","s","vaca","vach"
"","null","html-keyboard-response","217","385422","0.0-1.0-0.108","+","null","",""
"","1381","audio-keyboard-response","218","386886","0.0-1.0-1.108","../audio/teste-vocab--16.mp3","s","pescoço","kou"
"","null","html-keyboard-response","219","387396","0.0-1.0-0.109","+","null","",""
"","2960","audio-keyboard-response","220","390496","0.0-1.0-1.109","../audio/teste-vocab--116.mp3","n","vestuário","vestyè"
"","null","html-keyboard-response","221","391008","0.0-1.0-0.110","+","null","",""
"","2080","audio-keyboard-response","222","393142","0.0-1.0-1.110","../audio/teste-vocab--05.mp3","s","limpar","netwaye"
"","null","html-keyboard-response","223","393655","0.0-1.0-0.111","+","null","",""
"","2669","audio-keyboard-response","224","396386","0.0-1.0-1.111","../audio/teste-vocab--45.mp3","s","dentista","dantis"
"","null","html-keyboard-response","225","396897","0.0-1.0-0.112","+","null","",""
"","2869","audio-keyboard-response","226","400027","0.0-1.0-1.112","../audio/teste-vocab--42.mp3","s","isolamento","izòlman"
"","null","html-keyboard-response","227","400534","0.0-1.0-0.113","+","null","",""
"","3021","audio-keyboard-response","228","403726","0.0-1.0-1.113","../audio/teste-vocab--81.mp3","s","judicial","jidisyè"
"","null","html-keyboard-response","229","404227","0.0-1.0-0.114","+","null","",""
"","3680","audio-keyboard-response","230","408071","0.0-1.0-1.114","../audio/teste-vocab--103.mp3","s","utensílio","istansil"
"","null","html-keyboard-response","231","408587","0.0-1.0-0.115","+","null","",""
"","1771","audio-keyboard-response","232","410413","0.0-1.0-1.115","../audio/teste-vocab--22.mp3","s","quebrado","kraze"
"","null","html-keyboard-response","233","410929","0.0-1.0-0.116","+","null","",""
"","6541","audio-keyboard-response","234","417597","0.0-1.0-1.116","../audio/teste-vocab--89.mp3","n","classificar","klasifika"
"","null","html-keyboard-response","235","418099","0.0-1.0-0.117","+","null","",""
"","1672","audio-keyboard-response","236","419854","0.0-1.0-1.117","../audio/teste-vocab--92.mp3","s","esférico","won"
"","null","html-keyboard-response","237","420361","0.0-1.0-0.118","+","null","",""
"","3179","audio-keyboard-response","238","423584","0.0-1.0-1.118","../audio/teste-vocab--25.mp3","n","canguru","kanguwou"
"","null","html-keyboard-response","239","424090","0.0-1.0-0.119","+","null","",""
"","1931","audio-keyboard-response","240","426121","0.0-1.0-1.119","../audio/teste-vocab--35.mp3","s","líquido","likid"
"","null","html-keyboard-response","241","426625","0.0-1.0-0.120","+","null","",""
"","1979","audio-keyboard-response","242","428746","0.0-1.0-1.120","../audio/teste-vocab--91.mp3","s","bússola","bousòl"
"","null","html-keyboard-response","243","429258","0.0-1.0-0.121","+","null","",""
"","1789","audio-keyboard-response","244","431178","0.0-1.0-1.121","../audio/teste-vocab--40.mp3","s","bebida","bwason"
"","null","html-keyboard-response","245","431684","0.0-1.0-0.122","+","null","",""
"","4240","audio-keyboard-response","246","436124","0.0-1.0-1.122","../audio/teste-vocab--78.mp3","n","quarteto","qwatèt"
"","null","html-keyboard-response","247","436636","0.0-1.0-0.123","+","null","",""
"","1739","audio-keyboard-response","248","438434","0.0-1.0-1.123","../audio/teste-vocab--20.mp3","s","medir","mezire"
"","null","html-keyboard-response","249","438944","0.0-1.0-0.124","+","null","",""
"","1680","audio-keyboard-response","250","440678","0.0-1.0-1.124","../audio/teste-vocab--97.mp3","s","frágil","frajil"
"","null","html-keyboard-response","251","441189","0.0-1.0-0.125","+","null","",""
"","1400","audio-keyboard-response","252","442645","0.0-1.0-1.125","../audio/teste-vocab--10.mp3","s","corneta","kòn"
"","null","html-keyboard-response","253","443150","0.0-1.0-0.126","+","null","",""
"","1451","audio-keyboard-response","254","444641","0.0-1.0-1.126","../audio/teste-vocab--28.mp3","s","águia","èg"
"","null","html-keyboard-response","255","445156","0.0-1.0-0.127","+","null","",""
"","1611","audio-keyboard-response","256","446811","0.0-1.0-1.127","../audio/teste-vocab--11.mp3","s","joelho","jenou"
"","null","html-keyboard-response","257","447322","0.0-1.0-0.128","+","null","",""
"","1760","audio-keyboard-response","258","449144","0.0-1.0-1.128","../audio/teste-vocab--23.mp3","s","acariciar","karese"
"","null","html-keyboard-response","259","449654","0.0-1.0-0.129","+","null","",""
"","1939","audio-keyboard-response","260","451628","0.0-1.0-1.129","../audio/teste-vocab--52.mp3","s","construção","konstriksyon"
