[
	{
		"view_history": [
			{
				"page_index": 0,
				"viewing_time": 5028
			}
		],
		"rt": 5028,
		"trial_type": "instructions",
		"trial_index": 0,
		"time_elapsed": 5029,
		"internal_node_id": "0.0-0.0"
	},
	{
		"rt": 22801,
		"response": {
			"tcle": "Concordo voluntariamente em participar da pesquisa conforme texto acima."
		},
		"question_order": [
			0
		],
		"trial_type": "survey-multi-choice",
		"trial_index": 1,
		"time_elapsed": 28037,
		"internal_node_id": "0.0-1.0"
	},
	{
		"rt": 30249,
		"response": {
			"email": "ZDAAP"
		},
		"trial_type": "survey-text",
		"trial_index": 2,
		"time_elapsed": 59380,
		"internal_node_id": "0.0-2.0"
	}
]