"view_history","rt","trial_type","trial_index","time_elapsed","internal_node_id","stimulus","response","trial_part","trial","word","question","answer","accuracy"
"[{""page_index"":0,""viewing_time"":1808},{""page_index"":1,""viewing_time"":2315}]","4123","instructions","0","4125","0.0-0.0","","","","","","","",""
"","null","html-keyboard-response","1","5229","0.0-1.0-0.0-0.0","<span style= ""font-size:30px; font-family: monospace"">+</span>","null","fixation","","","","",""
"","8579","html-keyboard-response","2","14059","0.0-1.0-1.0","<span style=""font-size:30px; font-family: monospace"">O</span>"," ","","prac-sent","O","","",""
"","797","html-keyboard-response","3","15118","0.0-1.0-1.1","<span style=""font-size:30px; font-family: monospace"">dia</span>"," ","","prac-sent","dia","","",""
"","752","html-keyboard-response","4","16126","0.0-1.0-1.2","<span style=""font-size:30px; font-family: monospace"">estará</span>"," ","","prac-sent","estará","","",""
"","688","html-keyboard-response","5","17073","0.0-1.0-1.3","<span style=""font-size:30px; font-family: monospace"">cheio</span>"," ","","prac-sent","cheio","","",""
"","623","html-keyboard-response","6","17957","0.0-1.0-1.4","<span style=""font-size:30px; font-family: monospace"">de</span>"," ","","prac-sent","de","","",""
"","3044","html-keyboard-response","7","21257","0.0-1.0-1.5","<span style=""font-size:30px; font-family: monospace"">nuvens</span>"," ","","prac-sent","nuvens","","",""
"","890","html-keyboard-response","8","22404","0.0-1.0-1.6","<span style=""font-size:30px; font-family: monospace"">hoje.</span>"," ","","prac-sent","hoje.","","",""
"","null","html-keyboard-response","9","23665","0.0-1.0-0.7-0.7","<span style= ""font-size:30px; font-family: monospace"">+</span>","null","fixation","","","","",""
"","2738","html-keyboard-response","10","26668","0.0-1.0-1.7","<span style=""font-size:30px; font-family: monospace"">A</span>"," ","","prac-sent","A","","",""
"","621","html-keyboard-response","11","27553","0.0-1.0-1.8","<span style=""font-size:30px; font-family: monospace"">caneca</span>"," ","","prac-sent","caneca","","",""
"","566","html-keyboard-response","12","28376","0.0-1.0-1.9","<span style=""font-size:30px; font-family: monospace"">colorida</span>"," ","","prac-sent","colorida","","",""
"","658","html-keyboard-response","13","29295","0.0-1.0-1.10","<span style=""font-size:30px; font-family: monospace"">caiu</span>"," ","","prac-sent","caiu","","",""
"","523","html-keyboard-response","14","30071","0.0-1.0-1.11","<span style=""font-size:30px; font-family: monospace"">da</span>"," ","","prac-sent","da","","",""
"","731","html-keyboard-response","15","31054","0.0-1.0-1.12","<span style=""font-size:30px; font-family: monospace"">mesa</span>"," ","","prac-sent","mesa","","",""
"","595","html-keyboard-response","16","31901","0.0-1.0-1.13","<span style=""font-size:30px; font-family: monospace"">de</span>"," ","","prac-sent","de","","",""
"","732","html-keyboard-response","17","32885","0.0-1.0-1.14","<span style=""font-size:30px; font-family: monospace"">jantar.</span>"," ","","prac-comp","jantar.","","",""
"","3156","html-keyboard-response","18","36294","0.0-1.0-2.14-0.14","<span style=""font-size:30px; font-family: monospace"">A caneca permaneceu na mesa?</span>","s","","prac-comp","","A caneca permaneceu na mesa?","não","false"
"[{""page_index"":0,""viewing_time"":7806}]","7806","instructions","19","44610","0.0-2.0","","","","","","","",""
"","null","html-keyboard-response","20","45713","0.0-3.0-0.0-0.0","<span style= ""font-size:30px; font-family: monospace"">+</span>","null","fixation","","","","",""
"","651","html-keyboard-response","21","46628","0.0-3.0-1.0","<span style=""font-size:30px; font-family: monospace"">Ursos</span>"," ","","exp-sent","Ursos","","",""
"","759","html-keyboard-response","22","47639","0.0-3.0-1.1","<span style=""font-size:30px; font-family: monospace"">têm</span>"," ","","exp-sent","têm","","",""
"","507","html-keyboard-response","23","48398","0.0-3.0-1.2","<span style=""font-size:30px; font-family: monospace"">uma</span>"," ","","exp-sent","uma","","",""
"","478","html-keyboard-response","24","49126","0.0-3.0-1.3","<span style=""font-size:30px; font-family: monospace"">patada</span>"," ","","exp-sent","patada","","",""
"","505","html-keyboard-response","25","49882","0.0-3.0-1.4","<span style=""font-size:30px; font-family: monospace"">brutal</span>"," ","","exp-sent","brutal","","",""
"","546","html-keyboard-response","26","50679","0.0-3.0-1.5","<span style=""font-size:30px; font-family: monospace"">e</span>"," ","","exp-sent","e","","",""
"","464","html-keyboard-response","27","51395","0.0-3.0-1.6","<span style=""font-size:30px; font-family: monospace"">poderosa.</span>"," ","","exp-sent","poderosa.","","",""
"","null","html-keyboard-response","28","52648","0.0-3.0-0.7-0.7","<span style= ""font-size:30px; font-family: monospace"">+</span>","null","fixation","","","","",""
"","710","html-keyboard-response","29","53610","0.0-3.0-1.7","<span style=""font-size:30px; font-family: monospace"">Eu</span>"," ","","exp-sent","Eu","","",""
"","482","html-keyboard-response","30","54344","0.0-3.0-1.8","<span style=""font-size:30px; font-family: monospace"">fiz</span>"," ","","exp-sent","fiz","","",""
"","523","html-keyboard-response","31","55119","0.0-3.0-1.9","<span style=""font-size:30px; font-family: monospace"">aulas</span>"," ","","exp-sent","aulas","","",""
"","463","html-keyboard-response","32","55835","0.0-3.0-1.10","<span style=""font-size:30px; font-family: monospace"">de</span>"," ","","exp-sent","de","","",""
"","439","html-keyboard-response","33","56525","0.0-3.0-1.11","<span style=""font-size:30px; font-family: monospace"">espanhol</span>"," ","","exp-sent","espanhol","","",""
"","925","html-keyboard-response","34","57702","0.0-3.0-1.12","<span style=""font-size:30px; font-family: monospace"">nesta</span>"," ","","exp-sent","nesta","","",""
"","1053","html-keyboard-response","35","59006","0.0-3.0-1.13","<span style=""font-size:30px; font-family: monospace"">cidade.</span>"," ","","exp-sent","cidade.","","",""
"","null","html-keyboard-response","36","60258","0.0-3.0-0.14-0.14","<span style= ""font-size:30px; font-family: monospace"">+</span>","null","fixation","","","","",""
"","631","html-keyboard-response","37","61140","0.0-3.0-1.14","<span style=""font-size:30px; font-family: monospace"">Ele</span>"," ","","exp-sent","Ele","","",""
"","582","html-keyboard-response","38","61974","0.0-3.0-1.15","<span style=""font-size:30px; font-family: monospace"">comprou</span>"," ","","exp-sent","comprou","","",""
"","477","html-keyboard-response","39","62702","0.0-3.0-1.16","<span style=""font-size:30px; font-family: monospace"">mais</span>"," ","","exp-sent","mais","","",""
"","648","html-keyboard-response","40","63602","0.0-3.0-1.17","<span style=""font-size:30px; font-family: monospace"">uma</span>"," ","","exp-sent","uma","","",""
"","746","html-keyboard-response","41","64600","0.0-3.0-1.18","<span style=""font-size:30px; font-family: monospace"">esponja</span>"," ","","exp-sent","esponja","","",""
"","633","html-keyboard-response","42","65485","0.0-3.0-1.19","<span style=""font-size:30px; font-family: monospace"">para</span>"," ","","exp-sent","para","","",""
"","489","html-keyboard-response","43","66226","0.0-3.0-1.20","<span style=""font-size:30px; font-family: monospace"">a</span>"," ","","exp-sent","a","","",""
"","3286","html-keyboard-response","44","69764","0.0-3.0-1.21","<span style=""font-size:30px; font-family: monospace"">cozinha.</span>"," ","","exp-sent","cozinha.","","",""
"","null","html-keyboard-response","45","71017","0.0-3.0-0.22-0.22","<span style= ""font-size:30px; font-family: monospace"">+</span>","null","fixation","","","","",""
"","473","html-keyboard-response","46","71741","0.0-3.0-1.22","<span style=""font-size:30px; font-family: monospace"">Ele</span>"," ","","exp-sent","Ele","","",""
"","885","html-keyboard-response","47","72878","0.0-3.0-1.23","<span style=""font-size:30px; font-family: monospace"">teve</span>"," ","","exp-sent","teve","","",""
"","461","html-keyboard-response","48","73598","0.0-3.0-1.24","<span style=""font-size:30px; font-family: monospace"">um</span>"," ","","exp-sent","um","","",""
"","576","html-keyboard-response","49","74426","0.0-3.0-1.25","<span style=""font-size:30px; font-family: monospace"">sono</span>"," ","","exp-sent","sono","","",""
"","537","html-keyboard-response","50","75215","0.0-3.0-1.26","<span style=""font-size:30px; font-family: monospace"">bizarro</span>"," ","","exp-sent","bizarro","","",""
"","437","html-keyboard-response","51","75905","0.0-3.0-1.27","<span style=""font-size:30px; font-family: monospace"">sem</span>"," ","","exp-sent","sem","","",""
"","922","html-keyboard-response","52","77079","0.0-3.0-1.28","<span style=""font-size:30px; font-family: monospace"">nenhum</span>"," ","","exp-sent","nenhum","","",""
"","666","html-keyboard-response","53","77997","0.0-3.0-1.29","<span style=""font-size:30px; font-family: monospace"">motivo.</span>"," ","","exp-sent","motivo.","","",""
"","null","html-keyboard-response","54","79250","0.0-3.0-0.30-0.30","<span style= ""font-size:30px; font-family: monospace"">+</span>","null","fixation","","","","",""
"","671","html-keyboard-response","55","80172","0.0-3.0-1.30","<span style=""font-size:30px; font-family: monospace"">A</span>"," ","","exp-sent","A","","",""
"","552","html-keyboard-response","56","80976","0.0-3.0-1.31","<span style=""font-size:30px; font-family: monospace"">moça</span>"," ","","exp-sent","moça","","",""
"","418","html-keyboard-response","57","81646","0.0-3.0-1.32","<span style=""font-size:30px; font-family: monospace"">comprou</span>"," ","","exp-sent","comprou","","",""
"","564","html-keyboard-response","58","82462","0.0-3.0-1.33","<span style=""font-size:30px; font-family: monospace"">um</span>"," ","","exp-sent","um","","",""
"","655","html-keyboard-response","59","83368","0.0-3.0-1.34","<span style=""font-size:30px; font-family: monospace"">diamante</span>"," ","","exp-sent","diamante","","",""
"","661","html-keyboard-response","60","84280","0.0-3.0-1.35","<span style=""font-size:30px; font-family: monospace"">para</span>"," ","","exp-sent","para","","",""
"","436","html-keyboard-response","61","84968","0.0-3.0-1.36","<span style=""font-size:30px; font-family: monospace"">sua</span>"," ","","exp-sent","sua","","",""
"","532","html-keyboard-response","62","85752","0.0-3.0-1.37","<span style=""font-size:30px; font-family: monospace"">prima.</span>"," ","","comp","prima.","","",""
"","16980","html-keyboard-response","63","102985","0.0-3.0-2.37-0.37","<span style=""font-size:30px; font-family: monospace"">A moça comprou um diamante?</span>","n","","comp","","A moça comprou um diamante?","sim","false"
"","null","html-keyboard-response","64","104487","0.0-3.0-0.38-0.38","<span style= ""font-size:30px; font-family: monospace"">+</span>","null","fixation","","","","",""
"","213","html-keyboard-response","65","104952","0.0-3.0-1.38","<span style=""font-size:30px; font-family: monospace"">O</span>"," ","","exp-sent","O","","",""
"","2801","html-keyboard-response","66","108005","0.0-3.0-1.39","<span style=""font-size:30px; font-family: monospace"">moço</span>"," ","","exp-sent","moço","","",""
"","2592","html-keyboard-response","67","110849","0.0-3.0-1.40","<span style=""font-size:30px; font-family: monospace"">usou</span>"," ","","exp-sent","usou","","",""
"","2420","html-keyboard-response","68","113520","0.0-3.0-1.41","<span style=""font-size:30px; font-family: monospace"">várias</span>"," ","","exp-sent","várias","","",""
"","1263","html-keyboard-response","69","115034","0.0-3.0-1.42","<span style=""font-size:30px; font-family: monospace"">velas</span>"," ","","exp-sent","velas","","",""
"","865","html-keyboard-response","70","116151","0.0-3.0-1.43","<span style=""font-size:30px; font-family: monospace"">no</span>"," ","","exp-sent","no","","",""
"","1982","html-keyboard-response","71","118385","0.0-3.0-1.44","<span style=""font-size:30px; font-family: monospace"">enfeite</span>"," ","","exp-sent","enfeite","","",""
"","669","html-keyboard-response","72","119306","0.0-3.0-1.45","<span style=""font-size:30px; font-family: monospace"">de</span>"," ","","exp-sent","de","","",""
"","735","html-keyboard-response","73","120293","0.0-3.0-1.46","<span style=""font-size:30px; font-family: monospace"">mesa.</span>"," ","","exp-sent","mesa.","","",""
"","null","html-keyboard-response","74","121545","0.0-3.0-0.47-0.47","<span style= ""font-size:30px; font-family: monospace"">+</span>","null","fixation","","","","",""
"","655","html-keyboard-response","75","122452","0.0-3.0-1.47","<span style=""font-size:30px; font-family: monospace"">Gostamos</span>"," ","","exp-sent","Gostamos","","",""
"","746","html-keyboard-response","76","123449","0.0-3.0-1.48","<span style=""font-size:30px; font-family: monospace"">de</span>"," ","","exp-sent","de","","",""
"","699","html-keyboard-response","77","124400","0.0-3.0-1.49","<span style=""font-size:30px; font-family: monospace"">suco</span>"," ","","exp-sent","suco","","",""
"","588","html-keyboard-response","78","125240","0.0-3.0-1.50","<span style=""font-size:30px; font-family: monospace"">em</span>"," ","","exp-sent","em","","",""
"","1075","html-keyboard-response","79","126566","0.0-3.0-1.51","<span style=""font-size:30px; font-family: monospace"">garrafa</span>"," ","","exp-sent","garrafa","","",""
"","694","html-keyboard-response","80","127511","0.0-3.0-1.52","<span style=""font-size:30px; font-family: monospace"">de</span>"," ","","exp-sent","de","","",""
"","748","html-keyboard-response","81","128511","0.0-3.0-1.53","<span style=""font-size:30px; font-family: monospace"">tamanho</span>"," ","","exp-sent","tamanho","","",""
"","703","html-keyboard-response","82","129466","0.0-3.0-1.54","<span style=""font-size:30px; font-family: monospace"">pequeno.</span>"," ","","exp-sent","pequeno.","","",""
"","null","html-keyboard-response","83","130719","0.0-3.0-0.55-0.55","<span style= ""font-size:30px; font-family: monospace"">+</span>","null","fixation","","","","",""
"","805","html-keyboard-response","84","131775","0.0-3.0-1.55","<span style=""font-size:30px; font-family: monospace"">Sua</span>"," ","","exp-sent","Sua","","",""
"","621","html-keyboard-response","85","132648","0.0-3.0-1.56","<span style=""font-size:30px; font-family: monospace"">filha</span>"," ","","exp-sent","filha","","",""
"","716","html-keyboard-response","86","133617","0.0-3.0-1.57","<span style=""font-size:30px; font-family: monospace"">é</span>"," ","","exp-sent","é","","",""
"","691","html-keyboard-response","87","134559","0.0-3.0-1.58","<span style=""font-size:30px; font-family: monospace"">muito</span>"," ","","exp-sent","muito","","",""
"","1967","html-keyboard-response","88","136778","0.0-3.0-1.59","<span style=""font-size:30px; font-family: monospace"">capaz</span>"," ","","exp-sent","capaz","","",""
"","542","html-keyboard-response","89","137572","0.0-3.0-1.60","<span style=""font-size:30px; font-family: monospace"">e</span>"," ","","exp-sent","e","","",""
"","941","html-keyboard-response","90","138764","0.0-3.0-1.61","<span style=""font-size:30px; font-family: monospace"">esforçada.</span>"," ","","exp-sent","esforçada.","","",""
"","null","html-keyboard-response","91","140017","0.0-3.0-0.62-0.62","<span style= ""font-size:30px; font-family: monospace"">+</span>","null","fixation","","","","",""
"","1081","html-keyboard-response","92","141350","0.0-3.0-1.62","<span style=""font-size:30px; font-family: monospace"">A</span>"," ","","exp-sent","A","","",""
"","839","html-keyboard-response","93","142441","0.0-3.0-1.63","<span style=""font-size:30px; font-family: monospace"">batida</span>"," ","","exp-sent","batida","","",""
"","743","html-keyboard-response","94","143435","0.0-3.0-1.64","<span style=""font-size:30px; font-family: monospace"">causou</span>"," ","","exp-sent","causou","","",""
"","1271","html-keyboard-response","95","144957","0.0-3.0-1.65","<span style=""font-size:30px; font-family: monospace"">muita</span>"," ","","exp-sent","muita","","",""
"","673","html-keyboard-response","96","145882","0.0-3.0-1.66","<span style=""font-size:30px; font-family: monospace"">confusão</span>"," ","","exp-sent","confusão","","",""
"","586","html-keyboard-response","97","146720","0.0-3.0-1.67","<span style=""font-size:30px; font-family: monospace"">na</span>"," ","","exp-sent","na","","",""
"","729","html-keyboard-response","98","147701","0.0-3.0-1.68","<span style=""font-size:30px; font-family: monospace"">estrada.</span>"," ","","exp-sent","estrada.","","",""
"","null","html-keyboard-response","99","148954","0.0-3.0-0.69-0.69","<span style= ""font-size:30px; font-family: monospace"">+</span>","null","fixation","","","","",""
"","204","html-keyboard-response","100","149409","0.0-3.0-1.69","<span style=""font-size:30px; font-family: monospace"">Eu</span>"," ","","exp-sent","Eu","","",""
"","822","html-keyboard-response","101","150482","0.0-3.0-1.70","<span style=""font-size:30px; font-family: monospace"">cozinhei</span>"," ","","exp-sent","cozinhei","","",""
"","763","html-keyboard-response","102","151497","0.0-3.0-1.71","<span style=""font-size:30px; font-family: monospace"">um</span>"," ","","exp-sent","um","","",""
"","1605","html-keyboard-response","103","153354","0.0-3.0-1.72","<span style=""font-size:30px; font-family: monospace"">almoço</span>"," ","","exp-sent","almoço","","",""
"","788","html-keyboard-response","104","154394","0.0-3.0-1.73","<span style=""font-size:30px; font-family: monospace"">nutritivo</span>"," ","","exp-sent","nutritivo","","",""
"","832","html-keyboard-response","105","155477","0.0-3.0-1.74","<span style=""font-size:30px; font-family: monospace"">para</span>"," ","","exp-sent","para","","",""
"","844","html-keyboard-response","106","156573","0.0-3.0-1.75","<span style=""font-size:30px; font-family: monospace"">hoje.</span>"," ","","comp","hoje.","","",""
"","11658","html-keyboard-response","107","168482","0.0-3.0-2.75-0.75","<span style=""font-size:30px; font-family: monospace"">O almoço era nutritivo?</span>","n","","comp","","O almoço era nutritivo?","sim","false"
"","null","html-keyboard-response","108","169985","0.0-3.0-0.76-0.76","<span style= ""font-size:30px; font-family: monospace"">+</span>","null","fixation","","","","",""
"","413","html-keyboard-response","109","170649","0.0-3.0-1.76","<span style=""font-size:30px; font-family: monospace"">Minha</span>"," ","","exp-sent","Minha","","",""
"","919","html-keyboard-response","110","171821","0.0-3.0-1.77","<span style=""font-size:30px; font-family: monospace"">prima</span>"," ","","exp-sent","prima","","",""
"","1239","html-keyboard-response","111","173311","0.0-3.0-1.78","<span style=""font-size:30px; font-family: monospace"">trocou</span>"," ","","exp-sent","trocou","","",""
"","616","html-keyboard-response","112","174181","0.0-3.0-1.79","<span style=""font-size:30px; font-family: monospace"">a</span>"," ","","exp-sent","a","","",""
"","818","html-keyboard-response","113","175250","0.0-3.0-1.80","<span style=""font-size:30px; font-family: monospace"">tela</span>"," ","","exp-sent","tela","","",""
"","640","html-keyboard-response","114","176143","0.0-3.0-1.81","<span style=""font-size:30px; font-family: monospace"">do</span>"," ","","exp-sent","do","","",""
"","4045","html-keyboard-response","115","180441","0.0-3.0-1.82","<span style=""font-size:30px; font-family: monospace"">celular</span>"," ","","exp-sent","celular","","",""
"","834","html-keyboard-response","116","181526","0.0-3.0-1.83","<span style=""font-size:30px; font-family: monospace"">duas</span>"," ","","exp-sent","duas","","",""
"","1131","html-keyboard-response","117","182909","0.0-3.0-1.84","<span style=""font-size:30px; font-family: monospace"">vezes.</span>"," ","","exp-sent","vezes.","","",""
"","null","html-keyboard-response","118","184162","0.0-3.0-0.85-0.85","<span style= ""font-size:30px; font-family: monospace"">+</span>","null","fixation","","","","",""
"","918","html-keyboard-response","119","185331","0.0-3.0-1.85","<span style=""font-size:30px; font-family: monospace"">Agora</span>"," ","","exp-sent","Agora","","",""
"","682","html-keyboard-response","120","186265","0.0-3.0-1.86","<span style=""font-size:30px; font-family: monospace"">a</span>"," ","","exp-sent","a","","",""
"","1009","html-keyboard-response","121","187525","0.0-3.0-1.87","<span style=""font-size:30px; font-family: monospace"">minha</span>"," ","","exp-sent","minha","","",""
"","792","html-keyboard-response","122","188569","0.0-3.0-1.88","<span style=""font-size:30px; font-family: monospace"">única</span>"," ","","exp-sent","única","","",""
"","2077","html-keyboard-response","123","190898","0.0-3.0-1.89","<span style=""font-size:30px; font-family: monospace"">preocupação</span>"," ","","exp-sent","preocupação","","",""
"","959","html-keyboard-response","124","192109","0.0-3.0-1.90","<span style=""font-size:30px; font-family: monospace"">é</span>"," ","","exp-sent","é","","",""
"","646","html-keyboard-response","125","193007","0.0-3.0-1.91","<span style=""font-size:30px; font-family: monospace"">um</span>"," ","","exp-sent","um","","",""
"","1136","html-keyboard-response","126","194395","0.0-3.0-1.92","<span style=""font-size:30px; font-family: monospace"">descanso</span>"," ","","exp-sent","descanso","","",""
"","878","html-keyboard-response","127","195525","0.0-3.0-1.93","<span style=""font-size:30px; font-family: monospace"">tranquilo.</span>"," ","","exp-sent","tranquilo.","","",""
"","null","html-keyboard-response","128","196778","0.0-3.0-0.94-0.94","<span style= ""font-size:30px; font-family: monospace"">+</span>","null","fixation","","","","",""
"","297","html-keyboard-response","129","197327","0.0-3.0-1.94","<span style=""font-size:30px; font-family: monospace"">A</span>"," ","","exp-sent","A","","",""
"","517","html-keyboard-response","130","198096","0.0-3.0-1.95","<span style=""font-size:30px; font-family: monospace"">criança</span>"," ","","exp-sent","criança","","",""
"","566","html-keyboard-response","131","198914","0.0-3.0-1.96","<span style=""font-size:30px; font-family: monospace"">ganhou</span>"," ","","exp-sent","ganhou","","",""
"","906","html-keyboard-response","132","200072","0.0-3.0-1.97","<span style=""font-size:30px; font-family: monospace"">um</span>"," ","","exp-sent","um","","",""
"","841","html-keyboard-response","133","201165","0.0-3.0-1.98","<span style=""font-size:30px; font-family: monospace"">presente</span>"," ","","exp-sent","presente","","",""
"","2750","html-keyboard-response","134","204166","0.0-3.0-1.99","<span style=""font-size:30px; font-family: monospace"">maravilhoso.</span>"," ","","exp-sent","maravilhoso.","","",""
"","null","html-keyboard-response","135","205418","0.0-3.0-0.100-0.100","<span style= ""font-size:30px; font-family: monospace"">+</span>","null","fixation","","","","",""
"","2","html-keyboard-response","136","205672","0.0-3.0-1.100","<span style=""font-size:30px; font-family: monospace"">Os</span>"," ","","exp-sent","Os","","",""
"","652","html-keyboard-response","137","206576","0.0-3.0-1.101","<span style=""font-size:30px; font-family: monospace"">bichos</span>"," ","","exp-sent","bichos","","",""
"","494","html-keyboard-response","138","207321","0.0-3.0-1.102","<span style=""font-size:30px; font-family: monospace"">têm</span>"," ","","exp-sent","têm","","",""
"","513","html-keyboard-response","139","208086","0.0-3.0-1.103","<span style=""font-size:30px; font-family: monospace"">um</span>"," ","","exp-sent","um","","",""
"","831","html-keyboard-response","140","209168","0.0-3.0-1.104","<span style=""font-size:30px; font-family: monospace"">instinto</span>"," ","","exp-sent","instinto","","",""
"","540","html-keyboard-response","141","209960","0.0-3.0-1.105","<span style=""font-size:30px; font-family: monospace"">de</span>"," ","","exp-sent","de","","",""
"","1357","html-keyboard-response","142","211568","0.0-3.0-1.106","<span style=""font-size:30px; font-family: monospace"">sobrevivência</span>"," ","","exp-sent","sobrevivência","","",""
"","656","html-keyboard-response","143","212476","0.0-3.0-1.107","<span style=""font-size:30px; font-family: monospace"">forte.</span>"," ","","exp-sent","forte.","","",""
"","null","html-keyboard-response","144","213728","0.0-3.0-0.108-0.108","<span style= ""font-size:30px; font-family: monospace"">+</span>","null","fixation","","","","",""
"","480","html-keyboard-response","145","214458","0.0-3.0-1.108","<span style=""font-size:30px; font-family: monospace"">Aquele</span>"," ","","exp-sent","Aquele","","",""
"","599","html-keyboard-response","146","215310","0.0-3.0-1.109","<span style=""font-size:30px; font-family: monospace"">menino</span>"," ","","exp-sent","menino","","",""
"","569","html-keyboard-response","147","216130","0.0-3.0-1.110","<span style=""font-size:30px; font-family: monospace"">alto</span>"," ","","exp-sent","alto","","",""
"","843","html-keyboard-response","148","217225","0.0-3.0-1.111","<span style=""font-size:30px; font-family: monospace"">é</span>"," ","","exp-sent","é","","",""
"","652","html-keyboard-response","149","218129","0.0-3.0-1.112","<span style=""font-size:30px; font-family: monospace"">exibido</span>"," ","","exp-sent","exibido","","",""
"","698","html-keyboard-response","150","219079","0.0-3.0-1.113","<span style=""font-size:30px; font-family: monospace"">e</span>"," ","","exp-sent","e","","",""
"","603","html-keyboard-response","151","219934","0.0-3.0-1.114","<span style=""font-size:30px; font-family: monospace"">sovina.</span>"," ","","comp","sovina.","","",""
"","10836","html-keyboard-response","152","231022","0.0-3.0-2.114-0.114","<span style=""font-size:30px; font-family: monospace"">Aquele menino é humilde?</span>","s","","comp","","Aquele menino é humilde?","não","false"
"","null","html-keyboard-response","153","232524","0.0-3.0-0.115-0.115","<span style= ""font-size:30px; font-family: monospace"">+</span>","null","fixation","","","","",""
"","900","html-keyboard-response","154","233675","0.0-3.0-1.115","<span style=""font-size:30px; font-family: monospace"">Ganhamos</span>"," ","","exp-sent","Ganhamos","","",""
"","602","html-keyboard-response","155","234529","0.0-3.0-1.116","<span style=""font-size:30px; font-family: monospace"">passagem</span>"," ","","exp-sent","passagem","","",""
"","829","html-keyboard-response","156","235609","0.0-3.0-1.117","<span style=""font-size:30px; font-family: monospace"">para</span>"," ","","exp-sent","para","","",""
"","958","html-keyboard-response","157","236819","0.0-3.0-1.118","<span style=""font-size:30px; font-family: monospace"">uma</span>"," ","","exp-sent","uma","","",""
"","5772","html-keyboard-response","158","242843","0.0-3.0-1.119","<span style=""font-size:30px; font-family: monospace"">viagem</span>"," ","","exp-sent","viagem","","",""
"","690","html-keyboard-response","159","243792","0.0-3.0-1.120","<span style=""font-size:30px; font-family: monospace"">de</span>"," ","","exp-sent","de","","",""
"","614","html-keyboard-response","160","244658","0.0-3.0-1.121","<span style=""font-size:30px; font-family: monospace"">férias.</span>"," ","","exp-sent","férias.","","",""
"","null","html-keyboard-response","161","245910","0.0-3.0-0.122-0.122","<span style= ""font-size:30px; font-family: monospace"">+</span>","null","fixation","","","","",""
"","637","html-keyboard-response","162","246798","0.0-3.0-1.122","<span style=""font-size:30px; font-family: monospace"">Caiu</span>"," ","","exp-sent","Caiu","","",""
"","893","html-keyboard-response","163","247942","0.0-3.0-1.123","<span style=""font-size:30px; font-family: monospace"">algo</span>"," ","","exp-sent","algo","","",""
"","610","html-keyboard-response","164","248805","0.0-3.0-1.124","<span style=""font-size:30px; font-family: monospace"">no</span>"," ","","exp-sent","no","","",""
"","769","html-keyboard-response","165","249826","0.0-3.0-1.125","<span style=""font-size:30px; font-family: monospace"">meu</span>"," ","","exp-sent","meu","","",""
"","1718","html-keyboard-response","166","251796","0.0-3.0-1.126","<span style=""font-size:30px; font-family: monospace"">olho</span>"," ","","exp-sent","olho","","",""
"","549","html-keyboard-response","167","252596","0.0-3.0-1.127","<span style=""font-size:30px; font-family: monospace"">ontem</span>"," ","","exp-sent","ontem","","",""
"","1636","html-keyboard-response","168","254483","0.0-3.0-1.128","<span style=""font-size:30px; font-family: monospace"">de</span>"," ","","exp-sent","de","","",""
"","798","html-keyboard-response","169","255532","0.0-3.0-1.129","<span style=""font-size:30px; font-family: monospace"">tarde.</span>"," ","","exp-sent","tarde.","","",""
"","null","html-keyboard-response","170","256785","0.0-3.0-0.130-0.130","<span style= ""font-size:30px; font-family: monospace"">+</span>","null","fixation","","","","",""
"","575","html-keyboard-response","171","257611","0.0-3.0-1.130","<span style=""font-size:30px; font-family: monospace"">Não</span>"," ","","exp-sent","Não","","",""
"","1420","html-keyboard-response","172","259282","0.0-3.0-1.131","<span style=""font-size:30px; font-family: monospace"">havia</span>"," ","","exp-sent","havia","","",""
"","520","html-keyboard-response","173","260054","0.0-3.0-1.132","<span style=""font-size:30px; font-family: monospace"">mais</span>"," ","","exp-sent","mais","","",""
"","820","html-keyboard-response","174","261125","0.0-3.0-1.133","<span style=""font-size:30px; font-family: monospace"">nenhum</span>"," ","","exp-sent","nenhum","","",""
"","702","html-keyboard-response","175","262079","0.0-3.0-1.134","<span style=""font-size:30px; font-family: monospace"">ingresso</span>"," ","","exp-sent","ingresso","","",""
"","881","html-keyboard-response","176","263211","0.0-3.0-1.135","<span style=""font-size:30px; font-family: monospace"">para</span>"," ","","exp-sent","para","","",""
"","807","html-keyboard-response","177","264270","0.0-3.0-1.136","<span style=""font-size:30px; font-family: monospace"">o</span>"," ","","exp-sent","o","","",""
"","523","html-keyboard-response","178","265044","0.0-3.0-1.137","<span style=""font-size:30px; font-family: monospace"">evento.</span>"," ","","exp-sent","evento.","","",""
"","null","html-keyboard-response","179","266296","0.0-3.0-0.138-0.138","<span style= ""font-size:30px; font-family: monospace"">+</span>","null","fixation","","","","",""
"","288","html-keyboard-response","180","266836","0.0-3.0-1.138","<span style=""font-size:30px; font-family: monospace"">A</span>"," ","","exp-sent","A","","",""
"","686","html-keyboard-response","181","267772","0.0-3.0-1.139","<span style=""font-size:30px; font-family: monospace"">médica</span>"," ","","exp-sent","médica","","",""
"","1464","html-keyboard-response","182","269487","0.0-3.0-1.140","<span style=""font-size:30px; font-family: monospace"">descobriu</span>"," ","","exp-sent","descobriu","","",""
"","766","html-keyboard-response","183","270506","0.0-3.0-1.141","<span style=""font-size:30px; font-family: monospace"">uma</span>"," ","","exp-sent","uma","","",""
"","619","html-keyboard-response","184","271377","0.0-3.0-1.142","<span style=""font-size:30px; font-family: monospace"">cura</span>"," ","","exp-sent","cura","","",""
"","594","html-keyboard-response","185","272223","0.0-3.0-1.143","<span style=""font-size:30px; font-family: monospace"">para</span>"," ","","exp-sent","para","","",""
"","830","html-keyboard-response","186","273305","0.0-3.0-1.144","<span style=""font-size:30px; font-family: monospace"">a</span>"," ","","exp-sent","a","","",""
"","650","html-keyboard-response","187","274206","0.0-3.0-1.145","<span style=""font-size:30px; font-family: monospace"">doença.</span>"," ","","exp-sent","doença.","","",""
"","null","html-keyboard-response","188","275458","0.0-3.0-0.146-0.146","<span style= ""font-size:30px; font-family: monospace"">+</span>","null","fixation","","","","",""
"","287","html-keyboard-response","189","275997","0.0-3.0-1.146","<span style=""font-size:30px; font-family: monospace"">O</span>"," ","","exp-sent","O","","",""
"","930","html-keyboard-response","190","277178","0.0-3.0-1.147","<span style=""font-size:30px; font-family: monospace"">menino</span>"," ","","exp-sent","menino","","",""
"","857","html-keyboard-response","191","278286","0.0-3.0-1.148","<span style=""font-size:30px; font-family: monospace"">riscou</span>"," ","","exp-sent","riscou","","",""
"","582","html-keyboard-response","192","279121","0.0-3.0-1.149","<span style=""font-size:30px; font-family: monospace"">o</span>"," ","","exp-sent","o","","",""
"","1570","html-keyboard-response","193","280943","0.0-3.0-1.150","<span style=""font-size:30px; font-family: monospace"">caderno</span>"," ","","exp-sent","caderno","","",""
"","597","html-keyboard-response","194","281792","0.0-3.0-1.151","<span style=""font-size:30px; font-family: monospace"">com</span>"," ","","exp-sent","com","","",""
"","606","html-keyboard-response","195","282650","0.0-3.0-1.152","<span style=""font-size:30px; font-family: monospace"">a</span>"," ","","exp-sent","a","","",""
"","1774","html-keyboard-response","196","284676","0.0-3.0-1.153","<span style=""font-size:30px; font-family: monospace"">caneta.</span>"," ","","comp","caneta.","","",""
"","38044","html-keyboard-response","197","322971","0.0-3.0-2.153-0.153","<span style=""font-size:30px; font-family: monospace"">O menino riscou a parede com a caneta?</span>","n","","comp","","O menino riscou a parede com a caneta?","não","false"
"","null","html-keyboard-response","198","324486","0.0-3.0-0.154-0.154","<span style= ""font-size:30px; font-family: monospace"">+</span>","null","fixation","","","","",""
"","158","html-keyboard-response","199","324896","0.0-3.0-1.154","<span style=""font-size:30px; font-family: monospace"">Ele</span>"," ","","exp-sent","Ele","","",""
"","306","html-keyboard-response","200","325453","0.0-3.0-1.155","<span style=""font-size:30px; font-family: monospace"">é</span>"," ","","exp-sent","é","","",""
"","397","html-keyboard-response","201","326103","0.0-3.0-1.156","<span style=""font-size:30px; font-family: monospace"">um</span>"," ","","exp-sent","um","","",""
"","346","html-keyboard-response","202","326700","0.0-3.0-1.157","<span style=""font-size:30px; font-family: monospace"">pai</span>"," ","","exp-sent","pai","","",""
"","456","html-keyboard-response","203","327407","0.0-3.0-1.158","<span style=""font-size:30px; font-family: monospace"">ausente</span>"," ","","exp-sent","ausente","","",""
"","400","html-keyboard-response","204","328058","0.0-3.0-1.159","<span style=""font-size:30px; font-family: monospace"">e</span>"," ","","exp-sent","e","","",""
"","408","html-keyboard-response","205","328718","0.0-3.0-1.160","<span style=""font-size:30px; font-family: monospace"">muito</span>"," ","","exp-sent","muito","","",""
"","1697","html-keyboard-response","206","330666","0.0-3.0-1.161","<span style=""font-size:30px; font-family: monospace"">fofoqueiro.</span>"," ","","exp-sent","fofoqueiro.","","",""
"","null","html-keyboard-response","207","331923","0.0-3.0-0.162-0.162","<span style= ""font-size:30px; font-family: monospace"">+</span>","null","fixation","","","","",""
"","23","html-keyboard-response","208","332198","0.0-3.0-1.162","<span style=""font-size:30px; font-family: monospace"">O</span>"," ","","exp-sent","O","","",""
"","510","html-keyboard-response","209","332960","0.0-3.0-1.163","<span style=""font-size:30px; font-family: monospace"">filho</span>"," ","","exp-sent","filho","","",""
"","781","html-keyboard-response","210","333992","0.0-3.0-1.164","<span style=""font-size:30px; font-family: monospace"">lavou</span>"," ","","exp-sent","lavou","","",""
"","2315","html-keyboard-response","211","336560","0.0-3.0-1.165","<span style=""font-size:30px; font-family: monospace"">a</span>"," ","","exp-sent","a","","",""
"","1076","html-keyboard-response","212","337888","0.0-3.0-1.166","<span style=""font-size:30px; font-family: monospace"">roupa</span>"," ","","exp-sent","roupa","","",""
"","876","html-keyboard-response","213","339016","0.0-3.0-1.167","<span style=""font-size:30px; font-family: monospace"">sem</span>"," ","","exp-sent","sem","","",""
"","881","html-keyboard-response","214","340148","0.0-3.0-1.168","<span style=""font-size:30px; font-family: monospace"">nenhuma</span>"," ","","exp-sent","nenhuma","","",""
"","810","html-keyboard-response","215","341210","0.0-3.0-1.169","<span style=""font-size:30px; font-family: monospace"">ajuda.</span>"," ","","exp-sent","ajuda.","","",""
"","null","html-keyboard-response","216","342462","0.0-3.0-0.170-0.170","<span style= ""font-size:30px; font-family: monospace"">+</span>","null","fixation","","","","",""
"","349","html-keyboard-response","217","343063","0.0-3.0-1.170","<span style=""font-size:30px; font-family: monospace"">O</span>"," ","","exp-sent","O","","",""
"","546","html-keyboard-response","218","343861","0.0-3.0-1.171","<span style=""font-size:30px; font-family: monospace"">menino</span>"," ","","exp-sent","menino","","",""
"","629","html-keyboard-response","219","344742","0.0-3.0-1.172","<span style=""font-size:30px; font-family: monospace"">quebrou</span>"," ","","exp-sent","quebrou","","",""
"","441","html-keyboard-response","220","345434","0.0-3.0-1.173","<span style=""font-size:30px; font-family: monospace"">a</span>"," ","","exp-sent","a","","",""
"","484","html-keyboard-response","221","346170","0.0-3.0-1.174","<span style=""font-size:30px; font-family: monospace"">perna</span>"," ","","exp-sent","perna","","",""
"","473","html-keyboard-response","222","346909","0.0-3.0-1.175","<span style=""font-size:30px; font-family: monospace"">nos</span>"," ","","exp-sent","nos","","",""
"","436","html-keyboard-response","223","347596","0.0-3.0-1.176","<span style=""font-size:30px; font-family: monospace"">esportes.</span>"," ","","exp-sent","esportes.","","",""
"","null","html-keyboard-response","224","348850","0.0-3.0-0.177-0.177","<span style= ""font-size:30px; font-family: monospace"">+</span>","null","fixation","","","","",""
"","338","html-keyboard-response","225","349440","0.0-3.0-1.177","<span style=""font-size:30px; font-family: monospace"">Ela</span>"," ","","exp-sent","Ela","","",""
"","444","html-keyboard-response","226","350136","0.0-3.0-1.178","<span style=""font-size:30px; font-family: monospace"">brincou</span>"," ","","exp-sent","brincou","","",""
"","461","html-keyboard-response","227","350848","0.0-3.0-1.179","<span style=""font-size:30px; font-family: monospace"">com</span>"," ","","exp-sent","com","","",""
"","423","html-keyboard-response","228","351523","0.0-3.0-1.180","<span style=""font-size:30px; font-family: monospace"">uma</span>"," ","","exp-sent","uma","","",""
"","440","html-keyboard-response","229","352229","0.0-3.0-1.181","<span style=""font-size:30px; font-family: monospace"">menina</span>"," ","","exp-sent","menina","","",""
"","413","html-keyboard-response","230","352894","0.0-3.0-1.182","<span style=""font-size:30px; font-family: monospace"">da</span>"," ","","exp-sent","da","","",""
"","418","html-keyboard-response","231","353573","0.0-3.0-1.183","<span style=""font-size:30px; font-family: monospace"">turma.</span>"," ","","exp-sent","turma.","","",""
"","null","html-keyboard-response","232","354825","0.0-3.0-0.184-0.184","<span style= ""font-size:30px; font-family: monospace"">+</span>","null","fixation","","","","",""
"","466","html-keyboard-response","233","355542","0.0-3.0-1.184","<span style=""font-size:30px; font-family: monospace"">Ele</span>"," ","","exp-sent","Ele","","",""
"","427","html-keyboard-response","234","356221","0.0-3.0-1.185","<span style=""font-size:30px; font-family: monospace"">esteve</span>"," ","","exp-sent","esteve","","",""
"","979","html-keyboard-response","235","357462","0.0-3.0-1.186","<span style=""font-size:30px; font-family: monospace"">no</span>"," ","","exp-sent","no","","",""
"","1362","html-keyboard-response","236","359076","0.0-3.0-1.187","<span style=""font-size:30px; font-family: monospace"">escritório</span>"," ","","exp-sent","escritório","","",""
"","549","html-keyboard-response","237","359884","0.0-3.0-1.188","<span style=""font-size:30px; font-family: monospace"">o</span>"," ","","exp-sent","o","","",""
"","576","html-keyboard-response","238","360713","0.0-3.0-1.189","<span style=""font-size:30px; font-family: monospace"">dia</span>"," ","","exp-sent","dia","","",""
"","621","html-keyboard-response","239","361586","0.0-3.0-1.190","<span style=""font-size:30px; font-family: monospace"">inteiro.</span>"," ","","comp","inteiro.","","",""
"","8463","html-keyboard-response","240","370301","0.0-3.0-2.190-0.190","<span style=""font-size:30px; font-family: monospace"">Ele esteve no parque o dia inteiro?</span>","s","","comp","","Ele esteve no parque o dia inteiro?","não","false"
"","null","html-keyboard-response","241","371803","0.0-3.0-0.191-0.191","<span style= ""font-size:30px; font-family: monospace"">+</span>","null","fixation","","","","",""
"","191","html-keyboard-response","242","372245","0.0-3.0-1.191","<span style=""font-size:30px; font-family: monospace"">Eu</span>"," ","","exp-sent","Eu","","",""
"","541","html-keyboard-response","243","373038","0.0-3.0-1.192","<span style=""font-size:30px; font-family: monospace"">gosto</span>"," ","","exp-sent","gosto","","",""
"","426","html-keyboard-response","244","373716","0.0-3.0-1.193","<span style=""font-size:30px; font-family: monospace"">de</span>"," ","","exp-sent","de","","",""
"","1236","html-keyboard-response","245","375204","0.0-3.0-1.194","<span style=""font-size:30px; font-family: monospace"">molho</span>"," ","","exp-sent","molho","","",""
"","464","html-keyboard-response","246","375920","0.0-3.0-1.195","<span style=""font-size:30px; font-family: monospace"">picante</span>"," ","","exp-sent","picante","","",""
"","418","html-keyboard-response","247","376590","0.0-3.0-1.196","<span style=""font-size:30px; font-family: monospace"">nas</span>"," ","","exp-sent","nas","","",""
"","460","html-keyboard-response","248","377300","0.0-3.0-1.197","<span style=""font-size:30px; font-family: monospace"">batatas.</span>"," ","","exp-sent","batatas.","","",""
"","null","html-keyboard-response","249","378553","0.0-3.0-0.198-0.198","<span style= ""font-size:30px; font-family: monospace"">+</span>","null","fixation","","","","",""
"","484","html-keyboard-response","250","379288","0.0-3.0-1.198","<span style=""font-size:30px; font-family: monospace"">As</span>"," ","","exp-sent","As","","",""
"","252","html-keyboard-response","251","379791","0.0-3.0-1.199","<span style=""font-size:30px; font-family: monospace"">pessoas</span>"," ","","exp-sent","pessoas","","",""
"","366","html-keyboard-response","252","380409","0.0-3.0-1.200","<span style=""font-size:30px; font-family: monospace"">têm</span>"," ","","exp-sent","têm","","",""
"","994","html-keyboard-response","253","381655","0.0-3.0-1.201","<span style=""font-size:30px; font-family: monospace"">sua</span>"," ","","exp-sent","sua","","",""
"","1024","html-keyboard-response","254","382930","0.0-3.0-1.202","<span style=""font-size:30px; font-family: monospace"">liberdade</span>"," ","","exp-sent","liberdade","","",""
"","435","html-keyboard-response","255","383628","0.0-3.0-1.203","<span style=""font-size:30px; font-family: monospace"">até</span>"," ","","exp-sent","até","","",""
"","462","html-keyboard-response","256","384342","0.0-3.0-1.204","<span style=""font-size:30px; font-family: monospace"">certo</span>"," ","","exp-sent","certo","","",""
"","504","html-keyboard-response","257","385097","0.0-3.0-1.205","<span style=""font-size:30px; font-family: monospace"">ponto.</span>"," ","","exp-sent","ponto.","","",""
"","null","html-keyboard-response","258","386357","0.0-3.0-0.206-0.206","<span style= ""font-size:30px; font-family: monospace"">+</span>","null","fixation","","","","",""
"","322","html-keyboard-response","259","386930","0.0-3.0-1.206","<span style=""font-size:30px; font-family: monospace"">A</span>"," ","","exp-sent","A","","",""
"","510","html-keyboard-response","260","387691","0.0-3.0-1.207","<span style=""font-size:30px; font-family: monospace"">empresa</span>"," ","","exp-sent","empresa","","",""
"","749","html-keyboard-response","261","388692","0.0-3.0-1.208","<span style=""font-size:30px; font-family: monospace"">enviou</span>"," ","","exp-sent","enviou","","",""
"","728","html-keyboard-response","262","389671","0.0-3.0-1.209","<span style=""font-size:30px; font-family: monospace"">o</span>"," ","","exp-sent","o","","",""
"","804","html-keyboard-response","263","390727","0.0-3.0-1.210","<span style=""font-size:30px; font-family: monospace"">aviso</span>"," ","","exp-sent","aviso","","",""
"","1231","html-keyboard-response","264","392211","0.0-3.0-1.211","<span style=""font-size:30px; font-family: monospace"">hoje</span>"," ","","exp-sent","hoje","","",""
"","531","html-keyboard-response","265","392993","0.0-3.0-1.212","<span style=""font-size:30px; font-family: monospace"">de</span>"," ","","exp-sent","de","","",""
"","675","html-keyboard-response","266","393919","0.0-3.0-1.213","<span style=""font-size:30px; font-family: monospace"">tarde.</span>"," ","","exp-sent","tarde.","","",""
"","null","html-keyboard-response","267","395171","0.0-3.0-0.214-0.214","<span style= ""font-size:30px; font-family: monospace"">+</span>","null","fixation","","","","",""
"","379","html-keyboard-response","268","395801","0.0-3.0-1.214","<span style=""font-size:30px; font-family: monospace"">A</span>"," ","","exp-sent","A","","",""
"","418","html-keyboard-response","269","396472","0.0-3.0-1.215","<span style=""font-size:30px; font-family: monospace"">loja</span>"," ","","exp-sent","loja","","",""
"","636","html-keyboard-response","270","397360","0.0-3.0-1.216","<span style=""font-size:30px; font-family: monospace"">vende</span>"," ","","exp-sent","vende","","",""
"","476","html-keyboard-response","271","398087","0.0-3.0-1.217","<span style=""font-size:30px; font-family: monospace"">tanto</span>"," ","","exp-sent","tanto","","",""
"","605","html-keyboard-response","272","398949","0.0-3.0-1.218","<span style=""font-size:30px; font-family: monospace"">frituras</span>"," ","","exp-sent","frituras","","",""
"","478","html-keyboard-response","273","399679","0.0-3.0-1.219","<span style=""font-size:30px; font-family: monospace"">quanto</span>"," ","","exp-sent","quanto","","",""
"","496","html-keyboard-response","274","400427","0.0-3.0-1.220","<span style=""font-size:30px; font-family: monospace"">comidas</span>"," ","","exp-sent","comidas","","",""
"","499","html-keyboard-response","275","401178","0.0-3.0-1.221","<span style=""font-size:30px; font-family: monospace"">leves.</span>"," ","","exp-sent","leves.","","",""
"","null","html-keyboard-response","276","402431","0.0-3.0-0.222-0.222","<span style= ""font-size:30px; font-family: monospace"">+</span>","null","fixation","","","","",""
"","881","html-keyboard-response","277","403564","0.0-3.0-1.222","<span style=""font-size:30px; font-family: monospace"">As</span>"," ","","exp-sent","As","","",""
"","477","html-keyboard-response","278","404293","0.0-3.0-1.223","<span style=""font-size:30px; font-family: monospace"">cadeiras</span>"," ","","exp-sent","cadeiras","","",""
"","506","html-keyboard-response","279","405050","0.0-3.0-1.224","<span style=""font-size:30px; font-family: monospace"">azuis</span>"," ","","exp-sent","azuis","","",""
"","508","html-keyboard-response","280","405810","0.0-3.0-1.225","<span style=""font-size:30px; font-family: monospace"">da</span>"," ","","exp-sent","da","","",""
"","471","html-keyboard-response","281","406533","0.0-3.0-1.226","<span style=""font-size:30px; font-family: monospace"">sala</span>"," ","","exp-sent","sala","","",""
"","418","html-keyboard-response","282","407204","0.0-3.0-1.227","<span style=""font-size:30px; font-family: monospace"">eram</span>"," ","","exp-sent","eram","","",""
"","434","html-keyboard-response","283","407890","0.0-3.0-1.228","<span style=""font-size:30px; font-family: monospace"">da</span>"," ","","exp-sent","da","","",""
"","513","html-keyboard-response","284","408653","0.0-3.0-1.229","<span style=""font-size:30px; font-family: monospace"">minha</span>"," ","","exp-sent","minha","","",""
"","432","html-keyboard-response","285","409337","0.0-3.0-1.230","<span style=""font-size:30px; font-family: monospace"">vó.</span>"," ","","comp","vó.","","",""
"","5288","html-keyboard-response","286","414877","0.0-3.0-2.230-0.230","<span style=""font-size:30px; font-family: monospace"">As cadeiras eram da avó?</span>","n","","comp","","As cadeiras eram da avó?","sim","false"
"","null","html-keyboard-response","287","416391","0.0-3.0-0.231-0.231","<span style= ""font-size:30px; font-family: monospace"">+</span>","null","fixation","","","","",""
"","550","html-keyboard-response","288","417192","0.0-3.0-1.231","<span style=""font-size:30px; font-family: monospace"">A</span>"," ","","exp-sent","A","","",""
"","469","html-keyboard-response","289","417912","0.0-3.0-1.232","<span style=""font-size:30px; font-family: monospace"">força</span>"," ","","exp-sent","força","","",""
"","593","html-keyboard-response","290","418758","0.0-3.0-1.233","<span style=""font-size:30px; font-family: monospace"">d'água</span>"," ","","exp-sent","d'água","","",""
"","540","html-keyboard-response","291","419550","0.0-3.0-1.234","<span style=""font-size:30px; font-family: monospace"">estava</span>"," ","","exp-sent","estava","","",""
"","584","html-keyboard-response","292","420386","0.0-3.0-1.235","<span style=""font-size:30px; font-family: monospace"">normal</span>"," ","","exp-sent","normal","","",""
"","436","html-keyboard-response","293","421072","0.0-3.0-1.236","<span style=""font-size:30px; font-family: monospace"">naquele</span>"," ","","exp-sent","naquele","","",""
"","497","html-keyboard-response","294","421821","0.0-3.0-1.237","<span style=""font-size:30px; font-family: monospace"">dia.</span>"," ","","exp-sent","dia.","","",""
"","null","html-keyboard-response","295","423074","0.0-3.0-0.238-0.238","<span style= ""font-size:30px; font-family: monospace"">+</span>","null","fixation","","","","",""
"","486","html-keyboard-response","296","423813","0.0-3.0-1.238","<span style=""font-size:30px; font-family: monospace"">A</span>"," ","","exp-sent","A","","",""
"","419","html-keyboard-response","297","424484","0.0-3.0-1.239","<span style=""font-size:30px; font-family: monospace"">médica</span>"," ","","exp-sent","médica","","",""
"","403","html-keyboard-response","298","425145","0.0-3.0-1.240","<span style=""font-size:30px; font-family: monospace"">ofereceu</span>"," ","","exp-sent","ofereceu","","",""
"","423","html-keyboard-response","299","425820","0.0-3.0-1.241","<span style=""font-size:30px; font-family: monospace"">a</span>"," ","","exp-sent","a","","",""
"","483","html-keyboard-response","300","426555","0.0-3.0-1.242","<span style=""font-size:30px; font-family: monospace"">pomada</span>"," ","","exp-sent","pomada","","",""
"","545","html-keyboard-response","301","427352","0.0-3.0-1.243","<span style=""font-size:30px; font-family: monospace"">para</span>"," ","","exp-sent","para","","",""
"","523","html-keyboard-response","302","428126","0.0-3.0-1.244","<span style=""font-size:30px; font-family: monospace"">o</span>"," ","","exp-sent","o","","",""
"","485","html-keyboard-response","303","428864","0.0-3.0-1.245","<span style=""font-size:30px; font-family: monospace"">avô.</span>"," ","","exp-sent","avô.","","",""
"","null","html-keyboard-response","304","430126","0.0-3.0-0.246-0.246","<span style= ""font-size:30px; font-family: monospace"">+</span>","null","fixation","","","","",""
"","200","html-keyboard-response","305","430577","0.0-3.0-1.246","<span style=""font-size:30px; font-family: monospace"">Ele</span>"," ","","exp-sent","Ele","","",""
"","514","html-keyboard-response","306","431342","0.0-3.0-1.247","<span style=""font-size:30px; font-family: monospace"">conversou</span>"," ","","exp-sent","conversou","","",""
"","476","html-keyboard-response","307","432070","0.0-3.0-1.248","<span style=""font-size:30px; font-family: monospace"">com</span>"," ","","exp-sent","com","","",""
"","474","html-keyboard-response","308","432795","0.0-3.0-1.249","<span style=""font-size:30px; font-family: monospace"">o</span>"," ","","exp-sent","o","","",""
"","502","html-keyboard-response","309","433548","0.0-3.0-1.250","<span style=""font-size:30px; font-family: monospace"">patrão</span>"," ","","exp-sent","patrão","","",""
"","423","html-keyboard-response","310","434223","0.0-3.0-1.251","<span style=""font-size:30px; font-family: monospace"">durante</span>"," ","","exp-sent","durante","","",""
"","393","html-keyboard-response","311","434868","0.0-3.0-1.252","<span style=""font-size:30px; font-family: monospace"">a</span>"," ","","exp-sent","a","","",""
"","530","html-keyboard-response","312","435650","0.0-3.0-1.253","<span style=""font-size:30px; font-family: monospace"">tarde.</span>"," ","","exp-sent","tarde.","","",""
"","null","html-keyboard-response","313","436903","0.0-3.0-0.254-0.254","<span style= ""font-size:30px; font-family: monospace"">+</span>","null","fixation","","","","",""
"","539","html-keyboard-response","314","437693","0.0-3.0-1.254","<span style=""font-size:30px; font-family: monospace"">Algumas</span>"," ","","exp-sent","Algumas","","",""
"","412","html-keyboard-response","315","438360","0.0-3.0-1.255","<span style=""font-size:30px; font-family: monospace"">pessoas</span>"," ","","exp-sent","pessoas","","",""
"","409","html-keyboard-response","316","439021","0.0-3.0-1.256","<span style=""font-size:30px; font-family: monospace"">acreditam</span>"," ","","exp-sent","acreditam","","",""
"","471","html-keyboard-response","317","439743","0.0-3.0-1.257","<span style=""font-size:30px; font-family: monospace"">em</span>"," ","","exp-sent","em","","",""
"","514","html-keyboard-response","318","440509","0.0-3.0-1.258","<span style=""font-size:30px; font-family: monospace"">espíritos</span>"," ","","exp-sent","espíritos","","",""
"","465","html-keyboard-response","319","441226","0.0-3.0-1.259","<span style=""font-size:30px; font-family: monospace"">e</span>"," ","","exp-sent","e","","",""
"","434","html-keyboard-response","320","441912","0.0-3.0-1.260","<span style=""font-size:30px; font-family: monospace"">em</span>"," ","","exp-sent","em","","",""
"","495","html-keyboard-response","321","442660","0.0-3.0-1.261","<span style=""font-size:30px; font-family: monospace"">outras</span>"," ","","exp-sent","outras","","",""
"","512","html-keyboard-response","322","443423","0.0-3.0-1.262","<span style=""font-size:30px; font-family: monospace"">vidas.</span>"," ","","exp-sent","vidas.","","",""
"","null","html-keyboard-response","323","444688","0.0-3.0-0.263-0.263","<span style= ""font-size:30px; font-family: monospace"">+</span>","null","fixation","","","","",""
"","451","html-keyboard-response","324","445390","0.0-3.0-1.263","<span style=""font-size:30px; font-family: monospace"">Ela</span>"," ","","exp-sent","Ela","","",""
"","471","html-keyboard-response","325","446113","0.0-3.0-1.264","<span style=""font-size:30px; font-family: monospace"">gosta</span>"," ","","exp-sent","gosta","","",""
"","420","html-keyboard-response","326","446785","0.0-3.0-1.265","<span style=""font-size:30px; font-family: monospace"">de</span>"," ","","exp-sent","de","","",""
"","517","html-keyboard-response","327","447553","0.0-3.0-1.266","<span style=""font-size:30px; font-family: monospace"">estudar</span>"," ","","exp-sent","estudar","","",""
"","2702","html-keyboard-response","328","450506","0.0-3.0-1.267","<span style=""font-size:30px; font-family: monospace"">matemática</span>"," ","","exp-sent","matemática","","",""
"","483","html-keyboard-response","329","451241","0.0-3.0-1.268","<span style=""font-size:30px; font-family: monospace"">com</span>"," ","","exp-sent","com","","",""
"","511","html-keyboard-response","330","452002","0.0-3.0-1.269","<span style=""font-size:30px; font-family: monospace"">colegas.</span>"," ","","comp","colegas.","","",""
"","73332","html-keyboard-response","331","525586","0.0-3.0-2.269-0.269","<span style=""font-size:30px; font-family: monospace"">Ela gosta de estudar física?</span>","n","","comp","","Ela gosta de estudar física?","não","false"
"","null","html-keyboard-response","332","527088","0.0-3.0-0.270-0.270","<span style= ""font-size:30px; font-family: monospace"">+</span>","null","fixation","","","","",""
"","11555","html-keyboard-response","333","538894","0.0-3.0-1.270","<span style=""font-size:30px; font-family: monospace"">A</span>"," ","","exp-sent","A","","",""
"","644","html-keyboard-response","334","539790","0.0-3.0-1.271","<span style=""font-size:30px; font-family: monospace"">senhora</span>"," ","","exp-sent","senhora","","",""
"","650","html-keyboard-response","335","540691","0.0-3.0-1.272","<span style=""font-size:30px; font-family: monospace"">cumprimentou</span>"," ","","exp-sent","cumprimentou","","",""
"","609","html-keyboard-response","336","541551","0.0-3.0-1.273","<span style=""font-size:30px; font-family: monospace"">o</span>"," ","","exp-sent","o","","",""
"","441","html-keyboard-response","337","542243","0.0-3.0-1.274","<span style=""font-size:30px; font-family: monospace"">operador</span>"," ","","exp-sent","operador","","",""
"","545","html-keyboard-response","338","543040","0.0-3.0-1.275","<span style=""font-size:30px; font-family: monospace"">de</span>"," ","","exp-sent","de","","",""
"","440","html-keyboard-response","339","543732","0.0-3.0-1.276","<span style=""font-size:30px; font-family: monospace"">caixa.</span>"," ","","exp-sent","caixa.","","",""
"","null","html-keyboard-response","340","544984","0.0-3.0-0.277-0.277","<span style= ""font-size:30px; font-family: monospace"">+</span>","null","fixation","","","","",""
"","133","html-keyboard-response","341","545369","0.0-3.0-1.277","<span style=""font-size:30px; font-family: monospace"">A</span>"," ","","exp-sent","A","","",""
"","475","html-keyboard-response","342","546096","0.0-3.0-1.278","<span style=""font-size:30px; font-family: monospace"">gente</span>"," ","","exp-sent","gente","","",""
"","402","html-keyboard-response","343","546749","0.0-3.0-1.279","<span style=""font-size:30px; font-family: monospace"">viu</span>"," ","","exp-sent","viu","","",""
"","420","html-keyboard-response","344","547422","0.0-3.0-1.280","<span style=""font-size:30px; font-family: monospace"">o</span>"," ","","exp-sent","o","","",""
"","464","html-keyboard-response","345","548138","0.0-3.0-1.281","<span style=""font-size:30px; font-family: monospace"">eclipse</span>"," ","","exp-sent","eclipse","","",""
"","427","html-keyboard-response","346","548816","0.0-3.0-1.282","<span style=""font-size:30px; font-family: monospace"">lunar</span>"," ","","exp-sent","lunar","","",""
"","477","html-keyboard-response","347","549545","0.0-3.0-1.283","<span style=""font-size:30px; font-family: monospace"">durante</span>"," ","","exp-sent","durante","","",""
"","451","html-keyboard-response","348","550248","0.0-3.0-1.284","<span style=""font-size:30px; font-family: monospace"">o</span>"," ","","exp-sent","o","","",""
"","415","html-keyboard-response","349","550914","0.0-3.0-1.285","<span style=""font-size:30px; font-family: monospace"">dia.</span>"," ","","exp-sent","dia.","","",""
"","null","html-keyboard-response","350","552167","0.0-3.0-0.286-0.286","<span style= ""font-size:30px; font-family: monospace"">+</span>","null","fixation","","","","",""
"","374","html-keyboard-response","351","552792","0.0-3.0-1.286","<span style=""font-size:30px; font-family: monospace"">A</span>"," ","","exp-sent","A","","",""
"","468","html-keyboard-response","352","553511","0.0-3.0-1.287","<span style=""font-size:30px; font-family: monospace"">mordida</span>"," ","","exp-sent","mordida","","",""
"","453","html-keyboard-response","353","554215","0.0-3.0-1.288","<span style=""font-size:30px; font-family: monospace"">do</span>"," ","","exp-sent","do","","",""
"","476","html-keyboard-response","354","554942","0.0-3.0-1.289","<span style=""font-size:30px; font-family: monospace"">cachorro</span>"," ","","exp-sent","cachorro","","",""
"","691","html-keyboard-response","355","555885","0.0-3.0-1.290","<span style=""font-size:30px; font-family: monospace"">voraz</span>"," ","","exp-sent","voraz","","",""
"","491","html-keyboard-response","356","556628","0.0-3.0-1.291","<span style=""font-size:30px; font-family: monospace"">causou</span>"," ","","exp-sent","causou","","",""
"","397","html-keyboard-response","357","557276","0.0-3.0-1.292","<span style=""font-size:30px; font-family: monospace"">uma</span>"," ","","exp-sent","uma","","",""
"","1073","html-keyboard-response","358","558601","0.0-3.0-1.293","<span style=""font-size:30px; font-family: monospace"">cicatriz.</span>"," ","","exp-sent","cicatriz.","","",""
"","null","html-keyboard-response","359","559853","0.0-3.0-0.294-0.294","<span style= ""font-size:30px; font-family: monospace"">+</span>","null","fixation","","","","",""
"","795","html-keyboard-response","360","560899","0.0-3.0-1.294","<span style=""font-size:30px; font-family: monospace"">Elas</span>"," ","","exp-sent","Elas","","",""
"","693","html-keyboard-response","361","561844","0.0-3.0-1.295","<span style=""font-size:30px; font-family: monospace"">não</span>"," ","","exp-sent","não","","",""
"","725","html-keyboard-response","362","562821","0.0-3.0-1.296","<span style=""font-size:30px; font-family: monospace"">viram</span>"," ","","exp-sent","viram","","",""
"","945","html-keyboard-response","363","564019","0.0-3.0-1.297","<span style=""font-size:30px; font-family: monospace"">nenhuma</span>"," ","","exp-sent","nenhuma","","",""
"","998","html-keyboard-response","364","565268","0.0-3.0-1.298","<span style=""font-size:30px; font-family: monospace"">diferença</span>"," ","","exp-sent","diferença","","",""
"","561","html-keyboard-response","365","566081","0.0-3.0-1.299","<span style=""font-size:30px; font-family: monospace"">entre</span>"," ","","exp-sent","entre","","",""
"","513","html-keyboard-response","366","566845","0.0-3.0-1.300","<span style=""font-size:30px; font-family: monospace"">os</span>"," ","","exp-sent","os","","",""
"","665","html-keyboard-response","367","567761","0.0-3.0-1.301","<span style=""font-size:30px; font-family: monospace"">textos.</span>"," ","","exp-sent","textos.","","",""
"","null","html-keyboard-response","368","569013","0.0-3.0-0.302-0.302","<span style= ""font-size:30px; font-family: monospace"">+</span>","null","fixation","","","","",""
"","402","html-keyboard-response","369","569666","0.0-3.0-1.302","<span style=""font-size:30px; font-family: monospace"">Amanhã</span>"," ","","exp-sent","Amanhã","","",""
"","592","html-keyboard-response","370","570510","0.0-3.0-1.303","<span style=""font-size:30px; font-family: monospace"">vai</span>"," ","","exp-sent","vai","","",""
"","523","html-keyboard-response","371","571285","0.0-3.0-1.304","<span style=""font-size:30px; font-family: monospace"">ter</span>"," ","","exp-sent","ter","","",""
"","429","html-keyboard-response","372","571967","0.0-3.0-1.305","<span style=""font-size:30px; font-family: monospace"">um</span>"," ","","exp-sent","um","","",""
"","526","html-keyboard-response","373","572745","0.0-3.0-1.306","<span style=""font-size:30px; font-family: monospace"">bazar</span>"," ","","exp-sent","bazar","","",""
"","573","html-keyboard-response","374","573571","0.0-3.0-1.307","<span style=""font-size:30px; font-family: monospace"">no</span>"," ","","exp-sent","no","","",""
"","1627","html-keyboard-response","375","575450","0.0-3.0-1.308","<span style=""font-size:30px; font-family: monospace"">bairro.</span>"," ","","comp","bairro.","","",""
"","7552","html-keyboard-response","376","583255","0.0-3.0-2.308-0.308","<span style=""font-size:30px; font-family: monospace"">Amanhã vai acontecer um bazar no bairro?</span>","s","","comp","","Amanhã vai acontecer um bazar no bairro?","sim","false"
"","null","html-keyboard-response","377","584757","0.0-3.0-0.309-0.309","<span style= ""font-size:30px; font-family: monospace"">+</span>","null","fixation","","","","",""
"","151","html-keyboard-response","378","585159","0.0-3.0-1.309","<span style=""font-size:30px; font-family: monospace"">Este</span>"," ","","exp-sent","Este","","",""
"","508","html-keyboard-response","379","585919","0.0-3.0-1.310","<span style=""font-size:30px; font-family: monospace"">conto</span>"," ","","exp-sent","conto","","",""
"","517","html-keyboard-response","380","586688","0.0-3.0-1.311","<span style=""font-size:30px; font-family: monospace"">tem</span>"," ","","exp-sent","tem","","",""
"","445","html-keyboard-response","381","587385","0.0-3.0-1.312","<span style=""font-size:30px; font-family: monospace"">um</span>"," ","","exp-sent","um","","",""
"","367","html-keyboard-response","382","588004","0.0-3.0-1.313","<span style=""font-size:30px; font-family: monospace"">final</span>"," ","","exp-sent","final","","",""
"","532","html-keyboard-response","383","588788","0.0-3.0-1.314","<span style=""font-size:30px; font-family: monospace"">perfeito.</span>"," ","","exp-sent","perfeito.","","",""
"","null","html-keyboard-response","384","590039","0.0-3.0-0.315-0.315","<span style= ""font-size:30px; font-family: monospace"">+</span>","null","fixation","","","","",""
"","591","html-keyboard-response","385","590881","0.0-3.0-1.315","<span style=""font-size:30px; font-family: monospace"">Ele</span>"," ","","exp-sent","Ele","","",""
"","378","html-keyboard-response","386","591511","0.0-3.0-1.316","<span style=""font-size:30px; font-family: monospace"">precisa</span>"," ","","exp-sent","precisa","","",""
"","462","html-keyboard-response","387","592225","0.0-3.0-1.317","<span style=""font-size:30px; font-family: monospace"">de</span>"," ","","exp-sent","de","","",""
"","421","html-keyboard-response","388","592897","0.0-3.0-1.318","<span style=""font-size:30px; font-family: monospace"">um</span>"," ","","exp-sent","um","","",""
"","1539","html-keyboard-response","389","594687","0.0-3.0-1.319","<span style=""font-size:30px; font-family: monospace"">protetor</span>"," ","","exp-sent","protetor","","",""
"","461","html-keyboard-response","390","595399","0.0-3.0-1.320","<span style=""font-size:30px; font-family: monospace"">de</span>"," ","","exp-sent","de","","",""
"","1072","html-keyboard-response","391","596723","0.0-3.0-1.321","<span style=""font-size:30px; font-family: monospace"">ouvido.</span>"," ","","exp-sent","ouvido.","","",""
"","null","html-keyboard-response","392","597975","0.0-3.0-0.322-0.322","<span style= ""font-size:30px; font-family: monospace"">+</span>","null","fixation","","","","",""
"","317","html-keyboard-response","393","598544","0.0-3.0-1.322","<span style=""font-size:30px; font-family: monospace"">Os</span>"," ","","exp-sent","Os","","",""
"","787","html-keyboard-response","394","599582","0.0-3.0-1.323","<span style=""font-size:30px; font-family: monospace"">hábitos</span>"," ","","exp-sent","hábitos","","",""
"","495","html-keyboard-response","395","600329","0.0-3.0-1.324","<span style=""font-size:30px; font-family: monospace"">de</span>"," ","","exp-sent","de","","",""
"","550","html-keyboard-response","396","601131","0.0-3.0-1.325","<span style=""font-size:30px; font-family: monospace"">lugares</span>"," ","","exp-sent","lugares","","",""
"","621","html-keyboard-response","397","602004","0.0-3.0-1.326","<span style=""font-size:30px; font-family: monospace"">diferentes</span>"," ","","exp-sent","diferentes","","",""
"","696","html-keyboard-response","398","602957","0.0-3.0-1.327","<span style=""font-size:30px; font-family: monospace"">são</span>"," ","","exp-sent","são","","",""
"","717","html-keyboard-response","399","603926","0.0-3.0-1.328","<span style=""font-size:30px; font-family: monospace"">muito</span>"," ","","exp-sent","muito","","",""
"","431","html-keyboard-response","400","604609","0.0-3.0-1.329","<span style=""font-size:30px; font-family: monospace"">lindos.</span>"," ","","exp-sent","lindos.","","",""
"","null","html-keyboard-response","401","605862","0.0-3.0-0.330-0.330","<span style= ""font-size:30px; font-family: monospace"">+</span>","null","fixation","","","","",""
"","27","html-keyboard-response","402","606141","0.0-3.0-1.330","<span style=""font-size:30px; font-family: monospace"">O</span>"," ","","exp-sent","O","","",""
"","605","html-keyboard-response","403","606998","0.0-3.0-1.331","<span style=""font-size:30px; font-family: monospace"">médico</span>"," ","","exp-sent","médico","","",""
"","2415","html-keyboard-response","404","609664","0.0-3.0-1.332","<span style=""font-size:30px; font-family: monospace"">corrigiu</span>"," ","","exp-sent","corrigiu","","",""
"","382","html-keyboard-response","405","610302","0.0-3.0-1.333","<span style=""font-size:30px; font-family: monospace"">a</span>"," ","","exp-sent","a","","",""
"","493","html-keyboard-response","406","611046","0.0-3.0-1.334","<span style=""font-size:30px; font-family: monospace"">postura</span>"," ","","exp-sent","postura","","",""
"","1335","html-keyboard-response","407","612633","0.0-3.0-1.335","<span style=""font-size:30px; font-family: monospace"">das</span>"," ","","exp-sent","das","","",""
"","1626","html-keyboard-response","408","614522","0.0-3.0-1.336","<span style=""font-size:30px; font-family: monospace"">costas</span>"," ","","exp-sent","costas","","",""
"","802","html-keyboard-response","409","615575","0.0-3.0-1.337","<span style=""font-size:30px; font-family: monospace"">da</span>"," ","","exp-sent","da","","",""
"","356","html-keyboard-response","410","616182","0.0-3.0-1.338","<span style=""font-size:30px; font-family: monospace"">pessoa.</span>"," ","","exp-sent","pessoa.","","",""
"","null","html-keyboard-response","411","617434","0.0-3.0-0.339-0.339","<span style= ""font-size:30px; font-family: monospace"">+</span>","null","fixation","","","","",""
"","20","html-keyboard-response","412","617706","0.0-3.0-1.339","<span style=""font-size:30px; font-family: monospace"">Aquele</span>"," ","","exp-sent","Aquele","","",""
"","440","html-keyboard-response","413","618398","0.0-3.0-1.340","<span style=""font-size:30px; font-family: monospace"">era</span>"," ","","exp-sent","era","","",""
"","499","html-keyboard-response","414","619150","0.0-3.0-1.341","<span style=""font-size:30px; font-family: monospace"">um</span>"," ","","exp-sent","um","","",""
"","428","html-keyboard-response","415","619829","0.0-3.0-1.342","<span style=""font-size:30px; font-family: monospace"">caso</span>"," ","","exp-sent","caso","","",""
"","355","html-keyboard-response","416","620436","0.0-3.0-1.343","<span style=""font-size:30px; font-family: monospace"">real</span>"," ","","exp-sent","real","","",""
"","427","html-keyboard-response","417","621115","0.0-3.0-1.344","<span style=""font-size:30px; font-family: monospace"">de</span>"," ","","exp-sent","de","","",""
"","1484","html-keyboard-response","418","622850","0.0-3.0-1.345","<span style=""font-size:30px; font-family: monospace"">sequestro</span>"," ","","exp-sent","sequestro","","",""
"","1194","html-keyboard-response","419","624296","0.0-3.0-1.346","<span style=""font-size:30px; font-family: monospace"">premeditado.</span>"," ","","comp","premeditado.","","",""
"","13748","html-keyboard-response","420","638295","0.0-3.0-2.346-0.346","<span style=""font-size:30px; font-family: monospace"">Aquele era um caso real de roubo?</span>","n","","comp","","Aquele era um caso real de roubo?","não","false"
"","null","html-keyboard-response","421","639798","0.0-3.0-0.347-0.347","<span style= ""font-size:30px; font-family: monospace"">+</span>","null","fixation","","","","",""
"","394","html-keyboard-response","422","640445","0.0-3.0-1.347","<span style=""font-size:30px; font-family: monospace"">No</span>"," ","","exp-sent","No","","",""
"","553","html-keyboard-response","423","641263","0.0-3.0-1.348","<span style=""font-size:30px; font-family: monospace"">passado</span>"," ","","exp-sent","passado","","",""
"","502","html-keyboard-response","424","642017","0.0-3.0-1.349","<span style=""font-size:30px; font-family: monospace"">houve</span>"," ","","exp-sent","houve","","",""
"","729","html-keyboard-response","425","642997","0.0-3.0-1.350","<span style=""font-size:30px; font-family: monospace"">uma</span>"," ","","exp-sent","uma","","",""
"","488","html-keyboard-response","426","643737","0.0-3.0-1.351","<span style=""font-size:30px; font-family: monospace"">rebelião</span>"," ","","exp-sent","rebelião","","",""
"","514","html-keyboard-response","427","644503","0.0-3.0-1.352","<span style=""font-size:30px; font-family: monospace"">nesta</span>"," ","","exp-sent","nesta","","",""
"","438","html-keyboard-response","428","645192","0.0-3.0-1.353","<span style=""font-size:30px; font-family: monospace"">cidade.</span>"," ","","exp-sent","cidade.","","",""
"","null","html-keyboard-response","429","646444","0.0-3.0-0.354-0.354","<span style= ""font-size:30px; font-family: monospace"">+</span>","null","fixation","","","","",""
"","606","html-keyboard-response","430","647302","0.0-3.0-1.354","<span style=""font-size:30px; font-family: monospace"">Ele</span>"," ","","exp-sent","Ele","","",""
"","715","html-keyboard-response","431","648269","0.0-3.0-1.355","<span style=""font-size:30px; font-family: monospace"">fundou</span>"," ","","exp-sent","fundou","","",""
"","700","html-keyboard-response","432","649221","0.0-3.0-1.356","<span style=""font-size:30px; font-family: monospace"">uma</span>"," ","","exp-sent","uma","","",""
"","1557","html-keyboard-response","433","651028","0.0-3.0-1.357","<span style=""font-size:30px; font-family: monospace"">empresa</span>"," ","","exp-sent","empresa","","",""
"","770","html-keyboard-response","434","652051","0.0-3.0-1.358","<span style=""font-size:30px; font-family: monospace"">privada</span>"," ","","exp-sent","privada","","",""
"","650","html-keyboard-response","435","652952","0.0-3.0-1.359","<span style=""font-size:30px; font-family: monospace"">sem</span>"," ","","exp-sent","sem","","",""
"","983","html-keyboard-response","436","654187","0.0-3.0-1.360","<span style=""font-size:30px; font-family: monospace"">ajuda.</span>"," ","","exp-sent","ajuda.","","",""
"","null","html-keyboard-response","437","655440","0.0-3.0-0.361-0.361","<span style= ""font-size:30px; font-family: monospace"">+</span>","null","fixation","","","","",""
"","745","html-keyboard-response","438","656436","0.0-3.0-1.361","<span style=""font-size:30px; font-family: monospace"">As</span>"," ","","exp-sent","As","","",""
"","550","html-keyboard-response","439","657238","0.0-3.0-1.362","<span style=""font-size:30px; font-family: monospace"">meninas</span>"," ","","exp-sent","meninas","","",""
"","441","html-keyboard-response","440","657930","0.0-3.0-1.363","<span style=""font-size:30px; font-family: monospace"">encontraram</span>"," ","","exp-sent","encontraram","","",""
"","760","html-keyboard-response","441","658941","0.0-3.0-1.364","<span style=""font-size:30px; font-family: monospace"">um</span>"," ","","exp-sent","um","","",""
"","418","html-keyboard-response","442","659611","0.0-3.0-1.365","<span style=""font-size:30px; font-family: monospace"">rato</span>"," ","","exp-sent","rato","","",""
"","397","html-keyboard-response","443","660260","0.0-3.0-1.366","<span style=""font-size:30px; font-family: monospace"">dentro</span>"," ","","exp-sent","dentro","","",""
"","423","html-keyboard-response","444","660935","0.0-3.0-1.367","<span style=""font-size:30px; font-family: monospace"">de</span>"," ","","exp-sent","de","","",""
"","1067","html-keyboard-response","445","662254","0.0-3.0-1.368","<span style=""font-size:30px; font-family: monospace"">casa.</span>"," ","","exp-sent","casa.","","",""
"","null","html-keyboard-response","446","663508","0.0-3.0-0.369-0.369","<span style= ""font-size:30px; font-family: monospace"">+</span>","null","fixation","","","","",""
"","92","html-keyboard-response","447","663851","0.0-3.0-1.369","<span style=""font-size:30px; font-family: monospace"">O</span>"," ","","exp-sent","O","","",""
"","406","html-keyboard-response","448","664510","0.0-3.0-1.370","<span style=""font-size:30px; font-family: monospace"">texto</span>"," ","","exp-sent","texto","","",""
"","583","html-keyboard-response","449","665345","0.0-3.0-1.371","<span style=""font-size:30px; font-family: monospace"">tinha</span>"," ","","exp-sent","tinha","","",""
"","526","html-keyboard-response","450","666122","0.0-3.0-1.372","<span style=""font-size:30px; font-family: monospace"">ideias</span>"," ","","exp-sent","ideias","","",""
"","1711","html-keyboard-response","451","668084","0.0-3.0-1.373","<span style=""font-size:30px; font-family: monospace"">vagas</span>"," ","","exp-sent","vagas","","",""
"","467","html-keyboard-response","452","668812","0.0-3.0-1.374","<span style=""font-size:30px; font-family: monospace"">e</span>"," ","","exp-sent","e","","",""
"","2123","html-keyboard-response","453","671187","0.0-3.0-1.375","<span style=""font-size:30px; font-family: monospace"">confusas.</span>"," ","","exp-sent","confusas.","","",""
"","null","html-keyboard-response","454","672438","0.0-3.0-0.376-0.376","<span style= ""font-size:30px; font-family: monospace"">+</span>","null","fixation","","","","",""
"","446","html-keyboard-response","455","673135","0.0-3.0-1.376","<span style=""font-size:30px; font-family: monospace"">As</span>"," ","","exp-sent","As","","",""
"","759","html-keyboard-response","456","674147","0.0-3.0-1.377","<span style=""font-size:30px; font-family: monospace"">crianças</span>"," ","","exp-sent","crianças","","",""
"","514","html-keyboard-response","457","674913","0.0-3.0-1.378","<span style=""font-size:30px; font-family: monospace"">viram</span>"," ","","exp-sent","viram","","",""
"","768","html-keyboard-response","458","675933","0.0-3.0-1.379","<span style=""font-size:30px; font-family: monospace"">a</span>"," ","","exp-sent","a","","",""
"","1001","html-keyboard-response","459","677186","0.0-3.0-1.380","<span style=""font-size:30px; font-family: monospace"">acrobata</span>"," ","","exp-sent","acrobata","","",""
"","874","html-keyboard-response","460","678312","0.0-3.0-1.381","<span style=""font-size:30px; font-family: monospace"">talentosa</span>"," ","","exp-sent","talentosa","","",""
"","571","html-keyboard-response","461","679135","0.0-3.0-1.382","<span style=""font-size:30px; font-family: monospace"">no</span>"," ","","exp-sent","no","","",""
"","434","html-keyboard-response","462","679821","0.0-3.0-1.383","<span style=""font-size:30px; font-family: monospace"">circo.</span>"," ","","comp","circo.","","",""
"","26876","html-keyboard-response","463","706949","0.0-3.0-2.383-0.383","<span style=""font-size:30px; font-family: monospace"">As crianças viram o palhaço no circo?</span>","s","","comp","","As crianças viram o palhaço no circo?","não","false"
"","null","html-keyboard-response","464","708459","0.0-3.0-0.384-0.384","<span style= ""font-size:30px; font-family: monospace"">+</span>","null","fixation","","","","",""
"","323","html-keyboard-response","465","709034","0.0-3.0-1.384","<span style=""font-size:30px; font-family: monospace"">O</span>"," ","","exp-sent","O","","",""
"","26037","html-keyboard-response","466","735322","0.0-3.0-1.385","<span style=""font-size:30px; font-family: monospace"">texto</span>"," ","","exp-sent","texto","","",""
"","463","html-keyboard-response","467","736036","0.0-3.0-1.386","<span style=""font-size:30px; font-family: monospace"">trazia</span>"," ","","exp-sent","trazia","","",""
"","353","html-keyboard-response","468","736641","0.0-3.0-1.387","<span style=""font-size:30px; font-family: monospace"">um</span>"," ","","exp-sent","um","","",""
"","465","html-keyboard-response","469","737358","0.0-3.0-1.388","<span style=""font-size:30px; font-family: monospace"">argumento</span>"," ","","exp-sent","argumento","","",""
"","496","html-keyboard-response","470","738105","0.0-3.0-1.389","<span style=""font-size:30px; font-family: monospace"">central</span>"," ","","exp-sent","central","","",""
"","487","html-keyboard-response","471","738844","0.0-3.0-1.390","<span style=""font-size:30px; font-family: monospace"">para</span>"," ","","exp-sent","para","","",""
"","416","html-keyboard-response","472","739512","0.0-3.0-1.391","<span style=""font-size:30px; font-family: monospace"">a</span>"," ","","exp-sent","a","","",""
"","1514","html-keyboard-response","473","741277","0.0-3.0-1.392","<span style=""font-size:30px; font-family: monospace"">conversa.</span>"," ","","exp-sent","conversa.","","",""
"","null","html-keyboard-response","474","742529","0.0-3.0-0.393-0.393","<span style= ""font-size:30px; font-family: monospace"">+</span>","null","fixation","","","","",""
"","37","html-keyboard-response","475","742817","0.0-3.0-1.393","<span style=""font-size:30px; font-family: monospace"">Ontem</span>"," ","","exp-sent","Ontem","","",""
"","464","html-keyboard-response","476","743533","0.0-3.0-1.394","<span style=""font-size:30px; font-family: monospace"">a</span>"," ","","exp-sent","a","","",""
"","2253","html-keyboard-response","477","746041","0.0-3.0-1.395","<span style=""font-size:30px; font-family: monospace"">temperatura</span>"," ","","exp-sent","temperatura","","",""
"","670","html-keyboard-response","478","746964","0.0-3.0-1.396","<span style=""font-size:30px; font-family: monospace"">estava</span>"," ","","exp-sent","estava","","",""
"","801","html-keyboard-response","479","748019","0.0-3.0-1.397","<span style=""font-size:30px; font-family: monospace"">amena</span>"," ","","exp-sent","amena","","",""
"","718","html-keyboard-response","480","748989","0.0-3.0-1.398","<span style=""font-size:30px; font-family: monospace"">durante</span>"," ","","exp-sent","durante","","",""
"","520","html-keyboard-response","481","749762","0.0-3.0-1.399","<span style=""font-size:30px; font-family: monospace"">o</span>"," ","","exp-sent","o","","",""
"","850","html-keyboard-response","482","750864","0.0-3.0-1.400","<span style=""font-size:30px; font-family: monospace"">dia.</span>"," ","","exp-sent","dia.","","",""
"","null","html-keyboard-response","483","752117","0.0-3.0-0.401-0.401","<span style= ""font-size:30px; font-family: monospace"">+</span>","null","fixation","","","","",""
"","621","html-keyboard-response","484","752990","0.0-3.0-1.401","<span style=""font-size:30px; font-family: monospace"">Havia</span>"," ","","exp-sent","Havia","","",""
"","587","html-keyboard-response","485","753828","0.0-3.0-1.402","<span style=""font-size:30px; font-family: monospace"">um</span>"," ","","exp-sent","um","","",""
"","2142","html-keyboard-response","486","756222","0.0-3.0-1.403","<span style=""font-size:30px; font-family: monospace"">machucado</span>"," ","","exp-sent","machucado","","",""
"","816","html-keyboard-response","487","757290","0.0-3.0-1.404","<span style=""font-size:30px; font-family: monospace"">no</span>"," ","","exp-sent","no","","",""
"","973","html-keyboard-response","488","758515","0.0-3.0-1.405","<span style=""font-size:30px; font-family: monospace"">dedo</span>"," ","","exp-sent","dedo","","",""
"","945","html-keyboard-response","489","759712","0.0-3.0-1.406","<span style=""font-size:30px; font-family: monospace"">da</span>"," ","","exp-sent","da","","",""
"","1560","html-keyboard-response","490","761524","0.0-3.0-1.407","<span style=""font-size:30px; font-family: monospace"">criança.</span>"," ","","exp-sent","criança.","","",""
"","null","html-keyboard-response","491","762786","0.0-3.0-0.408-0.408","<span style= ""font-size:30px; font-family: monospace"">+</span>","null","fixation","","","","",""
"","872","html-keyboard-response","492","763910","0.0-3.0-1.408","<span style=""font-size:30px; font-family: monospace"">A</span>"," ","","exp-sent","A","","",""
"","911","html-keyboard-response","493","765072","0.0-3.0-1.409","<span style=""font-size:30px; font-family: monospace"">borboleta</span>"," ","","exp-sent","borboleta","","",""
"","678","html-keyboard-response","494","766003","0.0-3.0-1.410","<span style=""font-size:30px; font-family: monospace"">pousou</span>"," ","","exp-sent","pousou","","",""
"","629","html-keyboard-response","495","766890","0.0-3.0-1.411","<span style=""font-size:30px; font-family: monospace"">no</span>"," ","","exp-sent","no","","",""
"","642","html-keyboard-response","496","767784","0.0-3.0-1.412","<span style=""font-size:30px; font-family: monospace"">ombro</span>"," ","","exp-sent","ombro","","",""
"","516","html-keyboard-response","497","768564","0.0-3.0-1.413","<span style=""font-size:30px; font-family: monospace"">daquela</span>"," ","","exp-sent","daquela","","",""
"","2941","html-keyboard-response","498","771762","0.0-3.0-1.414","<span style=""font-size:30px; font-family: monospace"">moça.</span>"," ","","exp-sent","moça.","","",""
"","null","html-keyboard-response","499","773016","0.0-3.0-0.415-0.415","<span style= ""font-size:30px; font-family: monospace"">+</span>","null","fixation","","","","",""
"","511","html-keyboard-response","500","773778","0.0-3.0-1.415","<span style=""font-size:30px; font-family: monospace"">Eu</span>"," ","","exp-sent","Eu","","",""
"","487","html-keyboard-response","501","774517","0.0-3.0-1.416","<span style=""font-size:30px; font-family: monospace"">quero</span>"," ","","exp-sent","quero","","",""
"","481","html-keyboard-response","502","775250","0.0-3.0-1.417","<span style=""font-size:30px; font-family: monospace"">um</span>"," ","","exp-sent","um","","",""
"","535","html-keyboard-response","503","776037","0.0-3.0-1.418","<span style=""font-size:30px; font-family: monospace"">namorado</span>"," ","","exp-sent","namorado","","",""
"","527","html-keyboard-response","504","776816","0.0-3.0-1.419","<span style=""font-size:30px; font-family: monospace"">honesto</span>"," ","","exp-sent","honesto","","",""
"","485","html-keyboard-response","505","777552","0.0-3.0-1.420","<span style=""font-size:30px; font-family: monospace"">e</span>"," ","","exp-sent","e","","",""
"","4396","html-keyboard-response","506","782199","0.0-3.0-1.421","<span style=""font-size:30px; font-family: monospace"">compreensivo.</span>"," ","","comp","compreensivo.","","",""
"","4827","html-keyboard-response","507","787277","0.0-3.0-2.421-0.421","<span style=""font-size:30px; font-family: monospace"">Eu quero um namorado honesto?</span>","n","","comp","","Eu quero um namorado honesto?","sim","false"
"","null","html-keyboard-response","508","788779","0.0-3.0-0.422-0.422","<span style= ""font-size:30px; font-family: monospace"">+</span>","null","fixation","","","","",""
"","2497","html-keyboard-response","509","791529","0.0-3.0-1.422","<span style=""font-size:30px; font-family: monospace"">Barulho</span>"," ","","exp-sent","Barulho","","",""
"","483","html-keyboard-response","510","792263","0.0-3.0-1.423","<span style=""font-size:30px; font-family: monospace"">de</span>"," ","","exp-sent","de","","",""
"","419","html-keyboard-response","511","792944","0.0-3.0-1.424","<span style=""font-size:30px; font-family: monospace"">carros</span>"," ","","exp-sent","carros","","",""
"","380","html-keyboard-response","512","793580","0.0-3.0-1.425","<span style=""font-size:30px; font-family: monospace"">é</span>"," ","","exp-sent","é","","",""
"","584","html-keyboard-response","513","794416","0.0-3.0-1.426","<span style=""font-size:30px; font-family: monospace"">irritante</span>"," ","","exp-sent","irritante","","",""
"","474","html-keyboard-response","514","795142","0.0-3.0-1.427","<span style=""font-size:30px; font-family: monospace"">para</span>"," ","","exp-sent","para","","",""
"","400","html-keyboard-response","515","795794","0.0-3.0-1.428","<span style=""font-size:30px; font-family: monospace"">a</span>"," ","","exp-sent","a","","",""
"","3031","html-keyboard-response","516","799077","0.0-3.0-1.429","<span style=""font-size:30px; font-family: monospace"">moça.</span>"," ","","exp-sent","moça.","","",""
"","null","html-keyboard-response","517","800330","0.0-3.0-0.430-0.430","<span style= ""font-size:30px; font-family: monospace"">+</span>","null","fixation","","","","",""
"","359","html-keyboard-response","518","800941","0.0-3.0-1.430","<span style=""font-size:30px; font-family: monospace"">A</span>"," ","","exp-sent","A","","",""
"","395","html-keyboard-response","519","801589","0.0-3.0-1.431","<span style=""font-size:30px; font-family: monospace"">loja</span>"," ","","exp-sent","loja","","",""
"","425","html-keyboard-response","520","802266","0.0-3.0-1.432","<span style=""font-size:30px; font-family: monospace"">também</span>"," ","","exp-sent","também","","",""
"","470","html-keyboard-response","521","802987","0.0-3.0-1.433","<span style=""font-size:30px; font-family: monospace"">vende</span>"," ","","exp-sent","vende","","",""
"","444","html-keyboard-response","522","803682","0.0-3.0-1.434","<span style=""font-size:30px; font-family: monospace"">taça</span>"," ","","exp-sent","taça","","",""
"","429","html-keyboard-response","523","804363","0.0-3.0-1.435","<span style=""font-size:30px; font-family: monospace"">de</span>"," ","","exp-sent","de","","",""
"","499","html-keyboard-response","524","805114","0.0-3.0-1.436","<span style=""font-size:30px; font-family: monospace"">vinho</span>"," ","","exp-sent","vinho","","",""
"","427","html-keyboard-response","525","805793","0.0-3.0-1.437","<span style=""font-size:30px; font-family: monospace"">e</span>"," ","","exp-sent","e","","",""
"","2760","html-keyboard-response","526","808804","0.0-3.0-1.438","<span style=""font-size:30px; font-family: monospace"">espumante.</span>"," ","","exp-sent","espumante.","","",""
"","null","html-keyboard-response","527","810071","0.0-3.0-0.439-0.439","<span style= ""font-size:30px; font-family: monospace"">+</span>","null","fixation","","","","",""
"","488","html-keyboard-response","528","810812","0.0-3.0-1.439","<span style=""font-size:30px; font-family: monospace"">A</span>"," ","","exp-sent","A","","",""
"","400","html-keyboard-response","529","811463","0.0-3.0-1.440","<span style=""font-size:30px; font-family: monospace"">bruxa</span>"," ","","exp-sent","bruxa","","",""
"","421","html-keyboard-response","530","812150","0.0-3.0-1.441","<span style=""font-size:30px; font-family: monospace"">tinha</span>"," ","","exp-sent","tinha","","",""
"","430","html-keyboard-response","531","812832","0.0-3.0-1.442","<span style=""font-size:30px; font-family: monospace"">uma</span>"," ","","exp-sent","uma","","",""
"","952","html-keyboard-response","532","814036","0.0-3.0-1.443","<span style=""font-size:30px; font-family: monospace"">vassoura</span>"," ","","exp-sent","vassoura","","",""
"","504","html-keyboard-response","533","814792","0.0-3.0-1.444","<span style=""font-size:30px; font-family: monospace"">e</span>"," ","","exp-sent","e","","",""
"","441","html-keyboard-response","534","815485","0.0-3.0-1.445","<span style=""font-size:30px; font-family: monospace"">um</span>"," ","","exp-sent","um","","",""
"","1807","html-keyboard-response","535","817544","0.0-3.0-1.446","<span style=""font-size:30px; font-family: monospace"">gato.</span>"," ","","exp-sent","gato.","","",""
"","null","html-keyboard-response","536","818796","0.0-3.0-0.447-0.447","<span style= ""font-size:30px; font-family: monospace"">+</span>","null","fixation","","","","",""
"","447","html-keyboard-response","537","819495","0.0-3.0-1.447","<span style=""font-size:30px; font-family: monospace"">Eu</span>"," ","","exp-sent","Eu","","",""
"","457","html-keyboard-response","538","820203","0.0-3.0-1.448","<span style=""font-size:30px; font-family: monospace"">me</span>"," ","","exp-sent","me","","",""
"","724","html-keyboard-response","539","821178","0.0-3.0-1.449","<span style=""font-size:30px; font-family: monospace"">divirto</span>"," ","","exp-sent","divirto","","",""
"","533","html-keyboard-response","540","821962","0.0-3.0-1.450","<span style=""font-size:30px; font-family: monospace"">em</span>"," ","","exp-sent","em","","",""
"","434","html-keyboard-response","541","822648","0.0-3.0-1.451","<span style=""font-size:30px; font-family: monospace"">festas</span>"," ","","exp-sent","festas","","",""
"","388","html-keyboard-response","542","823288","0.0-3.0-1.452","<span style=""font-size:30px; font-family: monospace"">de</span>"," ","","exp-sent","de","","",""
"","384","html-keyboard-response","543","823924","0.0-3.0-1.453","<span style=""font-size:30px; font-family: monospace"">criança.</span>"," ","","exp-sent","criança.","","",""
"","null","html-keyboard-response","544","825175","0.0-3.0-0.454-0.454","<span style= ""font-size:30px; font-family: monospace"">+</span>","null","fixation","","","","",""
"","260","html-keyboard-response","545","825688","0.0-3.0-1.454","<span style=""font-size:30px; font-family: monospace"">A</span>"," ","","exp-sent","A","","",""
"","471","html-keyboard-response","546","826411","0.0-3.0-1.455","<span style=""font-size:30px; font-family: monospace"">janela</span>"," ","","exp-sent","janela","","",""
"","438","html-keyboard-response","547","827100","0.0-3.0-1.456","<span style=""font-size:30px; font-family: monospace"">alta</span>"," ","","exp-sent","alta","","",""
"","444","html-keyboard-response","548","827797","0.0-3.0-1.457","<span style=""font-size:30px; font-family: monospace"">estava</span>"," ","","exp-sent","estava","","",""
"","420","html-keyboard-response","549","828469","0.0-3.0-1.458","<span style=""font-size:30px; font-family: monospace"">quebrada</span>"," ","","exp-sent","quebrada","","",""
"","470","html-keyboard-response","550","829191","0.0-3.0-1.459","<span style=""font-size:30px; font-family: monospace"">desde</span>"," ","","exp-sent","desde","","",""
"","1912","html-keyboard-response","551","831354","0.0-3.0-1.460","<span style=""font-size:30px; font-family: monospace"">ontem.</span>"," ","","comp","ontem.","","",""
"","4637","html-keyboard-response","552","836242","0.0-3.0-2.460-0.460","<span style=""font-size:30px; font-family: monospace"">A janela alta estava quebrada?</span>","n","","comp","","A janela alta estava quebrada?","sim","false"
"","null","html-keyboard-response","553","837746","0.0-3.0-0.461-0.461","<span style= ""font-size:30px; font-family: monospace"">+</span>","null","fixation","","","","",""
"","169","html-keyboard-response","554","838167","0.0-3.0-1.461","<span style=""font-size:30px; font-family: monospace"">A</span>"," ","","exp-sent","A","","",""
"","822","html-keyboard-response","555","839241","0.0-3.0-1.462","<span style=""font-size:30px; font-family: monospace"">motorista</span>"," ","","exp-sent","motorista","","",""
"","760","html-keyboard-response","556","840253","0.0-3.0-1.463","<span style=""font-size:30px; font-family: monospace"">fez</span>"," ","","exp-sent","fez","","",""
"","497","html-keyboard-response","557","841000","0.0-3.0-1.464","<span style=""font-size:30px; font-family: monospace"">o</span>"," ","","exp-sent","o","","",""
"","1028","html-keyboard-response","558","842279","0.0-3.0-1.465","<span style=""font-size:30px; font-family: monospace"">retorno</span>"," ","","exp-sent","retorno","","",""
"","527","html-keyboard-response","559","843058","0.0-3.0-1.466","<span style=""font-size:30px; font-family: monospace"">com</span>"," ","","exp-sent","com","","",""
"","1906","html-keyboard-response","560","845216","0.0-3.0-1.467","<span style=""font-size:30px; font-family: monospace"">cuidado.</span>"," ","","exp-sent","cuidado.","","",""
"","null","html-keyboard-response","561","846468","0.0-3.0-0.468-0.468","<span style= ""font-size:30px; font-family: monospace"">+</span>","null","fixation","","","","",""
"","686","html-keyboard-response","562","847405","0.0-3.0-1.468","<span style=""font-size:30px; font-family: monospace"">Contos</span>"," ","","exp-sent","Contos","","",""
"","517","html-keyboard-response","563","848174","0.0-3.0-1.469","<span style=""font-size:30px; font-family: monospace"">de</span>"," ","","exp-sent","de","","",""
"","483","html-keyboard-response","564","848908","0.0-3.0-1.470","<span style=""font-size:30px; font-family: monospace"">ação</span>"," ","","exp-sent","ação","","",""
"","674","html-keyboard-response","565","849834","0.0-3.0-1.471","<span style=""font-size:30px; font-family: monospace"">têm</span>"," ","","exp-sent","têm","","",""
"","660","html-keyboard-response","566","850760","0.0-3.0-1.472","<span style=""font-size:30px; font-family: monospace"">chantagem</span>"," ","","exp-sent","chantagem","","",""
"","465","html-keyboard-response","567","851477","0.0-3.0-1.473","<span style=""font-size:30px; font-family: monospace"">e</span>"," ","","exp-sent","e","","",""
"","475","html-keyboard-response","568","852204","0.0-3.0-1.474","<span style=""font-size:30px; font-family: monospace"">muita</span>"," ","","exp-sent","muita","","",""
"","2074","html-keyboard-response","569","854529","0.0-3.0-1.475","<span style=""font-size:30px; font-family: monospace"">luta.</span>"," ","","exp-sent","luta.","","",""
"","null","html-keyboard-response","570","855781","0.0-3.0-0.476-0.476","<span style= ""font-size:30px; font-family: monospace"">+</span>","null","fixation","","","","",""
"","182","html-keyboard-response","571","856216","0.0-3.0-1.476","<span style=""font-size:30px; font-family: monospace"">A</span>"," ","","exp-sent","A","","",""
"","519","html-keyboard-response","572","856986","0.0-3.0-1.477","<span style=""font-size:30px; font-family: monospace"">bisavó</span>"," ","","exp-sent","bisavó","","",""
"","651","html-keyboard-response","573","857889","0.0-3.0-1.478","<span style=""font-size:30px; font-family: monospace"">recebeu</span>"," ","","exp-sent","recebeu","","",""
"","454","html-keyboard-response","574","858594","0.0-3.0-1.479","<span style=""font-size:30px; font-family: monospace"">um</span>"," ","","exp-sent","um","","",""
"","596","html-keyboard-response","575","859442","0.0-3.0-1.480","<span style=""font-size:30px; font-family: monospace"">benefício</span>"," ","","exp-sent","benefício","","",""
"","458","html-keyboard-response","576","860151","0.0-3.0-1.481","<span style=""font-size:30px; font-family: monospace"">temporário</span>"," ","","exp-sent","temporário","","",""
"","448","html-keyboard-response","577","860850","0.0-3.0-1.482","<span style=""font-size:30px; font-family: monospace"">do</span>"," ","","exp-sent","do","","",""
"","2690","html-keyboard-response","578","863792","0.0-3.0-1.483","<span style=""font-size:30px; font-family: monospace"">governo.</span>"," ","","exp-sent","governo.","","",""
"","null","html-keyboard-response","579","865044","0.0-3.0-0.484-0.484","<span style= ""font-size:30px; font-family: monospace"">+</span>","null","fixation","","","","",""
"","891","html-keyboard-response","580","866186","0.0-3.0-1.484","<span style=""font-size:30px; font-family: monospace"">As</span>"," ","","exp-sent","As","","",""
"","701","html-keyboard-response","581","867139","0.0-3.0-1.485","<span style=""font-size:30px; font-family: monospace"">crianças</span>"," ","","exp-sent","crianças","","",""
"","459","html-keyboard-response","582","867849","0.0-3.0-1.486","<span style=""font-size:30px; font-family: monospace"">brincaram</span>"," ","","exp-sent","brincaram","","",""
"","470","html-keyboard-response","583","868571","0.0-3.0-1.487","<span style=""font-size:30px; font-family: monospace"">no</span>"," ","","exp-sent","no","","",""
"","470","html-keyboard-response","584","869293","0.0-3.0-1.488","<span style=""font-size:30px; font-family: monospace"">balanço</span>"," ","","exp-sent","balanço","","",""
