[
	{
		"view_history": [
			{
				"page_index": 0,
				"viewing_time": 23627
			},
			{
				"page_index": 1,
				"viewing_time": 4042
			}
		],
		"rt": 27669,
		"trial_type": "instructions",
		"trial_index": 0,
		"time_elapsed": 27671,
		"internal_node_id": "0.0-0.0"
	},
	{
		"rt": null,
		"stimulus": "<span style= \"font-size:30px; font-family: monospace\">+</span>",
		"response": null,
		"trial_part": "fixation",
		"trial_type": "html-keyboard-response",
		"trial_index": 1,
		"time_elapsed": 28785,
		"internal_node_id": "0.0-1.0-0.0-0.0"
	},
	{
		"rt": 7149,
		"stimulus": "../audio/prac-question-1-1.mp3",
		"response": " ",
		"word": "O",
		"trial_type": "audio-keyboard-response",
		"trial_index": 2,
		"time_elapsed": 36528,
		"internal_node_id": "0.0-1.0-1.0"
	},
	{
		"rt": 1749,
		"stimulus": "../audio/prac-question-1-2.mp3",
		"response": " ",
		"word": "dia",
		"trial_type": "audio-keyboard-response",
		"trial_index": 3,
		"time_elapsed": 38632,
		"internal_node_id": "0.0-1.0-1.1"
	},
	{
		"rt": 2368,
		"stimulus": "../audio/prac-question-1-3.mp3",
		"response": " ",
		"word": "estará",
		"trial_type": "audio-keyboard-response",
		"trial_index": 4,
		"time_elapsed": 41305,
		"internal_node_id": "0.0-1.0-1.2"
	},
	{
		"rt": 2040,
		"stimulus": "../audio/prac-question-1-4.mp3",
		"response": " ",
		"word": "cheio",
		"trial_type": "audio-keyboard-response",
		"trial_index": 5,
		"time_elapsed": 43671,
		"internal_node_id": "0.0-1.0-1.3"
	},
	{
		"rt": 1459,
		"stimulus": "../audio/prac-question-1-5.mp3",
		"response": " ",
		"word": "de",
		"trial_type": "audio-keyboard-response",
		"trial_index": 6,
		"time_elapsed": 45425,
		"internal_node_id": "0.0-1.0-1.4"
	},
	{
		"rt": 2219,
		"stimulus": "../audio/prac-question-1-6.mp3",
		"response": " ",
		"word": "nuvens",
		"trial_type": "audio-keyboard-response",
		"trial_index": 7,
		"time_elapsed": 47958,
		"internal_node_id": "0.0-1.0-1.5"
	},
	{
		"rt": 1899,
		"stimulus": "../audio/prac-question-1-7.mp3",
		"response": " ",
		"word": "hoje.",
		"trial_type": "audio-keyboard-response",
		"trial_index": 8,
		"time_elapsed": 50266,
		"internal_node_id": "0.0-1.0-1.6"
	},
	{
		"rt": null,
		"stimulus": "<span style= \"font-size:30px; font-family: monospace\">+</span>",
		"response": null,
		"trial_part": "fixation",
		"trial_type": "html-keyboard-response",
		"trial_index": 9,
		"time_elapsed": 51534,
		"internal_node_id": "0.0-1.0-0.7-0.7"
	},
	{
		"rt": 992,
		"stimulus": "../audio/prac-question-2-1.mp3",
		"response": " ",
		"word": "A",
		"trial_type": "audio-keyboard-response",
		"trial_index": 10,
		"time_elapsed": 52930,
		"internal_node_id": "0.0-1.0-1.7"
	},
	{
		"rt": 2181,
		"stimulus": "../audio/prac-question-2-2.mp3",
		"response": " ",
		"word": "caneca",
		"trial_type": "audio-keyboard-response",
		"trial_index": 11,
		"time_elapsed": 55483,
		"internal_node_id": "0.0-1.0-1.8"
	},
	{
		"rt": 4051,
		"stimulus": "../audio/prac-question-2-3.mp3",
		"response": " ",
		"word": "colorida",
		"trial_type": "audio-keyboard-response",
		"trial_index": 12,
		"time_elapsed": 59859,
		"internal_node_id": "0.0-1.0-1.9"
	},
	{
		"rt": 1920,
		"stimulus": "../audio/prac-question-2-4.mp3",
		"response": " ",
		"word": "caiu",
		"trial_type": "audio-keyboard-response",
		"trial_index": 13,
		"time_elapsed": 62090,
		"internal_node_id": "0.0-1.0-1.10"
	},
	{
		"rt": 1421,
		"stimulus": "../audio/prac-question-2-5.mp3",
		"response": " ",
		"word": "da",
		"trial_type": "audio-keyboard-response",
		"trial_index": 14,
		"time_elapsed": 63802,
		"internal_node_id": "0.0-1.0-1.11"
	},
	{
		"rt": 1701,
		"stimulus": "../audio/prac-question-2-6.mp3",
		"response": " ",
		"word": "mesa",
		"trial_type": "audio-keyboard-response",
		"trial_index": 15,
		"time_elapsed": 65819,
		"internal_node_id": "0.0-1.0-1.12"
	},
	{
		"rt": 1291,
		"stimulus": "../audio/prac-question-2-7.mp3",
		"response": " ",
		"word": "de",
		"trial_type": "audio-keyboard-response",
		"trial_index": 16,
		"time_elapsed": 67419,
		"internal_node_id": "0.0-1.0-1.13"
	},
	{
		"rt": 1819,
		"stimulus": "../audio/prac-question-2-8.mp3",
		"response": " ",
		"word": "jantar.",
		"trial_type": "audio-keyboard-response",
		"trial_index": 17,
		"time_elapsed": 69541,
		"internal_node_id": "0.0-1.0-1.14"
	},
	{
		"rt": 8362,
		"stimulus": "<span style=\"font-size:25px; font-family: monospace\">A caneca era colorida?</span>",
		"response": "n",
		"question": "A caneca era colorida?",
		"answer": "null",
		"trial": "prac-sent",
		"trial_type": "html-keyboard-response",
		"trial_index": 18,
		"time_elapsed": 78165,
		"internal_node_id": "0.0-1.0-2.14-0.14",
		"accuracy": false
	},
	{
		"view_history": [
			{
				"page_index": 0,
				"viewing_time": 3916
			}
		],
		"rt": 3917,
		"trial_type": "instructions",
		"trial_index": 19,
		"time_elapsed": 82596,
		"internal_node_id": "0.0-2.0"
	},
	{
		"rt": null,
		"stimulus": "<span style= \"font-size:30px; font-family: monospace\">+</span>",
		"response": null,
		"trial_part": "fixation",
		"trial_type": "html-keyboard-response",
		"trial_index": 20,
		"time_elapsed": 83708,
		"internal_node_id": "0.0-3.0-0.0-0.0"
	},
	{
		"rt": 189,
		"stimulus": "../audio/06-1-masc.mp3",
		"response": " ",
		"word": "Ouvimos",
		"trial_type": "audio-keyboard-response",
		"trial_index": 21,
		"time_elapsed": 84191,
		"internal_node_id": "0.0-3.0-1.0"
	},
	{
		"rt": 1840,
		"stimulus": "../audio/06-2-masc.mp3",
		"response": " ",
		"word": "a",
		"trial_type": "audio-keyboard-response",
		"trial_index": 22,
		"time_elapsed": 86300,
		"internal_node_id": "0.0-3.0-1.1"
	},
	{
		"rt": 1869,
		"stimulus": "../audio/06-3-masc.mp3",
		"response": " ",
		"word": "fala",
		"trial_type": "audio-keyboard-response",
		"trial_index": 23,
		"time_elapsed": 88467,
		"internal_node_id": "0.0-3.0-1.2"
	},
	{
		"rt": 1499,
		"stimulus": "../audio/06-4-masc.mp3",
		"response": " ",
		"word": "do",
		"trial_type": "audio-keyboard-response",
		"trial_index": 24,
		"time_elapsed": 90261,
		"internal_node_id": "0.0-3.0-1.3"
	},
	{
		"rt": 1400,
		"stimulus": "../audio/06-5-masc.mp3",
		"response": " ",
		"word": "profeta",
		"trial_type": "audio-keyboard-response",
		"trial_index": 25,
		"time_elapsed": 91942,
		"internal_node_id": "0.0-3.0-1.4"
	},
	{
		"rt": 1240,
		"stimulus": "../audio/06-6-masc.mp3",
		"response": " ",
		"word": "no",
		"trial_type": "audio-keyboard-response",
		"trial_index": 26,
		"time_elapsed": 93452,
		"internal_node_id": "0.0-3.0-1.5"
	},
	{
		"rt": 1488,
		"stimulus": "../audio/06-7-masc.mp3",
		"response": " ",
		"word": "púlpito",
		"trial_type": "audio-keyboard-response",
		"trial_index": 27,
		"time_elapsed": 95220,
		"internal_node_id": "0.0-3.0-1.6"
	},
	{
		"rt": 1229,
		"stimulus": "../audio/06-8-masc.mp3",
		"response": " ",
		"word": "da",
		"trial_type": "audio-keyboard-response",
		"trial_index": 28,
		"time_elapsed": 96758,
		"internal_node_id": "0.0-3.0-1.7"
	},
	{
		"rt": 1600,
		"stimulus": "../audio/06-9-masc.mp3",
		"response": " ",
		"word": "igreja.",
		"trial_type": "audio-keyboard-response",
		"trial_index": 29,
		"time_elapsed": 98656,
		"internal_node_id": "0.0-3.0-1.8"
	},
	{
		"rt": null,
		"stimulus": "<span style= \"font-size:30px; font-family: monospace\">+</span>",
		"response": null,
		"trial_part": "fixation",
		"trial_type": "html-keyboard-response",
		"trial_index": 30,
		"time_elapsed": 99927,
		"internal_node_id": "0.0-3.0-0.9-0.9"
	},
	{
		"rt": 1099,
		"stimulus": "../audio/07-1-masc.mp3",
		"response": " ",
		"word": "Meu",
		"trial_type": "audio-keyboard-response",
		"trial_index": 31,
		"time_elapsed": 101352,
		"internal_node_id": "0.0-3.0-1.9"
	},
	{
		"rt": 1291,
		"stimulus": "../audio/07-2-masc.mp3",
		"response": " ",
		"word": "filho",
		"trial_type": "audio-keyboard-response",
		"trial_index": 32,
		"time_elapsed": 102921,
		"internal_node_id": "0.0-3.0-1.10"
	},
	{
		"rt": 1411,
		"stimulus": "../audio/07-3-masc.mp3",
		"response": " ",
		"word": "é",
		"trial_type": "audio-keyboard-response",
		"trial_index": 33,
		"time_elapsed": 104639,
		"internal_node_id": "0.0-3.0-1.11"
	},
	{
		"rt": 1669,
		"stimulus": "../audio/07-4-masc.mp3",
		"response": " ",
		"word": "muito",
		"trial_type": "audio-keyboard-response",
		"trial_index": 34,
		"time_elapsed": 106605,
		"internal_node_id": "0.0-3.0-1.12"
	},
	{
		"rt": 1899,
		"stimulus": "../audio/07-5-masc.mp3",
		"response": " ",
		"word": "responsável",
		"trial_type": "audio-keyboard-response",
		"trial_index": 35,
		"time_elapsed": 108833,
		"internal_node_id": "0.0-3.0-1.13"
	},
	{
		"rt": 1779,
		"stimulus": "../audio/07-6-masc.mp3",
		"response": " ",
		"word": "nos",
		"trial_type": "audio-keyboard-response",
		"trial_index": 36,
		"time_elapsed": 110955,
		"internal_node_id": "0.0-3.0-1.14"
	},
	{
		"rt": 1819,
		"stimulus": "../audio/07-7-masc.mp3",
		"response": " ",
		"word": "estudos.",
		"trial_type": "audio-keyboard-response",
		"trial_index": 37,
		"time_elapsed": 113060,
		"internal_node_id": "0.0-3.0-1.15"
	},
	{
		"rt": null,
		"stimulus": "<span style= \"font-size:30px; font-family: monospace\">+</span>",
		"response": null,
		"trial_part": "fixation",
		"trial_type": "html-keyboard-response",
		"trial_index": 38,
		"time_elapsed": 114328,
		"internal_node_id": "0.0-3.0-0.16-0.16"
	},
	{
		"rt": 1080,
		"stimulus": "../audio/08-1-fem.mp3",
		"response": " ",
		"word": "A",
		"trial_type": "audio-keyboard-response",
		"trial_index": 39,
		"time_elapsed": 115687,
		"internal_node_id": "0.0-3.0-1.16"
	},
	{
		"rt": 1651,
		"stimulus": "../audio/08-2-fem.mp3",
		"response": " ",
		"word": "receita",
		"trial_type": "audio-keyboard-response",
		"trial_index": 40,
		"time_elapsed": 117680,
		"internal_node_id": "0.0-3.0-1.17"
	},
	{
		"rt": 1128,
		"stimulus": "../audio/08-3-fem.mp3",
		"response": " ",
		"word": "pede",
		"trial_type": "audio-keyboard-response",
		"trial_index": 41,
		"time_elapsed": 119221,
		"internal_node_id": "0.0-3.0-1.18"
	},
	{
		"rt": 1192,
		"stimulus": "../audio/08-4-fem.mp3",
		"response": " ",
		"word": "um",
		"trial_type": "audio-keyboard-response",
		"trial_index": 42,
		"time_elapsed": 120732,
		"internal_node_id": "0.0-3.0-1.19"
	},
	{
		"rt": 1211,
		"stimulus": "../audio/08-5-fem.mp3",
		"response": " ",
		"word": "litro",
		"trial_type": "audio-keyboard-response",
		"trial_index": 43,
		"time_elapsed": 122329,
		"internal_node_id": "0.0-3.0-1.20"
	},
	{
		"rt": 2131,
		"stimulus": "../audio/08-6-fem.mp3",
		"response": " ",
		"word": "de",
		"trial_type": "audio-keyboard-response",
		"trial_index": 44,
		"time_elapsed": 124725,
		"internal_node_id": "0.0-3.0-1.21"
	},
	{
		"rt": 2200,
		"stimulus": "../audio/08-7-fem.mp3",
		"response": " ",
		"word": "leite",
		"trial_type": "audio-keyboard-response",
		"trial_index": 45,
		"time_elapsed": 127233,
		"internal_node_id": "0.0-3.0-1.22"
	},
	{
		"rt": 2072,
		"stimulus": "../audio/08-8-fem.mp3",
		"response": " ",
		"word": "integral.",
		"trial_type": "audio-keyboard-response",
		"trial_index": 46,
		"time_elapsed": 129657,
		"internal_node_id": "0.0-3.0-1.23"
	},
	{
		"rt": null,
		"stimulus": "<span style= \"font-size:30px; font-family: monospace\">+</span>",
		"response": null,
		"trial_part": "fixation",
		"trial_type": "html-keyboard-response",
		"trial_index": 47,
		"time_elapsed": 130915,
		"internal_node_id": "0.0-3.0-0.24-0.24"
	},
	{
		"rt": 968,
		"stimulus": "../audio/09-1-fem.mp3",
		"response": " ",
		"word": "O",
		"trial_type": "audio-keyboard-response",
		"trial_index": 48,
		"time_elapsed": 132180,
		"internal_node_id": "0.0-3.0-1.24"
	},
	{
		"rt": 1440,
		"stimulus": "../audio/09-2-fem.mp3",
		"response": " ",
		"word": "rapaz",
		"trial_type": "audio-keyboard-response",
		"trial_index": 49,
		"time_elapsed": 133958,
		"internal_node_id": "0.0-3.0-1.25"
	},
	{
		"rt": 1339,
		"stimulus": "../audio/09-3-fem.mp3",
		"response": " ",
		"word": "limpou",
		"trial_type": "audio-keyboard-response",
		"trial_index": 50,
		"time_elapsed": 135581,
		"internal_node_id": "0.0-3.0-1.26"
	},
	{
		"rt": 1421,
		"stimulus": "../audio/09-4-fem.mp3",
		"response": " ",
		"word": "o",
		"trial_type": "audio-keyboard-response",
		"trial_index": 51,
		"time_elapsed": 137285,
		"internal_node_id": "0.0-3.0-1.27"
	},
	{
		"rt": 1459,
		"stimulus": "../audio/09-5-fem.mp3",
		"response": " ",
		"word": "terreno",
		"trial_type": "audio-keyboard-response",
		"trial_index": 52,
		"time_elapsed": 139030,
		"internal_node_id": "0.0-3.0-1.28"
	},
	{
		"rt": 1240,
		"stimulus": "../audio/09-6-fem.mp3",
		"response": " ",
		"word": "com",
		"trial_type": "audio-keyboard-response",
		"trial_index": 53,
		"time_elapsed": 140557,
		"internal_node_id": "0.0-3.0-1.29"
	},
	{
		"rt": 1979,
		"stimulus": "../audio/09-7-fem.mp3",
		"response": " ",
		"word": "uma",
		"trial_type": "audio-keyboard-response",
		"trial_index": 54,
		"time_elapsed": 142832,
		"internal_node_id": "0.0-3.0-1.30"
	},
	{
		"rt": 1731,
		"stimulus": "../audio/09-8-fem.mp3",
		"response": " ",
		"word": "pá.",
		"trial_type": "audio-keyboard-response",
		"trial_index": 55,
		"time_elapsed": 144872,
		"internal_node_id": "0.0-3.0-1.31"
	},
	{
		"rt": null,
		"stimulus": "<span style= \"font-size:30px; font-family: monospace\">+</span>",
		"response": null,
		"trial_part": "fixation",
		"trial_type": "html-keyboard-response",
		"trial_index": 56,
		"time_elapsed": 146144,
		"internal_node_id": "0.0-3.0-0.32-0.32"
	},
	{
		"rt": 1349,
		"stimulus": "../audio/10-1-fem.mp3",
		"response": " ",
		"word": "O",
		"trial_type": "audio-keyboard-response",
		"trial_index": 57,
		"time_elapsed": 147792,
		"internal_node_id": "0.0-3.0-1.32"
	},
	{
		"rt": 1248,
		"stimulus": "../audio/10-2-fem.mp3",
		"response": " ",
		"word": "pássaro",
		"trial_type": "audio-keyboard-response",
		"trial_index": 58,
		"time_elapsed": 149347,
		"internal_node_id": "0.0-3.0-1.33"
	},
	{
		"rt": 1192,
		"stimulus": "../audio/10-3-fem.mp3",
		"response": " ",
		"word": "azul",
		"trial_type": "audio-keyboard-response",
		"trial_index": 59,
		"time_elapsed": 150818,
		"internal_node_id": "0.0-3.0-1.34"
	},
	{
		"rt": 1360,
		"stimulus": "../audio/10-4-fem.mp3",
		"response": " ",
		"word": "estava",
		"trial_type": "audio-keyboard-response",
		"trial_index": 60,
		"time_elapsed": 152562,
		"internal_node_id": "0.0-3.0-1.35"
	},
	{
		"rt": 1240,
		"stimulus": "../audio/10-5-fem.mp3",
		"response": " ",
		"word": "vivo",
		"trial_type": "audio-keyboard-response",
		"trial_index": 61,
		"time_elapsed": 154105,
		"internal_node_id": "0.0-3.0-1.36"
	},
	{
		"rt": 1091,
		"stimulus": "../audio/10-6-fem.mp3",
		"response": " ",
		"word": "e",
		"trial_type": "audio-keyboard-response",
		"trial_index": 62,
		"time_elapsed": 155531,
		"internal_node_id": "0.0-3.0-1.37"
	},
	{
		"rt": 1221,
		"stimulus": "../audio/10-7-fem.mp3",
		"response": " ",
		"word": "em",
		"trial_type": "audio-keyboard-response",
		"trial_index": 63,
		"time_elapsed": 157045,
		"internal_node_id": "0.0-3.0-1.38"
	},
	{
		"rt": 2269,
		"stimulus": "../audio/10-8-fem.mp3",
		"response": " ",
		"word": "segurança.",
		"trial_type": "audio-keyboard-response",
		"trial_index": 64,
		"time_elapsed": 159640,
		"internal_node_id": "0.0-3.0-1.39"
	},
	{
		"rt": 13043,
		"stimulus": "<span style=\"font-size:25px; font-family: monospace\">O pássaro vermelho estava em segurança?</span>",
		"response": "s",
		"question": "O pássaro vermelho estava em segurança?",
		"answer": "null",
		"trial": "exp-sent",
		"trial_type": "html-keyboard-response",
		"trial_index": 65,
		"time_elapsed": 172942,
		"internal_node_id": "0.0-3.0-2.39-0.39",
		"accuracy": false
	},
	{
		"rt": null,
		"stimulus": "<span style= \"font-size:30px; font-family: monospace\">+</span>",
		"response": null,
		"trial_part": "fixation",
		"trial_type": "html-keyboard-response",
		"trial_index": 66,
		"time_elapsed": 174467,
		"internal_node_id": "0.0-3.0-0.40-0.40"
	},
	{
		"rt": 1909,
		"stimulus": "../audio/52-1-fem.mp3",
		"response": " ",
		"word": "Às",
		"trial_type": "audio-keyboard-response",
		"trial_index": 67,
		"time_elapsed": 176760,
		"internal_node_id": "0.0-3.0-1.40"
	},
	{
		"rt": 1512,
		"stimulus": "../audio/52-2-fem.mp3",
		"response": " ",
		"word": "vezes",
		"trial_type": "audio-keyboard-response",
		"trial_index": 68,
		"time_elapsed": 178579,
		"internal_node_id": "0.0-3.0-1.41"
	},
	{
		"rt": 1181,
		"stimulus": "../audio/52-3-fem.mp3",
		"response": " ",
		"word": "eu",
		"trial_type": "audio-keyboard-response",
		"trial_index": 69,
		"time_elapsed": 180049,
		"internal_node_id": "0.0-3.0-1.42"
	},
	{
		"rt": 1269,
		"stimulus": "../audio/52-4-fem.mp3",
		"response": " ",
		"word": "tenho",
		"trial_type": "audio-keyboard-response",
		"trial_index": 70,
		"time_elapsed": 181607,
		"internal_node_id": "0.0-3.0-1.43"
	},
	{
		"rt": 1320,
		"stimulus": "../audio/52-5-fem.mp3",
		"response": " ",
		"word": "azia",
		"trial_type": "audio-keyboard-response",
		"trial_index": 71,
		"time_elapsed": 183227,
		"internal_node_id": "0.0-3.0-1.44"
	},
	{
		"rt": 1269,
		"stimulus": "../audio/52-6-fem.mp3",
		"response": " ",
		"word": "depois",
		"trial_type": "audio-keyboard-response",
		"trial_index": 72,
		"time_elapsed": 184800,
		"internal_node_id": "0.0-3.0-1.45"
	},
	{
		"rt": 1029,
		"stimulus": "../audio/52-7-fem.mp3",
		"response": " ",
		"word": "da",
		"trial_type": "audio-keyboard-response",
		"trial_index": 73,
		"time_elapsed": 186125,
		"internal_node_id": "0.0-3.0-1.46"
	},
	{
		"rt": 1291,
		"stimulus": "../audio/52-8-fem.mp3",
		"response": " ",
		"word": "janta.",
		"trial_type": "audio-keyboard-response",
		"trial_index": 74,
		"time_elapsed": 187698,
		"internal_node_id": "0.0-3.0-1.47"
	},
	{
		"rt": null,
		"stimulus": "<span style= \"font-size:30px; font-family: monospace\">+</span>",
		"response": null,
		"trial_part": "fixation",
		"trial_type": "html-keyboard-response",
		"trial_index": 75,
		"time_elapsed": 188954,
		"internal_node_id": "0.0-3.0-0.48-0.48"
	},
	{
		"rt": 1000,
		"stimulus": "../audio/54-1-fem.mp3",
		"response": " ",
		"word": "Estou",
		"trial_type": "audio-keyboard-response",
		"trial_index": 76,
		"time_elapsed": 190256,
		"internal_node_id": "0.0-3.0-1.48"
	},
	{
		"rt": 1192,
		"stimulus": "../audio/54-2-fem.mp3",
		"response": " ",
		"word": "com",
		"trial_type": "audio-keyboard-response",
		"trial_index": 77,
		"time_elapsed": 191732,
		"internal_node_id": "0.0-3.0-1.49"
	},
	{
		"rt": 1339,
		"stimulus": "../audio/54-3-fem.mp3",
		"response": " ",
		"word": "medo",
		"trial_type": "audio-keyboard-response",
		"trial_index": 78,
		"time_elapsed": 193352,
		"internal_node_id": "0.0-3.0-1.50"
	},
	{
		"rt": 1389,
		"stimulus": "../audio/54-4-fem.mp3",
		"response": " ",
		"word": "da",
		"trial_type": "audio-keyboard-response",
		"trial_index": 79,
		"time_elapsed": 195025,
		"internal_node_id": "0.0-3.0-1.51"
	},
	{
		"rt": 1269,
		"stimulus": "../audio/54-5-fem.mp3",
		"response": " ",
		"word": "atual",
		"trial_type": "audio-keyboard-response",
		"trial_index": 80,
		"time_elapsed": 196591,
		"internal_node_id": "0.0-3.0-1.52"
	},
	{
		"rt": 1840,
		"stimulus": "../audio/54-6-fem.mp3",
		"response": " ",
		"word": "organização",
		"trial_type": "audio-keyboard-response",
		"trial_index": 81,
		"time_elapsed": 198771,
		"internal_node_id": "0.0-3.0-1.53"
	},
	{
		"rt": 1072,
		"stimulus": "../audio/54-7-fem.mp3",
		"response": " ",
		"word": "do",
		"trial_type": "audio-keyboard-response",
		"trial_index": 82,
		"time_elapsed": 200137,
		"internal_node_id": "0.0-3.0-1.54"
	},
	{
		"rt": 1781,
		"stimulus": "../audio/54-8-fem.mp3",
		"response": " ",
		"word": "país.",
		"trial_type": "audio-keyboard-response",
		"trial_index": 83,
		"time_elapsed": 202218,
		"internal_node_id": "0.0-3.0-1.55"
	},
	{
		"rt": null,
		"stimulus": "<span style= \"font-size:30px; font-family: monospace\">+</span>",
		"response": null,
		"trial_part": "fixation",
		"trial_type": "html-keyboard-response",
		"trial_index": 84,
		"time_elapsed": 203479,
		"internal_node_id": "0.0-3.0-0.56-0.56"
	},
	{
		"rt": 1301,
		"stimulus": "../audio/53-1-masc.mp3",
		"response": " ",
		"word": "O",
		"trial_type": "audio-keyboard-response",
		"trial_index": 85,
		"time_elapsed": 205086,
		"internal_node_id": "0.0-3.0-1.56"
	},
	{
		"rt": 1251,
		"stimulus": "../audio/53-2-masc.mp3",
		"response": " ",
		"word": "médico",
		"trial_type": "audio-keyboard-response",
		"trial_index": 86,
		"time_elapsed": 206639,
		"internal_node_id": "0.0-3.0-1.57"
	},
	{
		"rt": 1112,
		"stimulus": "../audio/53-3-masc.mp3",
		"response": " ",
		"word": "foi",
		"trial_type": "audio-keyboard-response",
		"trial_index": 87,
		"time_elapsed": 208051,
		"internal_node_id": "0.0-3.0-1.58"
	},
	{
		"rt": 1259,
		"stimulus": "../audio/53-4-masc.mp3",
		"response": " ",
		"word": "bastante",
		"trial_type": "audio-keyboard-response",
		"trial_index": 88,
		"time_elapsed": 209600,
		"internal_node_id": "0.0-3.0-1.59"
	},
	{
		"rt": 1459,
		"stimulus": "../audio/53-5-masc.mp3",
		"response": " ",
		"word": "preciso",
		"trial_type": "audio-keyboard-response",
		"trial_index": 89,
		"time_elapsed": 211355,
		"internal_node_id": "0.0-3.0-1.60"
	},
	{
		"rt": 2611,
		"stimulus": "../audio/53-6-masc.mp3",
		"response": " ",
		"word": "durante",
		"trial_type": "audio-keyboard-response",
		"trial_index": 90,
		"time_elapsed": 214240,
		"internal_node_id": "0.0-3.0-1.61"
	},
	{
		"rt": 3931,
		"stimulus": "../audio/53-7-masc.mp3",
		"response": " ",
		"word": "a",
		"trial_type": "audio-keyboard-response",
		"trial_index": 91,
		"time_elapsed": 218451,
		"internal_node_id": "0.0-3.0-1.62"
	},
	{
		"rt": 1811,
		"stimulus": "../audio/53-8-masc.mp3",
		"response": " ",
		"word": "cirurgia.",
		"trial_type": "audio-keyboard-response",
		"trial_index": 92,
		"time_elapsed": 220610,
		"internal_node_id": "0.0-3.0-1.63"
	},
	{
		"rt": null,
		"stimulus": "<span style= \"font-size:30px; font-family: monospace\">+</span>",
		"response": null,
		"trial_part": "fixation",
		"trial_type": "html-keyboard-response",
		"trial_index": 93,
		"time_elapsed": 221870,
		"internal_node_id": "0.0-3.0-0.64-0.64"
	},
	{
		"rt": 1491,
		"stimulus": "../audio/51-1-masc.mp3",
		"response": " ",
		"word": "Suco",
		"trial_type": "audio-keyboard-response",
		"trial_index": 94,
		"time_elapsed": 223641,
		"internal_node_id": "0.0-3.0-1.64"
	},
	{
		"rt": 1059,
		"stimulus": "../audio/51-2-masc.mp3",
		"response": " ",
		"word": "de",
		"trial_type": "audio-keyboard-response",
		"trial_index": 95,
		"time_elapsed": 224985,
		"internal_node_id": "0.0-3.0-1.65"
	},
	{
		"rt": 1451,
		"stimulus": "../audio/51-3-masc.mp3",
		"response": " ",
		"word": "acerola",
		"trial_type": "audio-keyboard-response",
		"trial_index": 96,
		"time_elapsed": 226724,
		"internal_node_id": "0.0-3.0-1.66"
	},
	{
		"rt": 1240,
		"stimulus": "../audio/51-4-masc.mp3",
		"response": " ",
		"word": "é",
		"trial_type": "audio-keyboard-response",
		"trial_index": 97,
		"time_elapsed": 228260,
		"internal_node_id": "0.0-3.0-1.67"
	},
	{
		"rt": 1520,
		"stimulus": "../audio/51-5-masc.mp3",
		"response": " ",
		"word": "azedo",
		"trial_type": "audio-keyboard-response",
		"trial_index": 98,
		"time_elapsed": 230071,
		"internal_node_id": "0.0-3.0-1.68"
	},
	{
		"rt": 1099,
		"stimulus": "../audio/51-6-masc.mp3",
		"response": " ",
		"word": "e",
		"trial_type": "audio-keyboard-response",
		"trial_index": 99,
		"time_elapsed": 231479,
		"internal_node_id": "0.0-3.0-1.69"
	},
	{
		"rt": 1459,
		"stimulus": "../audio/51-7-masc.mp3",
		"response": " ",
		"word": "até",
		"trial_type": "audio-keyboard-response",
		"trial_index": 100,
		"time_elapsed": 233235,
		"internal_node_id": "0.0-3.0-1.70"
	},
	{
		"rt": 1920,
		"stimulus": "../audio/51-8-masc.mp3",
		"response": " ",
		"word": "barato.",
		"trial_type": "audio-keyboard-response",
		"trial_index": 101,
		"time_elapsed": 235476,
		"internal_node_id": "0.0-3.0-1.71"
	},
	{
		"rt": null,
		"stimulus": "<span style= \"font-size:30px; font-family: monospace\">+</span>",
		"response": null,
		"trial_part": "fixation",
		"trial_type": "html-keyboard-response",
		"trial_index": 102,
		"time_elapsed": 236743,
		"internal_node_id": "0.0-3.0-0.72-0.72"
	},
	{
		"rt": 149,
		"stimulus": "../audio/55-1-fem.mp3",
		"response": " ",
		"word": "O",
		"trial_type": "audio-keyboard-response",
		"trial_index": 103,
		"time_elapsed": 237205,
		"internal_node_id": "0.0-3.0-1.72"
	},
	{
		"rt": 1411,
		"stimulus": "../audio/55-2-fem.mp3",
		"response": " ",
		"word": "insulto",
		"trial_type": "audio-keyboard-response",
		"trial_index": 104,
		"time_elapsed": 238921,
		"internal_node_id": "0.0-3.0-1.73"
	},
	{
		"rt": 1429,
		"stimulus": "../audio/55-3-fem.mp3",
		"response": " ",
		"word": "recente",
		"trial_type": "audio-keyboard-response",
		"trial_index": 105,
		"time_elapsed": 240686,
		"internal_node_id": "0.0-3.0-1.74"
	},
	{
		"rt": 1341,
		"stimulus": "../audio/55-4-fem.mp3",
		"response": " ",
		"word": "causou",
		"trial_type": "audio-keyboard-response",
		"trial_index": 106,
		"time_elapsed": 242367,
		"internal_node_id": "0.0-3.0-1.75"
	},
	{
		"rt": 1651,
		"stimulus": "../audio/55-5-fem.mp3",
		"response": " ",
		"word": "indignação",
		"trial_type": "audio-keyboard-response",
		"trial_index": 107,
		"time_elapsed": 244555,
		"internal_node_id": "0.0-3.0-1.76"
	},
	{
		"rt": 1120,
		"stimulus": "../audio/55-6-fem.mp3",
		"response": " ",
		"word": "em",
		"trial_type": "audio-keyboard-response",
		"trial_index": 108,
		"time_elapsed": 246018,
		"internal_node_id": "0.0-3.0-1.77"
	},
	{
		"rt": 1200,
		"stimulus": "../audio/55-7-fem.mp3",
		"response": " ",
		"word": "todos.",
		"trial_type": "audio-keyboard-response",
		"trial_index": 109,
		"time_elapsed": 247558,
		"internal_node_id": "0.0-3.0-1.78"
	},
	{
		"rt": 10087,
		"stimulus": "<span style=\"font-size:25px; font-family: monospace\">O insulto causou calmaria?</span>",
		"response": "n",
		"question": "O insulto causou calmaria?",
		"answer": "null",
		"trial": "exp-sent",
		"trial_type": "html-keyboard-response",
		"trial_index": 110,
		"time_elapsed": 257910,
		"internal_node_id": "0.0-3.0-2.78-0.78",
		"accuracy": false
	},
	{
		"rt": null,
		"stimulus": "<span style= \"font-size:30px; font-family: monospace\">+</span>",
		"response": null,
		"trial_part": "fixation",
		"trial_type": "html-keyboard-response",
		"trial_index": 111,
		"time_elapsed": 259424,
		"internal_node_id": "0.0-3.0-0.79-0.79"
	},
	{
		"rt": 1200,
		"stimulus": "../audio/43-1-masc.mp3",
		"response": " ",
		"word": "Eu",
		"trial_type": "audio-keyboard-response",
		"trial_index": 112,
		"time_elapsed": 260960,
		"internal_node_id": "0.0-3.0-1.79"
	},
	{
		"rt": 1331,
		"stimulus": "../audio/43-2-masc.mp3",
		"response": " ",
		"word": "achei",
		"trial_type": "audio-keyboard-response",
		"trial_index": 113,
		"time_elapsed": 262601,
		"internal_node_id": "0.0-3.0-1.80"
	},
	{
		"rt": 1669,
		"stimulus": "../audio/43-3-masc.mp3",
		"response": " ",
		"word": "um",
		"trial_type": "audio-keyboard-response",
		"trial_index": 114,
		"time_elapsed": 264769,
		"internal_node_id": "0.0-3.0-1.81"
	},
	{
		"rt": 1680,
		"stimulus": "../audio/43-4-masc.mp3",
		"response": " ",
		"word": "colchão",
		"trial_type": "audio-keyboard-response",
		"trial_index": 115,
		"time_elapsed": 266795,
		"internal_node_id": "0.0-3.0-1.82"
	},
	{
		"rt": 1480,
		"stimulus": "../audio/43-5-masc.mp3",
		"response": " ",
		"word": "velho",
		"trial_type": "audio-keyboard-response",
		"trial_index": 116,
		"time_elapsed": 268581,
		"internal_node_id": "0.0-3.0-1.83"
	},
	{
		"rt": 1331,
		"stimulus": "../audio/43-6-masc.mp3",
		"response": " ",
		"word": "e",
		"trial_type": "audio-keyboard-response",
		"trial_index": 117,
		"time_elapsed": 270234,
		"internal_node_id": "0.0-3.0-1.84"
	},
	{
		"rt": 1579,
		"stimulus": "../audio/43-7-masc.mp3",
		"response": " ",
		"word": "imundo",
		"trial_type": "audio-keyboard-response",
		"trial_index": 118,
		"time_elapsed": 272154,
		"internal_node_id": "0.0-3.0-1.85"
	},
	{
		"rt": 1301,
		"stimulus": "../audio/43-8-masc.mp3",
		"response": " ",
		"word": "na",
		"trial_type": "audio-keyboard-response",
		"trial_index": 119,
		"time_elapsed": 273766,
		"internal_node_id": "0.0-3.0-1.86"
	},
	{
		"rt": 1288,
		"stimulus": "../audio/43-9-masc.mp3",
		"response": " ",
		"word": "casa.",
		"trial_type": "audio-keyboard-response",
		"trial_index": 120,
		"time_elapsed": 275348,
		"internal_node_id": "0.0-3.0-1.87"
	},
	{
		"rt": null,
		"stimulus": "<span style= \"font-size:30px; font-family: monospace\">+</span>",
		"response": null,
		"trial_part": "fixation",
		"trial_type": "html-keyboard-response",
		"trial_index": 121,
		"time_elapsed": 276610,
		"internal_node_id": "0.0-3.0-0.88-0.88"
	},
	{
		"rt": 1381,
		"stimulus": "../audio/44-1-fem.mp3",
		"response": " ",
		"word": "Meus",
		"trial_type": "audio-keyboard-response",
		"trial_index": 122,
		"time_elapsed": 278293,
		"internal_node_id": "0.0-3.0-1.88"
	},
	{
		"rt": 1811,
		"stimulus": "../audio/44-2-fem.mp3",
		"response": " ",
		"word": "irmãos",
		"trial_type": "audio-keyboard-response",
		"trial_index": 123,
		"time_elapsed": 280394,
		"internal_node_id": "0.0-3.0-1.89"
	},
	{
		"rt": 1680,
		"stimulus": "../audio/44-3-fem.mp3",
		"response": " ",
		"word": "brigam",
		"trial_type": "audio-keyboard-response",
		"trial_index": 124,
		"time_elapsed": 282352,
		"internal_node_id": "0.0-3.0-1.90"
	},
	{
		"rt": 2011,
		"stimulus": "../audio/44-4-fem.mp3",
		"response": " ",
		"word": "por",
		"trial_type": "audio-keyboard-response",
		"trial_index": 125,
		"time_elapsed": 284640,
		"internal_node_id": "0.0-3.0-1.91"
	},
	{
		"rt": 1840,
		"stimulus": "../audio/44-5-fem.mp3",
		"response": " ",
		"word": "bobagem",
		"trial_type": "audio-keyboard-response",
		"trial_index": 126,
		"time_elapsed": 286771,
		"internal_node_id": "0.0-3.0-1.92"
	},
	{
		"rt": 2560,
		"stimulus": "../audio/44-6-fem.mp3",
		"response": " ",
		"word": "todos",
		"trial_type": "audio-keyboard-response",
		"trial_index": 127,
		"time_elapsed": 289623,
		"internal_node_id": "0.0-3.0-1.93"
	},
	{
		"rt": 1741,
		"stimulus": "../audio/44-7-fem.mp3",
		"response": " ",
		"word": "os",
		"trial_type": "audio-keyboard-response",
		"trial_index": 128,
		"time_elapsed": 291691,
		"internal_node_id": "0.0-3.0-1.94"
	},
	{
		"rt": 1509,
		"stimulus": "../audio/44-8-fem.mp3",
		"response": " ",
		"word": "dias.",
		"trial_type": "audio-keyboard-response",
		"trial_index": 129,
		"time_elapsed": 293505,
		"internal_node_id": "0.0-3.0-1.95"
	},
	{
		"rt": null,
		"stimulus": "<span style= \"font-size:30px; font-family: monospace\">+</span>",
		"response": null,
		"trial_part": "fixation",
		"trial_type": "html-keyboard-response",
		"trial_index": 130,
		"time_elapsed": 294764,
		"internal_node_id": "0.0-3.0-0.96-0.96"
	},
	{
		"rt": 1579,
		"stimulus": "../audio/41-1-fem.mp3",
		"response": " ",
		"word": "A",
		"trial_type": "audio-keyboard-response",
		"trial_index": 131,
		"time_elapsed": 296622,
		"internal_node_id": "0.0-3.0-1.96"
	},
	{
		"rt": 2480,
		"stimulus": "../audio/41-2-fem.mp3",
		"response": " ",
		"word": "novela",
		"trial_type": "audio-keyboard-response",
		"trial_index": 132,
		"time_elapsed": 299438,
		"internal_node_id": "0.0-3.0-1.97"
	},
	{
		"rt": 1789,
		"stimulus": "../audio/41-3-fem.mp3",
		"response": " ",
		"word": "falava",
		"trial_type": "audio-keyboard-response",
		"trial_index": 133,
		"time_elapsed": 301554,
		"internal_node_id": "0.0-3.0-1.98"
	},
	{
		"rt": 2000,
		"stimulus": "../audio/41-4-fem.mp3",
		"response": " ",
		"word": "de",
		"trial_type": "audio-keyboard-response",
		"trial_index": 134,
		"time_elapsed": 303861,
		"internal_node_id": "0.0-3.0-1.99"
	},
	{
		"rt": 2211,
		"stimulus": "../audio/41-5-fem.mp3",
		"response": " ",
		"word": "paixão",
		"trial_type": "audio-keyboard-response",
		"trial_index": 135,
		"time_elapsed": 306415,
		"internal_node_id": "0.0-3.0-1.100"
	},
	{
		"rt": 1509,
		"stimulus": "../audio/41-6-fem.mp3",
		"response": " ",
		"word": "e",
		"trial_type": "audio-keyboard-response",
		"trial_index": 136,
		"time_elapsed": 308220,
		"internal_node_id": "0.0-3.0-1.101"
	},
	{
		"rt": 1949,
		"stimulus": "../audio/41-7-fem.mp3",
		"response": " ",
		"word": "comédia.",
		"trial_type": "audio-keyboard-response",
		"trial_index": 137,
		"time_elapsed": 310477,
		"internal_node_id": "0.0-3.0-1.102"
	},
	{
		"rt": null,
		"stimulus": "<span style= \"font-size:30px; font-family: monospace\">+</span>",
		"response": null,
		"trial_part": "fixation",
		"trial_type": "html-keyboard-response",
		"trial_index": 138,
		"time_elapsed": 311746,
		"internal_node_id": "0.0-3.0-0.103-0.103"
	},
	{
		"rt": 1672,
		"stimulus": "../audio/42-1-masc.mp3",
		"response": " ",
		"word": "Eu",
		"trial_type": "audio-keyboard-response",
		"trial_index": 139,
		"time_elapsed": 313697,
		"internal_node_id": "0.0-3.0-1.103"
	},
	{
		"rt": 1381,
		"stimulus": "../audio/42-2-masc.mp3",
		"response": " ",
		"word": "fui",
		"trial_type": "audio-keyboard-response",
		"trial_index": 140,
		"time_elapsed": 315365,
		"internal_node_id": "0.0-3.0-1.104"
	},
	{
		"rt": 1619,
		"stimulus": "../audio/42-3-masc.mp3",
		"response": " ",
		"word": "a",
		"trial_type": "audio-keyboard-response",
		"trial_index": 141,
		"time_elapsed": 317268,
		"internal_node_id": "0.0-3.0-1.105"
	},
	{
		"rt": 1661,
		"stimulus": "../audio/42-4-masc.mp3",
		"response": " ",
		"word": "uma",
		"trial_type": "audio-keyboard-response",
		"trial_index": 142,
		"time_elapsed": 319212,
		"internal_node_id": "0.0-3.0-1.106"
	},
	{
		"rt": 1512,
		"stimulus": "../audio/42-5-masc.mp3",
		"response": " ",
		"word": "loja",
		"trial_type": "audio-keyboard-response",
		"trial_index": 143,
		"time_elapsed": 321013,
		"internal_node_id": "0.0-3.0-1.107"
	},
	{
		"rt": 3291,
		"stimulus": "../audio/42-6-masc.mp3",
		"response": " ",
		"word": "de",
		"trial_type": "audio-keyboard-response",
		"trial_index": 144,
		"time_elapsed": 324598,
		"internal_node_id": "0.0-3.0-1.108"
	},
	{
		"rt": 2048,
		"stimulus": "../audio/42-7-masc.mp3",
		"response": " ",
		"word": "móveis",
		"trial_type": "audio-keyboard-response",
		"trial_index": 145,
		"time_elapsed": 326945,
		"internal_node_id": "0.0-3.0-1.109"
	},
	{
		"rt": 1851,
		"stimulus": "../audio/42-8-masc.mp3",
		"response": " ",
		"word": "no",
		"trial_type": "audio-keyboard-response",
		"trial_index": 146,
		"time_elapsed": 329077,
		"internal_node_id": "0.0-3.0-1.110"
	},
	{
		"rt": 2149,
		"stimulus": "../audio/42-9-masc.mp3",
		"response": " ",
		"word": "bairro.",
		"trial_type": "audio-keyboard-response",
		"trial_index": 147,
		"time_elapsed": 331501,
		"internal_node_id": "0.0-3.0-1.111"
	},
	{
		"rt": null,
		"stimulus": "<span style= \"font-size:30px; font-family: monospace\">+</span>",
		"response": null,
		"trial_part": "fixation",
		"trial_type": "html-keyboard-response",
		"trial_index": 148,
		"time_elapsed": 332755,
		"internal_node_id": "0.0-3.0-0.112-0.112"
	},
	{
		"rt": 1979,
		"stimulus": "../audio/45-1-fem.mp3",
		"response": " ",
		"word": "O",
		"trial_type": "audio-keyboard-response",
		"trial_index": 149,
		"time_elapsed": 335064,
		"internal_node_id": "0.0-3.0-1.112"
	},
	{
		"rt": 1240,
		"stimulus": "../audio/45-2-fem.mp3",
		"response": " ",
		"word": "homem",
		"trial_type": "audio-keyboard-response",
		"trial_index": 150,
		"time_elapsed": 336633,
		"internal_node_id": "0.0-3.0-1.113"
	},
	{
		"rt": 1312,
		"stimulus": "../audio/45-3-fem.mp3",
		"response": " ",
		"word": "pagou",
		"trial_type": "audio-keyboard-response",
		"trial_index": 151,
		"time_elapsed": 338491,
		"internal_node_id": "0.0-3.0-1.114"
	},
	{
		"rt": 1592,
		"stimulus": "../audio/45-4-fem.mp3",
		"response": " ",
		"word": "o",
		"trial_type": "audio-keyboard-response",
		"trial_index": 152,
		"time_elapsed": 340380,
		"internal_node_id": "0.0-3.0-1.115"
	},
	{
		"rt": 2480,
		"stimulus": "../audio/45-5-fem.mp3",
		"response": " ",
		"word": "aluguel",
		"trial_type": "audio-keyboard-response",
		"trial_index": 153,
		"time_elapsed": 343163,
		"internal_node_id": "0.0-3.0-1.116"
	},
	{
		"rt": 1109,
		"stimulus": "../audio/45-6-fem.mp3",
		"response": " ",
		"word": "com",
		"trial_type": "audio-keyboard-response",
		"trial_index": 154,
		"time_elapsed": 344566,
		"internal_node_id": "0.0-3.0-1.117"
	},
	{
		"rt": 2259,
		"stimulus": "../audio/45-7-fem.mp3",
		"response": " ",
		"word": "atraso.",
		"trial_type": "audio-keyboard-response",
		"trial_index": 155,
		"time_elapsed": 347120,
		"internal_node_id": "0.0-3.0-1.118"
	},
	{
		"rt": 34583,
		"stimulus": "<span style=\"font-size:25px; font-family: monospace\">O homem pagou o aluguel em dia?</span>",
		"response": "n",
		"question": "O homem pagou o aluguel em dia?",
		"answer": "null",
		"trial": "exp-sent",
		"trial_type": "html-keyboard-response",
		"trial_index": 156,
		"time_elapsed": 381968,
		"internal_node_id": "0.0-3.0-2.118-0.118",
		"accuracy": false
	},
	{
		"rt": null,
		"stimulus": "<span style= \"font-size:30px; font-family: monospace\">+</span>",
		"response": null,
		"trial_part": "fixation",
		"trial_type": "html-keyboard-response",
		"trial_index": 157,
		"time_elapsed": 383469,
		"internal_node_id": "0.0-3.0-0.119-0.119"
	},
	{
		"rt": 1688,
		"stimulus": "../audio/04-1-masc.mp3",
		"response": " ",
		"word": "Duzentos",
		"trial_type": "audio-keyboard-response",
		"trial_index": 158,
		"time_elapsed": 385645,
		"internal_node_id": "0.0-3.0-1.119"
	},
	{
		"rt": 1461,
		"stimulus": "../audio/04-2-masc.mp3",
		"response": " ",
		"word": "carros",
		"trial_type": "audio-keyboard-response",
		"trial_index": 159,
		"time_elapsed": 387390,
		"internal_node_id": "0.0-3.0-1.120"
	},
	{
		"rt": 1509,
		"stimulus": "../audio/04-3-masc.mp3",
		"response": " ",
		"word": "passaram",
		"trial_type": "audio-keyboard-response",
		"trial_index": 160,
		"time_elapsed": 389204,
		"internal_node_id": "0.0-3.0-1.121"
	},
	{
		"rt": 1120,
		"stimulus": "../audio/04-4-masc.mp3",
		"response": " ",
		"word": "pela",
		"trial_type": "audio-keyboard-response",
		"trial_index": 161,
		"time_elapsed": 390626,
		"internal_node_id": "0.0-3.0-1.122"
	},
	{
		"rt": 1139,
		"stimulus": "../audio/04-5-masc.mp3",
		"response": " ",
		"word": "ponte",
		"trial_type": "audio-keyboard-response",
		"trial_index": 162,
		"time_elapsed": 392054,
		"internal_node_id": "0.0-3.0-1.123"
	},
	{
		"rt": 1232,
		"stimulus": "../audio/04-6-masc.mp3",
		"response": " ",
		"word": "hoje",
		"trial_type": "audio-keyboard-response",
		"trial_index": 163,
		"time_elapsed": 393550,
		"internal_node_id": "0.0-3.0-1.124"
	},
	{
		"rt": 971,
		"stimulus": "../audio/04-7-masc.mp3",
		"response": " ",
		"word": "de",
		"trial_type": "audio-keyboard-response",
		"trial_index": 164,
		"time_elapsed": 394788,
		"internal_node_id": "0.0-3.0-1.125"
	},
	{
		"rt": 1099,
		"stimulus": "../audio/04-8-masc.mp3",
		"response": " ",
		"word": "tarde.",
		"trial_type": "audio-keyboard-response",
		"trial_index": 165,
		"time_elapsed": 396174,
		"internal_node_id": "0.0-3.0-1.126"
	},
	{
		"rt": null,
		"stimulus": "<span style= \"font-size:30px; font-family: monospace\">+</span>",
		"response": null,
		"trial_part": "fixation",
		"trial_type": "html-keyboard-response",
		"trial_index": 166,
		"time_elapsed": 397440,
		"internal_node_id": "0.0-3.0-0.127-0.127"
	},
	{
		"rt": 189,
		"stimulus": "../audio/03-1-fem.mp3",
		"response": " ",
		"word": "O",
		"trial_type": "audio-keyboard-response",
		"trial_index": 167,
		"time_elapsed": 397922,
		"internal_node_id": "0.0-3.0-1.127"
	},
	{
		"rt": 1472,
		"stimulus": "../audio/03-2-fem.mp3",
		"response": " ",
		"word": "coelho",
		"trial_type": "audio-keyboard-response",
		"trial_index": 168,
		"time_elapsed": 399674,
		"internal_node_id": "0.0-3.0-1.128"
	},
	{
		"rt": 1181,
		"stimulus": "../audio/03-3-fem.mp3",
		"response": " ",
		"word": "foi",
		"trial_type": "audio-keyboard-response",
		"trial_index": 169,
		"time_elapsed": 401146,
		"internal_node_id": "0.0-3.0-1.129"
	},
	{
		"rt": 1291,
		"stimulus": "../audio/03-4-fem.mp3",
		"response": " ",
		"word": "bastante",
		"trial_type": "audio-keyboard-response",
		"trial_index": 170,
		"time_elapsed": 402786,
		"internal_node_id": "0.0-3.0-1.130"
	},
	{
		"rt": 1469,
		"stimulus": "../audio/03-5-fem.mp3",
		"response": " ",
		"word": "dócil",
		"trial_type": "audio-keyboard-response",
		"trial_index": 171,
		"time_elapsed": 404603,
		"internal_node_id": "0.0-3.0-1.131"
	},
	{
		"rt": 1179,
		"stimulus": "../audio/03-6-fem.mp3",
		"response": " ",
		"word": "com",
		"trial_type": "audio-keyboard-response",
		"trial_index": 172,
		"time_elapsed": 406086,
		"internal_node_id": "0.0-3.0-1.132"
	},
	{
		"rt": 1899,
		"stimulus": "../audio/03-7-fem.mp3",
		"response": " ",
		"word": "as",
		"trial_type": "audio-keyboard-response",
		"trial_index": 173,
		"time_elapsed": 408290,
		"internal_node_id": "0.0-3.0-1.133"
	},
	{
		"rt": 1589,
		"stimulus": "../audio/03-8-fem.mp3",
		"response": " ",
		"word": "crianças.",
		"trial_type": "audio-keyboard-response",
		"trial_index": 174,
		"time_elapsed": 410170,
		"internal_node_id": "0.0-3.0-1.134"
	},
	{
		"rt": null,
		"stimulus": "<span style= \"font-size:30px; font-family: monospace\">+</span>",
		"response": null,
		"trial_part": "fixation",
		"trial_type": "html-keyboard-response",
		"trial_index": 175,
		"time_elapsed": 411435,
		"internal_node_id": "0.0-3.0-0.135-0.135"
	},
	{
		"rt": 3101,
		"stimulus": "../audio/02-2-masc.mp3",
		"response": " ",
		"word": "Havia",
		"trial_type": "audio-keyboard-response",
		"trial_index": 176,
		"time_elapsed": 414837,
		"internal_node_id": "0.0-3.0-1.135"
	},
	{
		"rt": 1699,
		"stimulus": "../audio/02-2-masc.mp3",
		"response": " ",
		"word": "um",
		"trial_type": "audio-keyboard-response",
		"trial_index": 177,
		"time_elapsed": 416803,
		"internal_node_id": "0.0-3.0-1.136"
	},
	{
		"rt": 2931,
		"stimulus": "../audio/02-3-masc.mp3",
		"response": " ",
		"word": "cheiro",
		"trial_type": "audio-keyboard-response",
		"trial_index": 178,
		"time_elapsed": 420055,
		"internal_node_id": "0.0-3.0-1.137"
	},
	{
		"rt": 1240,
		"stimulus": "../audio/02-4-masc.mp3",
		"response": " ",
		"word": "de",
		"trial_type": "audio-keyboard-response",
		"trial_index": 179,
		"time_elapsed": 421585,
		"internal_node_id": "0.0-3.0-1.138"
	},
	{
		"rt": 1320,
		"stimulus": "../audio/02-5-masc.mp3",
		"response": " ",
		"word": "gasolina",
		"trial_type": "audio-keyboard-response",
		"trial_index": 180,
		"time_elapsed": 423196,
		"internal_node_id": "0.0-3.0-1.139"
	},
	{
		"rt": 1200,
		"stimulus": "../audio/02-6-masc.mp3",
		"response": " ",
		"word": "na",
		"trial_type": "audio-keyboard-response",
		"trial_index": 181,
		"time_elapsed": 424691,
		"internal_node_id": "0.0-3.0-1.140"
	},
	{
		"rt": 1371,
		"stimulus": "../audio/02-7-masc.mp3",
		"response": " ",
		"word": "garagem.",
		"trial_type": "audio-keyboard-response",
		"trial_index": 182,
		"time_elapsed": 426354,
		"internal_node_id": "0.0-3.0-1.141"
	},
	{
		"rt": null,
		"stimulus": "<span style= \"font-size:30px; font-family: monospace\">+</span>",
		"response": null,
		"trial_part": "fixation",
		"trial_type": "html-keyboard-response",
		"trial_index": 183,
		"time_elapsed": 427609,
		"internal_node_id": "0.0-3.0-0.142-0.142"
	},
	{
		"rt": 1200,
		"stimulus": "../audio/01-1-fem.mp3",
		"response": " ",
		"word": "O",
		"trial_type": "audio-keyboard-response",
		"trial_index": 184,
		"time_elapsed": 429178,
		"internal_node_id": "0.0-3.0-1.142"
	},
	{
		"rt": 1491,
		"stimulus": "../audio/01-2-fem.mp3",
		"response": " ",
		"word": "menino",
		"trial_type": "audio-keyboard-response",
		"trial_index": 185,
		"time_elapsed": 431054,
		"internal_node_id": "0.0-3.0-1.143"
	},
	{
		"rt": 1528,
		"stimulus": "../audio/01-3-fem.mp3",
		"response": " ",
		"word": "derrubou",
		"trial_type": "audio-keyboard-response",
		"trial_index": 186,
		"time_elapsed": 432926,
		"internal_node_id": "0.0-3.0-1.144"
	},
	{
		"rt": 2179,
		"stimulus": "../audio/01-4-fem.mp3",
		"response": " ",
		"word": "a",
		"trial_type": "audio-keyboard-response",
		"trial_index": 187,
		"time_elapsed": 435403,
		"internal_node_id": "0.0-3.0-1.145"
	},
	{
		"rt": 1371,
		"stimulus": "../audio/01-5-fem.mp3",
		"response": " ",
		"word": "guitarra",
		"trial_type": "audio-keyboard-response",
		"trial_index": 188,
		"time_elapsed": 437096,
		"internal_node_id": "0.0-3.0-1.146"
	},
	{
		"rt": 1141,
		"stimulus": "../audio/01-6-fem.mp3",
		"response": " ",
		"word": "no",
		"trial_type": "audio-keyboard-response",
		"trial_index": 189,
		"time_elapsed": 438541,
		"internal_node_id": "0.0-3.0-1.147"
	},
	{
		"rt": 1520,
		"stimulus": "../audio/01-7-fem.mp3",
		"response": " ",
		"word": "chão.",
		"trial_type": "audio-keyboard-response",
		"trial_index": 190,
		"time_elapsed": 440362,
		"internal_node_id": "0.0-3.0-1.148"
	},
	{
		"rt": null,
		"stimulus": "<span style= \"font-size:30px; font-family: monospace\">+</span>",
		"response": null,
		"trial_part": "fixation",
		"trial_type": "html-keyboard-response",
		"trial_index": 191,
		"time_elapsed": 441627,
		"internal_node_id": "0.0-3.0-0.149-0.149"
	},
	{
		"rt": 272,
		"stimulus": "../audio/05-1-masc.mp3",
		"response": " ",
		"word": "A",
		"trial_type": "audio-keyboard-response",
		"trial_index": 192,
		"time_elapsed": 442197,
		"internal_node_id": "0.0-3.0-1.149"
	},
	{
		"rt": 1429,
		"stimulus": "../audio/05-2-masc.mp3",
		"response": " ",
		"word": "vendedora",
		"trial_type": "audio-keyboard-response",
		"trial_index": 193,
		"time_elapsed": 443961,
		"internal_node_id": "0.0-3.0-1.150"
	},
	{
		"rt": 1069,
		"stimulus": "../audio/05-3-masc.mp3",
		"response": " ",
		"word": "ajudou",
		"trial_type": "audio-keyboard-response",
		"trial_index": 194,
		"time_elapsed": 445323,
		"internal_node_id": "0.0-3.0-1.151"
	},
	{
		"rt": 1160,
		"stimulus": "../audio/05-4-masc.mp3",
		"response": " ",
		"word": "um",
		"trial_type": "audio-keyboard-response",
		"trial_index": 195,
		"time_elapsed": 446772,
		"internal_node_id": "0.0-3.0-1.152"
	},
	{
		"rt": 1309,
		"stimulus": "../audio/05-5-masc.mp3",
		"response": " ",
		"word": "turista",
		"trial_type": "audio-keyboard-response",
		"trial_index": 196,
		"time_elapsed": 448398,
		"internal_node_id": "0.0-3.0-1.153"
	},
	{
		"rt": 1019,
		"stimulus": "../audio/05-6-masc.mp3",
		"response": " ",
		"word": "na",
		"trial_type": "audio-keyboard-response",
		"trial_index": 197,
		"time_elapsed": 449732,
		"internal_node_id": "0.0-3.0-1.154"
	},
	{
		"rt": 1288,
		"stimulus": "../audio/05-7-masc.mp3",
		"response": " ",
		"word": "loja.",
		"trial_type": "audio-keyboard-response",
		"trial_index": 198,
		"time_elapsed": 451319,
		"internal_node_id": "0.0-3.0-1.155"
	},
	{
		"rt": 19687,
		"stimulus": "<span style=\"font-size:25px; font-family: monospace\">A vendedora ajudou um turista?</span>",
		"response": "s",
		"question": "A vendedora ajudou um turista?",
		"answer": "null",
		"trial": "exp-sent",
		"trial_type": "html-keyboard-response",
		"trial_index": 199,
		"time_elapsed": 471266,
		"internal_node_id": "0.0-3.0-2.155-0.155",
		"accuracy": false
	},
	{
		"rt": null,
		"stimulus": "<span style= \"font-size:30px; font-family: monospace\">+</span>",
		"response": null,
		"trial_part": "fixation",
		"trial_type": "html-keyboard-response",
		"trial_index": 200,
		"time_elapsed": 472794,
		"internal_node_id": "0.0-3.0-0.156-0.156"
	},
	{
		"rt": 11771,
		"stimulus": "../audio/68-1-masc.mp3",
		"response": " ",
		"word": "Meu",
		"trial_type": "audio-keyboard-response",
		"trial_index": 201,
		"time_elapsed": 484862,
		"internal_node_id": "0.0-3.0-1.156"
	},
	{
		"rt": 2251,
		"stimulus": "../audio/68-2-masc.mp3",
		"response": " ",
		"word": "irmão",
		"trial_type": "audio-keyboard-response",
		"trial_index": 202,
		"time_elapsed": 487502,
		"internal_node_id": "0.0-3.0-1.157"
	},
	{
		"rt": 1931,
		"stimulus": "../audio/68-3-masc.mp3",
		"response": " ",
		"word": "teve",
		"trial_type": "audio-keyboard-response",
		"trial_index": 203,
		"time_elapsed": 489728,
		"internal_node_id": "0.0-3.0-1.158"
	},
	{
		"rt": 1760,
		"stimulus": "../audio/68-4-masc.mp3",
		"response": " ",
		"word": "um",
		"trial_type": "audio-keyboard-response",
		"trial_index": 204,
		"time_elapsed": 491789,
		"internal_node_id": "0.0-3.0-1.159"
	},
	{
		"rt": 1600,
		"stimulus": "../audio/68-5-masc.mp3",
		"response": " ",
		"word": "noivado",
		"trial_type": "audio-keyboard-response",
		"trial_index": 205,
		"time_elapsed": 493690,
		"internal_node_id": "0.0-3.0-1.160"
	},
	{
		"rt": 1400,
		"stimulus": "../audio/68-6-masc.mp3",
		"response": " ",
		"word": "longo",
		"trial_type": "audio-keyboard-response",
		"trial_index": 206,
		"time_elapsed": 495384,
		"internal_node_id": "0.0-3.0-1.161"
	},
	{
		"rt": 1291,
		"stimulus": "../audio/68-7-masc.mp3",
		"response": " ",
		"word": "e",
		"trial_type": "audio-keyboard-response",
		"trial_index": 207,
		"time_elapsed": 496956,
		"internal_node_id": "0.0-3.0-1.162"
	},
	{
		"rt": 2131,
		"stimulus": "../audio/68-8-masc.mp3",
		"response": " ",
		"word": "maravilhoso.",
		"trial_type": "audio-keyboard-response",
		"trial_index": 208,
		"time_elapsed": 499412,
		"internal_node_id": "0.0-3.0-1.163"
	},
	{
		"rt": null,
		"stimulus": "<span style= \"font-size:30px; font-family: monospace\">+</span>",
		"response": null,
		"trial_part": "fixation",
		"trial_type": "html-keyboard-response",
		"trial_index": 209,
		"time_elapsed": 500673,
		"internal_node_id": "0.0-3.0-0.164-0.164"
	},
	{
		"rt": 149,
		"stimulus": "../audio/69-1-fem.mp3",
		"response": " ",
		"word": "A",
		"trial_type": "audio-keyboard-response",
		"trial_index": 210,
		"time_elapsed": 501120,
		"internal_node_id": "0.0-3.0-1.164"
	},
	{
		"rt": 1571,
		"stimulus": "../audio/69-2-fem.mp3",
		"response": " ",
		"word": "loja",
		"trial_type": "audio-keyboard-response",
		"trial_index": 211,
		"time_elapsed": 502975,
		"internal_node_id": "0.0-3.0-1.165"
	},
	{
		"rt": 1160,
		"stimulus": "../audio/69-3-fem.mp3",
		"response": " ",
		"word": "recebeu",
		"trial_type": "audio-keyboard-response",
		"trial_index": 212,
		"time_elapsed": 504474,
		"internal_node_id": "0.0-3.0-1.166"
	},
	{
		"rt": 1371,
		"stimulus": "../audio/69-4-fem.mp3",
		"response": " ",
		"word": "uma",
		"trial_type": "audio-keyboard-response",
		"trial_index": 213,
		"time_elapsed": 506150,
		"internal_node_id": "0.0-3.0-1.167"
	},
	{
		"rt": 1528,
		"stimulus": "../audio/69-5-fem.mp3",
		"response": " ",
		"word": "poltrona",
		"trial_type": "audio-keyboard-response",
		"trial_index": 214,
		"time_elapsed": 507959,
		"internal_node_id": "0.0-3.0-1.168"
	},
	{
		"rt": 899,
		"stimulus": "../audio/69-6-fem.mp3",
		"response": " ",
		"word": "de",
		"trial_type": "audio-keyboard-response",
		"trial_index": 215,
		"time_elapsed": 509165,
		"internal_node_id": "0.0-3.0-1.169"
	},
	{
		"rt": 1032,
		"stimulus": "../audio/69-7-fem.mp3",
		"response": " ",
		"word": "couro",
		"trial_type": "audio-keyboard-response",
		"trial_index": 216,
		"time_elapsed": 510468,
		"internal_node_id": "0.0-3.0-1.170"
	},
	{
		"rt": 1091,
		"stimulus": "../audio/69-8-fem.mp3",
		"response": " ",
		"word": "preto.",
		"trial_type": "audio-keyboard-response",
		"trial_index": 217,
		"time_elapsed": 511848,
		"internal_node_id": "0.0-3.0-1.171"
	},
	{
		"rt": null,
		"stimulus": "<span style= \"font-size:30px; font-family: monospace\">+</span>",
		"response": null,
		"trial_part": "fixation",
		"trial_type": "html-keyboard-response",
		"trial_index": 218,
		"time_elapsed": 513126,
		"internal_node_id": "0.0-3.0-0.172-0.172"
	},
	{
		"rt": 1200,
		"stimulus": "../audio/67-1-fem.mp3",
		"response": " ",
		"word": "Minha",
		"trial_type": "audio-keyboard-response",
		"trial_index": 219,
		"time_elapsed": 514625,
		"internal_node_id": "0.0-3.0-1.172"
	},
	{
		"rt": 971,
		"stimulus": "../audio/67-2-fem.mp3",
		"response": " ",
		"word": "tia",
		"trial_type": "audio-keyboard-response",
		"trial_index": 220,
		"time_elapsed": 515874,
		"internal_node_id": "0.0-3.0-1.173"
	},
	{
		"rt": 1091,
		"stimulus": "../audio/67-3-fem.mp3",
		"response": " ",
		"word": "comprou",
		"trial_type": "audio-keyboard-response",
		"trial_index": 221,
		"time_elapsed": 517247,
		"internal_node_id": "0.0-3.0-1.174"
	},
	{
		"rt": 1120,
		"stimulus": "../audio/67-4-fem.mp3",
		"response": " ",
		"word": "um",
		"trial_type": "audio-keyboard-response",
		"trial_index": 222,
		"time_elapsed": 518654,
		"internal_node_id": "0.0-3.0-1.175"
	},
	{
		"rt": 1061,
		"stimulus": "../audio/67-5-fem.mp3",
		"response": " ",
		"word": "cordão",
		"trial_type": "audio-keyboard-response",
		"trial_index": 223,
		"time_elapsed": 519993,
		"internal_node_id": "0.0-3.0-1.176"
	},
	{
		"rt": 1400,
		"stimulus": "../audio/67-6-fem.mp3",
		"response": " ",
		"word": "para",
		"trial_type": "audio-keyboard-response",
		"trial_index": 224,
		"time_elapsed": 521668,
		"internal_node_id": "0.0-3.0-1.177"
	},
	{
		"rt": 1531,
		"stimulus": "../audio/67-7-fem.mp3",
		"response": " ",
		"word": "o",
		"trial_type": "audio-keyboard-response",
		"trial_index": 225,
		"time_elapsed": 523492,
		"internal_node_id": "0.0-3.0-1.178"
	},
	{
		"rt": 1251,
		"stimulus": "../audio/67-8-fem.mp3",
		"response": " ",
		"word": "varal.",
		"trial_type": "audio-keyboard-response",
		"trial_index": 226,
		"time_elapsed": 525029,
		"internal_node_id": "0.0-3.0-1.179"
	},
	{
		"rt": null,
		"stimulus": "<span style= \"font-size:30px; font-family: monospace\">+</span>",
		"response": null,
		"trial_part": "fixation",
		"trial_type": "html-keyboard-response",
		"trial_index": 227,
		"time_elapsed": 526296,
		"internal_node_id": "0.0-3.0-0.180-0.180"
	},
	{
		"rt": 920,
		"stimulus": "../audio/66-1-masc.mp3",
		"response": " ",
		"word": "Não",
		"trial_type": "audio-keyboard-response",
		"trial_index": 228,
		"time_elapsed": 527541,
		"internal_node_id": "0.0-3.0-1.180"
	},
	{
		"rt": 1520,
		"stimulus": "../audio/66-2-masc.mp3",
		"response": " ",
		"word": "gosto",
		"trial_type": "audio-keyboard-response",
		"trial_index": 229,
		"time_elapsed": 529366,
		"internal_node_id": "0.0-3.0-1.181"
	},
	{
		"rt": 1451,
		"stimulus": "../audio/66-3-masc.mp3",
		"response": " ",
		"word": "de",
		"trial_type": "audio-keyboard-response",
		"trial_index": 230,
		"time_elapsed": 531112,
		"internal_node_id": "0.0-3.0-1.182"
	},
	{
		"rt": 1360,
		"stimulus": "../audio/66-4-masc.mp3",
		"response": " ",
		"word": "gente",
		"trial_type": "audio-keyboard-response",
		"trial_index": 231,
		"time_elapsed": 532811,
		"internal_node_id": "0.0-3.0-1.183"
	},
	{
		"rt": 1691,
		"stimulus": "../audio/66-5-masc.mp3",
		"response": " ",
		"word": "egoísta",
		"trial_type": "audio-keyboard-response",
		"trial_index": 232,
		"time_elapsed": 534903,
		"internal_node_id": "0.0-3.0-1.184"
	},
	{
		"rt": 1040,
		"stimulus": "../audio/66-6-masc.mp3",
		"response": " ",
		"word": "nem",
		"trial_type": "audio-keyboard-response",
		"trial_index": 233,
		"time_elapsed": 536357,
		"internal_node_id": "0.0-3.0-1.185"
	},
	{
		"rt": 1120,
		"stimulus": "../audio/66-7-masc.mp3",
		"response": " ",
		"word": "chata.",
		"trial_type": "audio-keyboard-response",
		"trial_index": 234,
		"time_elapsed": 537772,
		"internal_node_id": "0.0-3.0-1.186"
	},
	{
		"rt": null,
		"stimulus": "<span style= \"font-size:30px; font-family: monospace\">+</span>",
		"response": null,
		"trial_part": "fixation",
		"trial_type": "html-keyboard-response",
		"trial_index": 235,
		"time_elapsed": 539047,
		"internal_node_id": "0.0-3.0-0.187-0.187"
	},
	{
		"rt": 720,
		"stimulus": "../audio/70-1-fem.mp3",
		"response": " ",
		"word": "O",
		"trial_type": "audio-keyboard-response",
		"trial_index": 236,
		"time_elapsed": 540088,
		"internal_node_id": "0.0-3.0-1.187"
	},
	{
		"rt": 1520,
		"stimulus": "../audio/70-2-fem.mp3",
		"response": " ",
		"word": "meu",
		"trial_type": "audio-keyboard-response",
		"trial_index": 237,
		"time_elapsed": 541926,
		"internal_node_id": "0.0-3.0-1.188"
	},
	{
		"rt": 1171,
		"stimulus": "../audio/70-3-fem.mp3",
		"response": " ",
		"word": "filho",
		"trial_type": "audio-keyboard-response",
		"trial_index": 238,
		"time_elapsed": 543415,
		"internal_node_id": "0.0-3.0-1.189"
	},
	{
		"rt": 1141,
		"stimulus": "../audio/70-4-fem.mp3",
		"response": " ",
		"word": "tem",
		"trial_type": "audio-keyboard-response",
		"trial_index": 239,
		"time_elapsed": 544837,
		"internal_node_id": "0.0-3.0-1.190"
	},
	{
		"rt": 1291,
		"stimulus": "../audio/70-5-fem.mp3",
		"response": " ",
		"word": "medo",
		"trial_type": "audio-keyboard-response",
		"trial_index": 240,
		"time_elapsed": 546415,
		"internal_node_id": "0.0-3.0-1.191"
	},
	{
		"rt": 1109,
		"stimulus": "../audio/70-6-fem.mp3",
		"response": " ",
		"word": "de",
		"trial_type": "audio-keyboard-response",
		"trial_index": 241,
		"time_elapsed": 547813,
		"internal_node_id": "0.0-3.0-1.192"
	},
	{
		"rt": 1691,
		"stimulus": "../audio/70-7-fem.mp3",
		"response": " ",
		"word": "enguia",
		"trial_type": "audio-keyboard-response",
		"trial_index": 242,
		"time_elapsed": 549817,
		"internal_node_id": "0.0-3.0-1.193"
	},
	{
		"rt": 1320,
		"stimulus": "../audio/70-8-fem.mp3",
		"response": " ",
		"word": "e",
		"trial_type": "audio-keyboard-response",
		"trial_index": 243,
		"time_elapsed": 551426,
		"internal_node_id": "0.0-3.0-1.194"
	},
	{
		"rt": 2240,
		"stimulus": "../audio/70-9-fem.mp3",
		"response": " ",
		"word": "beija-flor.",
		"trial_type": "audio-keyboard-response",
		"trial_index": 244,
		"time_elapsed": 553951,
		"internal_node_id": "0.0-3.0-1.195"
	},
	{
		"rt": 15617,
		"stimulus": "<span style=\"font-size:25px; font-family: monospace\">O filho tem medo de tigre?</span>",
		"response": "n",
		"question": "O filho tem medo de tigre?",
		"answer": "null",
		"trial": "exp-sent",
		"trial_type": "html-keyboard-response",
		"trial_index": 245,
		"time_elapsed": 569833,
		"internal_node_id": "0.0-3.0-2.195-0.195",
		"accuracy": false
	},
	{
		"rt": null,
		"stimulus": "<span style= \"font-size:30px; font-family: monospace\">+</span>",
		"response": null,
		"trial_part": "fixation",
		"trial_type": "html-keyboard-response",
		"trial_index": 246,
		"time_elapsed": 571347,
		"internal_node_id": "0.0-3.0-0.196-0.196"
	},
	{
		"rt": 1891,
		"stimulus": "../audio/12-1-masc.mp3",
		"response": " ",
		"word": "O",
		"trial_type": "audio-keyboard-response",
		"trial_index": 247,
		"time_elapsed": 573544,
		"internal_node_id": "0.0-3.0-1.196"
	},
	{
		"rt": 1240,
		"stimulus": "../audio/12-2-masc.mp3",
		"response": " ",
		"word": "dia",
		"trial_type": "audio-keyboard-response",
		"trial_index": 248,
		"time_elapsed": 575096,
		"internal_node_id": "0.0-3.0-1.197"
	},
	{
		"rt": 1219,
		"stimulus": "../audio/12-3-masc.mp3",
		"response": " ",
		"word": "estava",
		"trial_type": "audio-keyboard-response",
		"trial_index": 249,
		"time_elapsed": 576603,
		"internal_node_id": "0.0-3.0-1.198"
	},
	{
		"rt": 1451,
		"stimulus": "../audio/12-4-masc.mp3",
		"response": " ",
		"word": "quente,",
		"trial_type": "audio-keyboard-response",
		"trial_index": 250,
		"time_elapsed": 578349,
		"internal_node_id": "0.0-3.0-1.199"
	},
	{
		"rt": 1480,
		"stimulus": "../audio/12-5-masc.mp3",
		"response": " ",
		"word": "tranquilo",
		"trial_type": "audio-keyboard-response",
		"trial_index": 251,
		"time_elapsed": 580144,
		"internal_node_id": "0.0-3.0-1.200"
	},
	{
		"rt": 1101,
		"stimulus": "../audio/12-6-masc.mp3",
		"response": " ",
		"word": "e",
		"trial_type": "audio-keyboard-response",
		"trial_index": 252,
		"time_elapsed": 581585,
		"internal_node_id": "0.0-3.0-1.201"
	},
	{
		"rt": 1840,
		"stimulus": "../audio/12-7-masc.mp3",
		"response": " ",
		"word": "ensolarado.",
		"trial_type": "audio-keyboard-response",
		"trial_index": 253,
		"time_elapsed": 583752,
		"internal_node_id": "0.0-3.0-1.202"
	},
	{
		"rt": null,
		"stimulus": "<span style= \"font-size:30px; font-family: monospace\">+</span>",
		"response": null,
		"trial_part": "fixation",
		"trial_type": "html-keyboard-response",
		"trial_index": 254,
		"time_elapsed": 585008,
		"internal_node_id": "0.0-3.0-0.203-0.203"
	},
	{
		"rt": 1320,
		"stimulus": "../audio/13-1-masc.mp3",
		"response": " ",
		"word": "Para",
		"trial_type": "audio-keyboard-response",
		"trial_index": 255,
		"time_elapsed": 586704,
		"internal_node_id": "0.0-3.0-1.203"
	},
	{
		"rt": 1229,
		"stimulus": "../audio/13-2-masc.mp3",
		"response": " ",
		"word": "mim",
		"trial_type": "audio-keyboard-response",
		"trial_index": 256,
		"time_elapsed": 588240,
		"internal_node_id": "0.0-3.0-1.204"
	},
	{
		"rt": 1211,
		"stimulus": "../audio/13-3-masc.mp3",
		"response": " ",
		"word": "é",
		"trial_type": "audio-keyboard-response",
		"trial_index": 257,
		"time_elapsed": 589753,
		"internal_node_id": "0.0-3.0-1.205"
	},
	{
		"rt": 1429,
		"stimulus": "../audio/13-4-masc.mp3",
		"response": " ",
		"word": "muito",
		"trial_type": "audio-keyboard-response",
		"trial_index": 258,
		"time_elapsed": 591483,
		"internal_node_id": "0.0-3.0-1.206"
	},
	{
		"rt": 1469,
		"stimulus": "../audio/13-5-masc.mp3",
		"response": " ",
		"word": "difícil",
		"trial_type": "audio-keyboard-response",
		"trial_index": 259,
		"time_elapsed": 593240,
		"internal_node_id": "0.0-3.0-1.207"
	},
	{
		"rt": 1360,
		"stimulus": "../audio/13-6-masc.mp3",
		"response": " ",
		"word": "acordar",
		"trial_type": "audio-keyboard-response",
		"trial_index": 260,
		"time_elapsed": 594899,
		"internal_node_id": "0.0-3.0-1.208"
	},
	{
		"rt": 1341,
		"stimulus": "../audio/13-7-masc.mp3",
		"response": " ",
		"word": "cedo.",
		"trial_type": "audio-keyboard-response",
		"trial_index": 261,
		"time_elapsed": 596543,
		"internal_node_id": "0.0-3.0-1.209"
	},
	{
		"rt": null,
		"stimulus": "<span style= \"font-size:30px; font-family: monospace\">+</span>",
		"response": null,
		"trial_part": "fixation",
		"trial_type": "html-keyboard-response",
		"trial_index": 262,
		"time_elapsed": 597826,
		"internal_node_id": "0.0-3.0-0.210-0.210"
	},
	{
		"rt": 221,
		"stimulus": "../audio/14-1-fem.mp3",
		"response": " ",
		"word": "O",
		"trial_type": "audio-keyboard-response",
		"trial_index": 263,
		"time_elapsed": 598337,
		"internal_node_id": "0.0-3.0-1.210"
	},
	{
		"rt": 1349,
		"stimulus": "../audio/14-2-fem.mp3",
		"response": " ",
		"word": "cachorro",
		"trial_type": "audio-keyboard-response",
		"trial_index": 264,
		"time_elapsed": 599986,
		"internal_node_id": "0.0-3.0-1.211"
	},
	{
		"rt": 1029,
		"stimulus": "../audio/14-3-fem.mp3",
		"response": " ",
		"word": "é",
		"trial_type": "audio-keyboard-response",
		"trial_index": 265,
		"time_elapsed": 601306,
		"internal_node_id": "0.0-3.0-1.212"
	},
	{
		"rt": 1131,
		"stimulus": "../audio/14-4-fem.mp3",
		"response": " ",
		"word": "muito",
		"trial_type": "audio-keyboard-response",
		"trial_index": 266,
		"time_elapsed": 602731,
		"internal_node_id": "0.0-3.0-1.213"
	},
	{
		"rt": 1160,
		"stimulus": "../audio/14-5-fem.mp3",
		"response": " ",
		"word": "fiel",
		"trial_type": "audio-keyboard-response",
		"trial_index": 267,
		"time_elapsed": 604193,
		"internal_node_id": "0.0-3.0-1.214"
	},
	{
		"rt": 1048,
		"stimulus": "../audio/14-6-fem.mp3",
		"response": " ",
		"word": "a",
		"trial_type": "audio-keyboard-response",
		"trial_index": 268,
		"time_elapsed": 605517,
		"internal_node_id": "0.0-3.0-1.215"
	},
	{
		"rt": 1629,
		"stimulus": "../audio/14-7-fem.mp3",
		"response": " ",
		"word": "seus",
		"trial_type": "audio-keyboard-response",
		"trial_index": 269,
		"time_elapsed": 607458,
		"internal_node_id": "0.0-3.0-1.216"
	},
	{
		"rt": 2480,
		"stimulus": "../audio/14-8-fem.mp3",
		"response": " ",
		"word": "donos.",
		"trial_type": "audio-keyboard-response",
		"trial_index": 270,
		"time_elapsed": 610310,
		"internal_node_id": "0.0-3.0-1.217"
	},
	{
		"rt": null,
		"stimulus": "<span style= \"font-size:30px; font-family: monospace\">+</span>",
		"response": null,
		"trial_part": "fixation",
		"trial_type": "html-keyboard-response",
		"trial_index": 271,
		"time_elapsed": 611586,
		"internal_node_id": "0.0-3.0-0.218-0.218"
	},
	{
		"rt": 1400,
		"stimulus": "../audio/11-1-fem.mp3",
		"response": " ",
		"word": "Elas",
		"trial_type": "audio-keyboard-response",
		"trial_index": 272,
		"time_elapsed": 613286,
		"internal_node_id": "0.0-3.0-1.218"
	},
	{
		"rt": 1419,
		"stimulus": "../audio/11-2-fem.mp3",
		"response": " ",
		"word": "gostam",
		"trial_type": "audio-keyboard-response",
		"trial_index": 273,
		"time_elapsed": 615011,
		"internal_node_id": "0.0-3.0-1.219"
	},
	{
		"rt": 1280,
		"stimulus": "../audio/11-3-fem.mp3",
		"response": " ",
		"word": "muito",
		"trial_type": "audio-keyboard-response",
		"trial_index": 274,
		"time_elapsed": 616582,
		"internal_node_id": "0.0-3.0-1.220"
	},
	{
		"rt": 1051,
		"stimulus": "../audio/11-4-fem.mp3",
		"response": " ",
		"word": "de",
		"trial_type": "audio-keyboard-response",
		"trial_index": 275,
		"time_elapsed": 617909,
		"internal_node_id": "0.0-3.0-1.221"
	},
	{
		"rt": 2139,
		"stimulus": "../audio/11-5-fem.mp3",
		"response": " ",
		"word": "aritmética",
		"trial_type": "audio-keyboard-response",
		"trial_index": 276,
		"time_elapsed": 620365,
		"internal_node_id": "0.0-3.0-1.222"
	},
	{
		"rt": 1011,
		"stimulus": "../audio/11-6-fem.mp3",
		"response": " ",
		"word": "e",
		"trial_type": "audio-keyboard-response",
		"trial_index": 277,
		"time_elapsed": 621669,
		"internal_node_id": "0.0-3.0-1.223"
	},
	{
		"rt": 960,
		"stimulus": "../audio/11-7-fem.mp3",
		"response": " ",
		"word": "de",
		"trial_type": "audio-keyboard-response",
		"trial_index": 278,
		"time_elapsed": 622924,
		"internal_node_id": "0.0-3.0-1.224"
	},
	{
		"rt": 1499,
		"stimulus": "../audio/11-8-fem.mp3",
		"response": " ",
		"word": "leitura.",
		"trial_type": "audio-keyboard-response",
		"trial_index": 279,
		"time_elapsed": 624734,
		"internal_node_id": "0.0-3.0-1.225"
	},
	{
		"rt": null,
		"stimulus": "<span style= \"font-size:30px; font-family: monospace\">+</span>",
		"response": null,
		"trial_part": "fixation",
		"trial_type": "html-keyboard-response",
		"trial_index": 280,
		"time_elapsed": 626001,
		"internal_node_id": "0.0-3.0-0.226-0.226"
	},
	{
		"rt": 1128,
		"stimulus": "../audio/15-1-fem.mp3",
		"response": " ",
		"word": "Meu",
		"trial_type": "audio-keyboard-response",
		"trial_index": 281,
		"time_elapsed": 627562,
		"internal_node_id": "0.0-3.0-1.226"
	},
	{
		"rt": 1232,
		"stimulus": "../audio/15-2-fem.mp3",
		"response": " ",
		"word": "primo",
		"trial_type": "audio-keyboard-response",
		"trial_index": 282,
		"time_elapsed": 629113,
		"internal_node_id": "0.0-3.0-1.227"
	},
	{
		"rt": 1059,
		"stimulus": "../audio/15-3-fem.mp3",
		"response": " ",
		"word": "é",
		"trial_type": "audio-keyboard-response",
		"trial_index": 283,
		"time_elapsed": 630482,
		"internal_node_id": "0.0-3.0-1.228"
	},
	{
		"rt": 1109,
		"stimulus": "../audio/15-4-fem.mp3",
		"response": " ",
		"word": "um",
		"trial_type": "audio-keyboard-response",
		"trial_index": 284,
		"time_elapsed": 631888,
		"internal_node_id": "0.0-3.0-1.229"
	},
	{
		"rt": 1219,
		"stimulus": "../audio/15-5-fem.mp3",
		"response": " ",
		"word": "grande",
		"trial_type": "audio-keyboard-response",
		"trial_index": 285,
		"time_elapsed": 633478,
		"internal_node_id": "0.0-3.0-1.230"
	},
	{
		"rt": 1349,
		"stimulus": "../audio/15-6-fem.mp3",
		"response": " ",
		"word": "vendedor",
		"trial_type": "audio-keyboard-response",
		"trial_index": 286,
		"time_elapsed": 635118,
		"internal_node_id": "0.0-3.0-1.231"
	},
	{
		"rt": 1061,
		"stimulus": "../audio/15-7-fem.mp3",
		"response": " ",
		"word": "de",
		"trial_type": "audio-keyboard-response",
		"trial_index": 287,
		"time_elapsed": 636458,
		"internal_node_id": "0.0-3.0-1.232"
	},
	{
		"rt": 1691,
		"stimulus": "../audio/15-8-fem.mp3",
		"response": " ",
		"word": "carros.",
		"trial_type": "audio-keyboard-response",
		"trial_index": 288,
		"time_elapsed": 638430,
		"internal_node_id": "0.0-3.0-1.233"
	},
	{
		"rt": 4785,
		"stimulus": "<span style=\"font-size:25px; font-family: monospace\">O primo é um vendedor de carros?</span>",
		"response": "n",
		"question": "O primo é um vendedor de carros?",
		"answer": "null",
		"trial": "exp-sent",
		"trial_type": "html-keyboard-response",
		"trial_index": 289,
		"time_elapsed": 643472,
		"internal_node_id": "0.0-3.0-2.233-0.233",
		"accuracy": false
	},
	{
		"rt": null,
		"stimulus": "<span style= \"font-size:30px; font-family: monospace\">+</span>",
		"response": null,
		"trial_part": "fixation",
		"trial_type": "html-keyboard-response",
		"trial_index": 290,
		"time_elapsed": 645000,
		"internal_node_id": "0.0-3.0-0.234-0.234"
	},
	{
		"rt": 11699,
		"stimulus": "../audio/76-1-fem.mp3",
		"response": " ",
		"word": "O",
		"trial_type": "audio-keyboard-response",
		"trial_index": 291,
		"time_elapsed": 657016,
		"internal_node_id": "0.0-3.0-1.234"
	},
	{
		"rt": 1491,
		"stimulus": "../audio/76-2-fem.mp3",
		"response": " ",
		"word": "bisavô",
		"trial_type": "audio-keyboard-response",
		"trial_index": 292,
		"time_elapsed": 658870,
		"internal_node_id": "0.0-3.0-1.235"
	},
	{
		"rt": 1661,
		"stimulus": "../audio/76-3-fem.mp3",
		"response": " ",
		"word": "comprou",
		"trial_type": "audio-keyboard-response",
		"trial_index": 293,
		"time_elapsed": 660875,
		"internal_node_id": "0.0-3.0-1.236"
	},
	{
		"rt": 1259,
		"stimulus": "../audio/76-4-fem.mp3",
		"response": " ",
		"word": "um",
		"trial_type": "audio-keyboard-response",
		"trial_index": 294,
		"time_elapsed": 662439,
		"internal_node_id": "0.0-3.0-1.237"
	},
	{
		"rt": 1421,
		"stimulus": "../audio/76-5-fem.mp3",
		"response": " ",
		"word": "ralador",
		"trial_type": "audio-keyboard-response",
		"trial_index": 295,
		"time_elapsed": 664157,
		"internal_node_id": "0.0-3.0-1.238"
	},
	{
		"rt": 1059,
		"stimulus": "../audio/76-6-fem.mp3",
		"response": " ",
		"word": "de",
		"trial_type": "audio-keyboard-response",
		"trial_index": 296,
		"time_elapsed": 665560,
		"internal_node_id": "0.0-3.0-1.239"
	},
	{
		"rt": 1221,
		"stimulus": "../audio/76-7-fem.mp3",
		"response": " ",
		"word": "queijo.",
		"trial_type": "audio-keyboard-response",
		"trial_index": 297,
		"time_elapsed": 667076,
		"internal_node_id": "0.0-3.0-1.240"
	},
	{
		"rt": null,
		"stimulus": "<span style= \"font-size:30px; font-family: monospace\">+</span>",
		"response": null,
		"trial_part": "fixation",
		"trial_type": "html-keyboard-response",
		"trial_index": 298,
		"time_elapsed": 668337,
		"internal_node_id": "0.0-3.0-0.241-0.241"
	},
	{
		"rt": 1131,
		"stimulus": "../audio/78-1-fem.mp3",
		"response": " ",
		"word": "Eles",
		"trial_type": "audio-keyboard-response",
		"trial_index": 299,
		"time_elapsed": 669822,
		"internal_node_id": "0.0-3.0-1.241"
	},
	{
		"rt": 1160,
		"stimulus": "../audio/78-2-fem.mp3",
		"response": " ",
		"word": "trazem",
		"trial_type": "audio-keyboard-response",
		"trial_index": 300,
		"time_elapsed": 671297,
		"internal_node_id": "0.0-3.0-1.242"
	},
	{
		"rt": 1019,
		"stimulus": "../audio/78-3-fem.mp3",
		"response": " ",
		"word": "um",
		"trial_type": "audio-keyboard-response",
		"trial_index": 301,
		"time_elapsed": 672604,
		"internal_node_id": "0.0-3.0-1.243"
	},
	{
		"rt": 1459,
		"stimulus": "../audio/78-4-fem.mp3",
		"response": " ",
		"word": "fato",
		"trial_type": "audio-keyboard-response",
		"trial_index": 302,
		"time_elapsed": 674402,
		"internal_node_id": "0.0-3.0-1.244"
	},
	{
		"rt": 1499,
		"stimulus": "../audio/78-5-fem.mp3",
		"response": " ",
		"word": "urgente",
		"trial_type": "audio-keyboard-response",
		"trial_index": 303,
		"time_elapsed": 676207,
		"internal_node_id": "0.0-3.0-1.245"
	},
	{
		"rt": 1120,
		"stimulus": "../audio/78-6-fem.mp3",
		"response": " ",
		"word": "todos",
		"trial_type": "audio-keyboard-response",
		"trial_index": 304,
		"time_elapsed": 677623,
		"internal_node_id": "0.0-3.0-1.246"
	},
	{
		"rt": 1008,
		"stimulus": "../audio/78-7-fem.mp3",
		"response": " ",
		"word": "os",
		"trial_type": "audio-keyboard-response",
		"trial_index": 305,
		"time_elapsed": 678959,
		"internal_node_id": "0.0-3.0-1.247"
	},
	{
		"rt": 1229,
		"stimulus": "../audio/78-8-fem.mp3",
		"response": " ",
		"word": "dias.",
		"trial_type": "audio-keyboard-response",
		"trial_index": 306,
		"time_elapsed": 680492,
		"internal_node_id": "0.0-3.0-1.248"
	},
	{
		"rt": null,
		"stimulus": "<span style= \"font-size:30px; font-family: monospace\">+</span>",
		"response": null,
		"trial_part": "fixation",
		"trial_type": "html-keyboard-response",
		"trial_index": 307,
		"time_elapsed": 681768,
		"internal_node_id": "0.0-3.0-0.249-0.249"
	},
	{
		"rt": 1189,
		"stimulus": "../audio/79-1-masc.mp3",
		"response": " ",
		"word": "A",
		"trial_type": "audio-keyboard-response",
		"trial_index": 308,
		"time_elapsed": 683265,
		"internal_node_id": "0.0-3.0-1.249"
	},
	{
		"rt": 1352,
		"stimulus": "../audio/79-2-masc.mp3",
		"response": " ",
		"word": "médica",
		"trial_type": "audio-keyboard-response",
		"trial_index": 309,
		"time_elapsed": 684907,
		"internal_node_id": "0.0-3.0-1.250"
	},
	{
		"rt": 1301,
		"stimulus": "../audio/79-3-masc.mp3",
		"response": " ",
		"word": "verificou",
		"trial_type": "audio-keyboard-response",
		"trial_index": 310,
		"time_elapsed": 686504,
		"internal_node_id": "0.0-3.0-1.251"
	},
	{
		"rt": 1109,
		"stimulus": "../audio/79-4-masc.mp3",
		"response": " ",
		"word": "a",
		"trial_type": "audio-keyboard-response",
		"trial_index": 311,
		"time_elapsed": 687890,
		"internal_node_id": "0.0-3.0-1.252"
	},
	{
		"rt": 1171,
		"stimulus": "../audio/79-5-masc.mp3",
		"response": " ",
		"word": "gengiva",
		"trial_type": "audio-keyboard-response",
		"trial_index": 312,
		"time_elapsed": 689634,
		"internal_node_id": "0.0-3.0-1.253"
	},
	{
		"rt": 1072,
		"stimulus": "../audio/79-6-masc.mp3",
		"response": " ",
		"word": "por",
		"trial_type": "audio-keyboard-response",
		"trial_index": 313,
		"time_elapsed": 690993,
		"internal_node_id": "0.0-3.0-1.254"
	},
	{
		"rt": 1192,
		"stimulus": "../audio/79-7-masc.mp3",
		"response": " ",
		"word": "último.",
		"trial_type": "audio-keyboard-response",
		"trial_index": 314,
		"time_elapsed": 692477,
		"internal_node_id": "0.0-3.0-1.255"
	},
	{
		"rt": null,
		"stimulus": "<span style= \"font-size:30px; font-family: monospace\">+</span>",
		"response": null,
		"trial_part": "fixation",
		"trial_type": "html-keyboard-response",
		"trial_index": 315,
		"time_elapsed": 693757,
		"internal_node_id": "0.0-3.0-0.256-0.256"
	},
	{
		"rt": 768,
		"stimulus": "../audio/77-1-masc.mp3",
		"response": " ",
		"word": "A",
		"trial_type": "audio-keyboard-response",
		"trial_index": 316,
		"time_elapsed": 694841,
		"internal_node_id": "0.0-3.0-1.256"
	},
	{
		"rt": 3680,
		"stimulus": "../audio/77-2-masc.mp3",
		"response": " ",
		"word": "criança",
		"trial_type": "audio-keyboard-response",
		"trial_index": 317,
		"time_elapsed": 698893,
		"internal_node_id": "0.0-3.0-1.257"
	},
	{
		"rt": 1549,
		"stimulus": "../audio/77-3-masc.mp3",
		"response": " ",
		"word": "ficou",
		"trial_type": "audio-keyboard-response",
		"trial_index": 318,
		"time_elapsed": 700738,
		"internal_node_id": "0.0-3.0-1.258"
	},
	{
		"rt": 1419,
		"stimulus": "../audio/77-4-masc.mp3",
		"response": " ",
		"word": "muito",
		"trial_type": "audio-keyboard-response",
		"trial_index": 319,
		"time_elapsed": 702488,
		"internal_node_id": "0.0-3.0-1.259"
	},
	{
		"rt": 2731,
		"stimulus": "../audio/77-5-masc.mp3",
		"response": " ",
		"word": "feliz",
		"trial_type": "audio-keyboard-response",
		"trial_index": 320,
		"time_elapsed": 705501,
		"internal_node_id": "0.0-3.0-1.260"
	},
	{
		"rt": 1219,
		"stimulus": "../audio/77-6-masc.mp3",
		"response": " ",
		"word": "com",
		"trial_type": "audio-keyboard-response",
		"trial_index": 321,
		"time_elapsed": 707041,
		"internal_node_id": "0.0-3.0-1.261"
	},
	{
		"rt": 1451,
		"stimulus": "../audio/77-7-masc.mp3",
		"response": " ",
		"word": "o",
		"trial_type": "audio-keyboard-response",
		"trial_index": 322,
		"time_elapsed": 708819,
		"internal_node_id": "0.0-3.0-1.262"
	},
	{
		"rt": 1360,
		"stimulus": "../audio/77-8-masc.mp3",
		"response": " ",
		"word": "brinquedo.",
		"trial_type": "audio-keyboard-response",
		"trial_index": 323,
		"time_elapsed": 710561,
		"internal_node_id": "0.0-3.0-1.263"
	},
	{
		"rt": null,
		"stimulus": "<span style= \"font-size:30px; font-family: monospace\">+</span>",
		"response": null,
		"trial_part": "fixation",
		"trial_type": "html-keyboard-response",
		"trial_index": 324,
		"time_elapsed": 711831,
		"internal_node_id": "0.0-3.0-0.264-0.264"
	},
	{
		"rt": 1229,
		"stimulus": "../audio/80-1-fem.mp3",
		"response": " ",
		"word": "Meu",
		"trial_type": "audio-keyboard-response",
		"trial_index": 325,
		"time_elapsed": 713366,
		"internal_node_id": "0.0-3.0-1.264"
	},
	{
		"rt": 1360,
		"stimulus": "../audio/80-2-fem.mp3",
		"response": " ",
		"word": "primo",
		"trial_type": "audio-keyboard-response",
		"trial_index": 326,
		"time_elapsed": 715071,
		"internal_node_id": "0.0-3.0-1.265"
	},
	{
		"rt": 1520,
		"stimulus": "../audio/80-3-fem.mp3",
		"response": " ",
		"word": "conheceu",
		"trial_type": "audio-keyboard-response",
		"trial_index": 327,
		"time_elapsed": 716888,
		"internal_node_id": "0.0-3.0-1.266"
	},
	{
		"rt": 1160,
		"stimulus": "../audio/80-4-fem.mp3",
		"response": " ",
		"word": "um",
		"trial_type": "audio-keyboard-response",
		"trial_index": 328,
		"time_elapsed": 718348,
		"internal_node_id": "0.0-3.0-1.267"
	},
	{
		"rt": 1392,
		"stimulus": "../audio/80-5-fem.mp3",
		"response": " ",
		"word": "jovem",
		"trial_type": "audio-keyboard-response",
		"trial_index": 329,
		"time_elapsed": 720033,
		"internal_node_id": "0.0-3.0-1.268"
	},
	{
		"rt": 1701,
		"stimulus": "../audio/80-6-fem.mp3",
		"response": " ",
		"word": "amável",
		"trial_type": "audio-keyboard-response",
		"trial_index": 330,
		"time_elapsed": 722029,
		"internal_node_id": "0.0-3.0-1.269"
	},
	{
		"rt": 1899,
		"stimulus": "../audio/80-7-fem.mp3",
		"response": " ",
		"word": "e",
		"trial_type": "audio-keyboard-response",
		"trial_index": 331,
		"time_elapsed": 724203,
		"internal_node_id": "0.0-3.0-1.270"
	},
	{
		"rt": 1520,
		"stimulus": "../audio/80-8-fem.mp3",
		"response": " ",
		"word": "confiante.",
		"trial_type": "audio-keyboard-response",
		"trial_index": 332,
		"time_elapsed": 726021,
		"internal_node_id": "0.0-3.0-1.271"
	},
	{
		"rt": 10336,
		"stimulus": "<span style=\"font-size:25px; font-family: monospace\">O primo conheceu um jovem irritante?</span>",
		"response": "n",
		"question": "O primo conheceu um jovem irritante?",
		"answer": "null",
		"trial": "exp-sent",
		"trial_type": "html-keyboard-response",
		"trial_index": 333,
		"time_elapsed": 736610,
		"internal_node_id": "0.0-3.0-2.271-0.271",
		"accuracy": false
	},
	{
		"rt": null,
		"stimulus": "<span style= \"font-size:30px; font-family: monospace\">+</span>",
		"response": null,
		"trial_part": "fixation",
		"trial_type": "html-keyboard-response",
		"trial_index": 334,
		"time_elapsed": 738120,
		"internal_node_id": "0.0-3.0-0.272-0.272"
	},
	{
		"rt": 1189,
		"stimulus": "../audio/16-1-masc.mp3",
		"response": " ",
		"word": "Eu",
		"trial_type": "audio-keyboard-response",
		"trial_index": 335,
		"time_elapsed": 739621,
		"internal_node_id": "0.0-3.0-1.272"
	},
	{
		"rt": 1371,
		"stimulus": "../audio/16-2-masc.mp3",
		"response": " ",
		"word": "nunca",
		"trial_type": "audio-keyboard-response",
		"trial_index": 336,
		"time_elapsed": 741268,
		"internal_node_id": "0.0-3.0-1.273"
	},
	{
		"rt": 1611,
		"stimulus": "../audio/16-3-masc.mp3",
		"response": " ",
		"word": "conheci",
		"trial_type": "audio-keyboard-response",
		"trial_index": 337,
		"time_elapsed": 743197,
		"internal_node_id": "0.0-3.0-1.274"
	},
	{
		"rt": 1291,
		"stimulus": "../audio/16-4-masc.mp3",
		"response": " ",
		"word": "um",
		"trial_type": "audio-keyboard-response",
		"trial_index": 338,
		"time_elapsed": 744776,
		"internal_node_id": "0.0-3.0-1.275"
	},
	{
		"rt": 1291,
		"stimulus": "../audio/16-5-masc.mp3",
		"response": " ",
		"word": "general",
		"trial_type": "audio-keyboard-response",
		"trial_index": 339,
		"time_elapsed": 746352,
		"internal_node_id": "0.0-3.0-1.276"
	},
	{
		"rt": 1259,
		"stimulus": "../audio/16-6-masc.mp3",
		"response": " ",
		"word": "do",
		"trial_type": "audio-keyboard-response",
		"trial_index": 340,
		"time_elapsed": 747920,
		"internal_node_id": "0.0-3.0-1.277"
	},
	{
		"rt": 1541,
		"stimulus": "../audio/16-7-masc.mp3",
		"response": " ",
		"word": "exército.",
		"trial_type": "audio-keyboard-response",
		"trial_index": 341,
		"time_elapsed": 749821,
		"internal_node_id": "0.0-3.0-1.278"
	},
	{
		"rt": null,
		"stimulus": "<span style= \"font-size:30px; font-family: monospace\">+</span>",
		"response": null,
		"trial_part": "fixation",
		"trial_type": "html-keyboard-response",
		"trial_index": 342,
		"time_elapsed": 751097,
		"internal_node_id": "0.0-3.0-0.279-0.279"
	},
	{
		"rt": 1179,
		"stimulus": "../audio/17-1-fem.mp3",
		"response": " ",
		"word": "Falaram",
		"trial_type": "audio-keyboard-response",
		"trial_index": 343,
		"time_elapsed": 752609,
		"internal_node_id": "0.0-3.0-1.279"
	},
	{
		"rt": 1000,
		"stimulus": "../audio/17-2-fem.mp3",
		"response": " ",
		"word": "da",
		"trial_type": "audio-keyboard-response",
		"trial_index": 344,
		"time_elapsed": 753905,
		"internal_node_id": "0.0-3.0-1.280"
	},
	{
		"rt": 1328,
		"stimulus": "../audio/17-3-fem.mp3",
		"response": " ",
		"word": "lei",
		"trial_type": "audio-keyboard-response",
		"trial_index": 345,
		"time_elapsed": 755521,
		"internal_node_id": "0.0-3.0-1.281"
	},
	{
		"rt": 1280,
		"stimulus": "../audio/17-4-fem.mp3",
		"response": " ",
		"word": "no",
		"trial_type": "audio-keyboard-response",
		"trial_index": 346,
		"time_elapsed": 757078,
		"internal_node_id": "0.0-3.0-1.282"
	},
	{
		"rt": 1771,
		"stimulus": "../audio/17-5-fem.mp3",
		"response": " ",
		"word": "ministério",
		"trial_type": "audio-keyboard-response",
		"trial_index": 347,
		"time_elapsed": 759151,
		"internal_node_id": "0.0-3.0-1.283"
	},
	{
		"rt": 1480,
		"stimulus": "../audio/17-6-fem.mp3",
		"response": " ",
		"word": "diversas",
		"trial_type": "audio-keyboard-response",
		"trial_index": 348,
		"time_elapsed": 760971,
		"internal_node_id": "0.0-3.0-1.284"
	},
	{
		"rt": 1179,
		"stimulus": "../audio/17-7-fem.mp3",
		"response": " ",
		"word": "vezes.",
		"trial_type": "audio-keyboard-response",
		"trial_index": 349,
		"time_elapsed": 762445,
		"internal_node_id": "0.0-3.0-1.285"
	},
	{
		"rt": null,
		"stimulus": "<span style= \"font-size:30px; font-family: monospace\">+</span>",
		"response": null,
		"trial_part": "fixation",
		"trial_type": "html-keyboard-response",
		"trial_index": 350,
		"time_elapsed": 763714,
		"internal_node_id": "0.0-3.0-0.286-0.286"
	},
	{
		"rt": 848,
		"stimulus": "../audio/18-1-masc.mp3",
		"response": " ",
		"word": "O",
		"trial_type": "audio-keyboard-response",
		"trial_index": 351,
		"time_elapsed": 764879,
		"internal_node_id": "0.0-3.0-1.286"
	},
	{
		"rt": 1709,
		"stimulus": "../audio/18-2-masc.mp3",
		"response": " ",
		"word": "enredo",
		"trial_type": "audio-keyboard-response",
		"trial_index": 352,
		"time_elapsed": 766894,
		"internal_node_id": "0.0-3.0-1.287"
	},
	{
		"rt": 1019,
		"stimulus": "../audio/18-3-masc.mp3",
		"response": " ",
		"word": "traz",
		"trial_type": "audio-keyboard-response",
		"trial_index": 353,
		"time_elapsed": 768213,
		"internal_node_id": "0.0-3.0-1.288"
	},
	{
		"rt": 880,
		"stimulus": "../audio/18-4-masc.mp3",
		"response": " ",
		"word": "um",
		"trial_type": "audio-keyboard-response",
		"trial_index": 354,
		"time_elapsed": 769382,
		"internal_node_id": "0.0-3.0-1.289"
	},
	{
		"rt": 1019,
		"stimulus": "../audio/18-5-masc.mp3",
		"response": " ",
		"word": "dragão",
		"trial_type": "audio-keyboard-response",
		"trial_index": 355,
		"time_elapsed": 770694,
		"internal_node_id": "0.0-3.0-1.290"
	},
	{
		"rt": 1320,
		"stimulus": "../audio/18-6-masc.mp3",
		"response": " ",
		"word": "forte",
		"trial_type": "audio-keyboard-response",
		"trial_index": 356,
		"time_elapsed": 772315,
		"internal_node_id": "0.0-3.0-1.291"
	},
	{
		"rt": 1720,
		"stimulus": "../audio/18-7-masc.mp3",
		"response": " ",
		"word": "e",
		"trial_type": "audio-keyboard-response",
		"trial_index": 357,
		"time_elapsed": 774338,
		"internal_node_id": "0.0-3.0-1.292"
	},
	{
		"rt": 2589,
		"stimulus": "../audio/18-8-masc.mp3",
		"response": " ",
		"word": "solitário.",
		"trial_type": "audio-keyboard-response",
		"trial_index": 358,
		"time_elapsed": 777375,
		"internal_node_id": "0.0-3.0-1.293"
	},
	{
		"rt": null,
		"stimulus": "<span style= \"font-size:30px; font-family: monospace\">+</span>",
		"response": null,
		"trial_part": "fixation",
		"trial_type": "html-keyboard-response",
		"trial_index": 359,
		"time_elapsed": 778642,
		"internal_node_id": "0.0-3.0-0.294-0.294"
	},
	{
		"rt": 811,
		"stimulus": "../audio/19-1-fem.mp3",
		"response": " ",
		"word": "O",
		"trial_type": "audio-keyboard-response",
		"trial_index": 360,
		"time_elapsed": 779755,
		"internal_node_id": "0.0-3.0-1.294"
	},
	{
		"rt": 1309,
		"stimulus": "../audio/19-2-fem.mp3",
		"response": " ",
		"word": "menino",
		"trial_type": "audio-keyboard-response",
		"trial_index": 361,
		"time_elapsed": 781402,
		"internal_node_id": "0.0-3.0-1.295"
	},
	{
		"rt": 1360,
		"stimulus": "../audio/19-3-fem.mp3",
		"response": " ",
		"word": "ganhou",
		"trial_type": "audio-keyboard-response",
		"trial_index": 362,
		"time_elapsed": 783058,
		"internal_node_id": "0.0-3.0-1.296"
	},
	{
		"rt": 1179,
		"stimulus": "../audio/19-4-fem.mp3",
		"response": " ",
		"word": "uma",
		"trial_type": "audio-keyboard-response",
		"trial_index": 363,
		"time_elapsed": 784537,
		"internal_node_id": "0.0-3.0-1.297"
	},
	{
		"rt": 1179,
		"stimulus": "../audio/19-5-fem.mp3",
		"response": " ",
		"word": "bala",
		"trial_type": "audio-keyboard-response",
		"trial_index": 364,
		"time_elapsed": 786000,
		"internal_node_id": "0.0-3.0-1.298"
	},
	{
		"rt": 1851,
		"stimulus": "../audio/19-6-fem.mp3",
		"response": " ",
		"word": "depois",
		"trial_type": "audio-keyboard-response",
		"trial_index": 365,
		"time_elapsed": 788136,
		"internal_node_id": "0.0-3.0-1.299"
	},
	{
		"rt": 1368,
		"stimulus": "../audio/19-7-fem.mp3",
		"response": " ",
		"word": "do",
		"trial_type": "audio-keyboard-response",
		"trial_index": 366,
		"time_elapsed": 789807,
		"internal_node_id": "0.0-3.0-1.300"
	},
	{
		"rt": 1371,
		"stimulus": "../audio/19-8-fem.mp3",
		"response": " ",
		"word": "almoço.",
		"trial_type": "audio-keyboard-response",
		"trial_index": 367,
		"time_elapsed": 791470,
		"internal_node_id": "0.0-3.0-1.301"
	},
	{
		"rt": null,
		"stimulus": "<span style= \"font-size:30px; font-family: monospace\">+</span>",
		"response": null,
		"trial_part": "fixation",
		"trial_type": "html-keyboard-response",
		"trial_index": 368,
		"time_elapsed": 792738,
		"internal_node_id": "0.0-3.0-0.302-0.302"
	},
	{
		"rt": 141,
		"stimulus": "../audio/20-1-masc.mp3",
		"response": " ",
		"word": "O",
		"trial_type": "audio-keyboard-response",
		"trial_index": 369,
		"time_elapsed": 793184,
		"internal_node_id": "0.0-3.0-1.302"
	},
	{
		"rt": 1091,
		"stimulus": "../audio/20-2-masc.mp3",
		"response": " ",
		"word": "colega",
		"trial_type": "audio-keyboard-response",
		"trial_index": 370,
		"time_elapsed": 794587,
		"internal_node_id": "0.0-3.0-1.303"
	},
	{
		"rt": 1200,
		"stimulus": "../audio/20-3-masc.mp3",
		"response": " ",
		"word": "parecia",
		"trial_type": "audio-keyboard-response",
		"trial_index": 371,
		"time_elapsed": 796086,
		"internal_node_id": "0.0-3.0-1.304"
	},
	{
		"rt": 1451,
		"stimulus": "../audio/20-4-masc.mp3",
		"response": " ",
		"word": "muito",
		"trial_type": "audio-keyboard-response",
		"trial_index": 372,
		"time_elapsed": 797835,
		"internal_node_id": "0.0-3.0-1.305"
	},
	{
		"rt": 1272,
		"stimulus": "../audio/20-5-masc.mp3",
		"response": " ",
		"word": "gripado",
		"trial_type": "audio-keyboard-response",
		"trial_index": 373,
		"time_elapsed": 799395,
		"internal_node_id": "0.0-3.0-1.306"
	},
	{
		"rt": 1112,
		"stimulus": "../audio/20-6-masc.mp3",
		"response": " ",
		"word": "no",
		"trial_type": "audio-keyboard-response",
		"trial_index": 374,
		"time_elapsed": 800788,
		"internal_node_id": "0.0-3.0-1.307"
	},
	{
		"rt": 1339,
		"stimulus": "../audio/20-7-masc.mp3",
		"response": " ",
		"word": "dia",
		"trial_type": "audio-keyboard-response",
		"trial_index": 375,
		"time_elapsed": 802417,
		"internal_node_id": "0.0-3.0-1.308"
	},
	{
		"rt": 1229,
		"stimulus": "../audio/20-8-masc.mp3",
		"response": " ",
		"word": "anterior.",
		"trial_type": "audio-keyboard-response",
		"trial_index": 376,
		"time_elapsed": 804027,
		"internal_node_id": "0.0-3.0-1.309"
	},
	{
		"rt": 26554,
		"stimulus": "<span style=\"font-size:25px; font-family: monospace\">O colega parecia muito gripado?</span>",
		"response": "s",
		"question": "O colega parecia muito gripado?",
		"answer": "null",
		"trial": "exp-sent",
		"trial_type": "html-keyboard-response",
		"trial_index": 377,
		"time_elapsed": 830843,
		"internal_node_id": "0.0-3.0-2.309-0.309",
		"accuracy": false
	},
	{
		"rt": null,
		"stimulus": "<span style= \"font-size:30px; font-family: monospace\">+</span>",
		"response": null,
		"trial_part": "fixation",
		"trial_type": "html-keyboard-response",
		"trial_index": 378,
		"time_elapsed": 832356,
		"internal_node_id": "0.0-3.0-0.310-0.310"
	},
	{
		"rt": 1211,
		"stimulus": "../audio/48-1-fem.mp3",
		"response": " ",
		"word": "Ela",
		"trial_type": "audio-keyboard-response",
		"trial_index": 379,
		"time_elapsed": 833892,
		"internal_node_id": "0.0-3.0-1.310"
	},
	{
		"rt": 1611,
		"stimulus": "../audio/48-2-fem.mp3",
		"response": " ",
		"word": "come",
		"trial_type": "audio-keyboard-response",
		"trial_index": 380,
		"time_elapsed": 835816,
		"internal_node_id": "0.0-3.0-1.311"
	},
	{
		"rt": 1320,
		"stimulus": "../audio/48-3-fem.mp3",
		"response": " ",
		"word": "feijão",
		"trial_type": "audio-keyboard-response",
		"trial_index": 381,
		"time_elapsed": 837438,
		"internal_node_id": "0.0-3.0-1.312"
	},
	{
		"rt": 1061,
		"stimulus": "../audio/48-4-fem.mp3",
		"response": " ",
		"word": "com",
		"trial_type": "audio-keyboard-response",
		"trial_index": 382,
		"time_elapsed": 838784,
		"internal_node_id": "0.0-3.0-1.313"
	},
	{
		"rt": 1269,
		"stimulus": "../audio/48-5-fem.mp3",
		"response": " ",
		"word": "arroz",
		"trial_type": "audio-keyboard-response",
		"trial_index": 383,
		"time_elapsed": 840338,
		"internal_node_id": "0.0-3.0-1.314"
	},
	{
		"rt": 1189,
		"stimulus": "../audio/48-6-fem.mp3",
		"response": " ",
		"word": "todos",
		"trial_type": "audio-keyboard-response",
		"trial_index": 384,
		"time_elapsed": 841825,
		"internal_node_id": "0.0-3.0-1.315"
	},
	{
		"rt": 2320,
		"stimulus": "../audio/48-7-fem.mp3",
		"response": " ",
		"word": "os",
		"trial_type": "audio-keyboard-response",
		"trial_index": 385,
		"time_elapsed": 844525,
		"internal_node_id": "0.0-3.0-1.316"
	},
	{
		"rt": 2669,
		"stimulus": "../audio/48-8-fem.mp3",
		"response": " ",
		"word": "dias.",
		"trial_type": "audio-keyboard-response",
		"trial_index": 386,
		"time_elapsed": 847520,
		"internal_node_id": "0.0-3.0-1.317"
	},
	{
		"rt": null,
		"stimulus": "<span style= \"font-size:30px; font-family: monospace\">+</span>",
		"response": null,
		"trial_part": "fixation",
		"trial_type": "html-keyboard-response",
		"trial_index": 387,
		"time_elapsed": 848783,
		"internal_node_id": "0.0-3.0-0.318-0.318"
	},
	{
		"rt": 1000,
		"stimulus": "../audio/46-1-fem.mp3",
		"response": " ",
		"word": "Meu",
		"trial_type": "audio-keyboard-response",
		"trial_index": 388,
		"time_elapsed": 850115,
		"internal_node_id": "0.0-3.0-1.318"
	},
	{
		"rt": 1541,
		"stimulus": "../audio/46-2-fem.mp3",
		"response": " ",
		"word": "primo",
		"trial_type": "audio-keyboard-response",
		"trial_index": 389,
		"time_elapsed": 851947,
		"internal_node_id": "0.0-3.0-1.319"
	},
	{
		"rt": 1360,
		"stimulus": "../audio/46-3-fem.mp3",
		"response": " ",
		"word": "estava",
		"trial_type": "audio-keyboard-response",
		"trial_index": 390,
		"time_elapsed": 853606,
		"internal_node_id": "0.0-3.0-1.320"
	},
	{
		"rt": 1461,
		"stimulus": "../audio/46-4-fem.mp3",
		"response": " ",
		"word": "muito",
		"trial_type": "audio-keyboard-response",
		"trial_index": 391,
		"time_elapsed": 855355,
		"internal_node_id": "0.0-3.0-1.321"
	},
	{
		"rt": 1461,
		"stimulus": "../audio/46-5-fem.mp3",
		"response": " ",
		"word": "deprimido",
		"trial_type": "audio-keyboard-response",
		"trial_index": 392,
		"time_elapsed": 857146,
		"internal_node_id": "0.0-3.0-1.322"
	},
	{
		"rt": 1160,
		"stimulus": "../audio/46-6-fem.mp3",
		"response": " ",
		"word": "no",
		"trial_type": "audio-keyboard-response",
		"trial_index": 393,
		"time_elapsed": 858596,
		"internal_node_id": "0.0-3.0-1.323"
	},
	{
		"rt": 1432,
		"stimulus": "../audio/46-7-fem.mp3",
		"response": " ",
		"word": "inverno.",
		"trial_type": "audio-keyboard-response",
		"trial_index": 394,
		"time_elapsed": 860356,
		"internal_node_id": "0.0-3.0-1.324"
	},
	{
		"rt": null,
		"stimulus": "<span style= \"font-size:30px; font-family: monospace\">+</span>",
		"response": null,
		"trial_part": "fixation",
		"trial_type": "html-keyboard-response",
		"trial_index": 395,
		"time_elapsed": 861625,
		"internal_node_id": "0.0-3.0-0.325-0.325"
	},
	{
		"rt": 1339,
		"stimulus": "../audio/49-1-masc.mp3",
		"response": " ",
		"word": "Eu",
		"trial_type": "audio-keyboard-response",
		"trial_index": 396,
		"time_elapsed": 863253,
		"internal_node_id": "0.0-3.0-1.325"
	},
	{
		"rt": 1229,
		"stimulus": "../audio/49-2-masc.mp3",
		"response": " ",
		"word": "quero",
		"trial_type": "audio-keyboard-response",
		"trial_index": 397,
		"time_elapsed": 864779,
		"internal_node_id": "0.0-3.0-1.326"
	},
	{
		"rt": 1272,
		"stimulus": "../audio/49-3-masc.mp3",
		"response": " ",
		"word": "um",
		"trial_type": "audio-keyboard-response",
		"trial_index": 398,
		"time_elapsed": 866355,
		"internal_node_id": "0.0-3.0-1.327"
	},
	{
		"rt": 1339,
		"stimulus": "../audio/49-4-masc.mp3",
		"response": " ",
		"word": "lanche",
		"trial_type": "audio-keyboard-response",
		"trial_index": 399,
		"time_elapsed": 868017,
		"internal_node_id": "0.0-3.0-1.328"
	},
	{
		"rt": 1229,
		"stimulus": "../audio/49-5-masc.mp3",
		"response": " ",
		"word": "duplo",
		"trial_type": "audio-keyboard-response",
		"trial_index": 400,
		"time_elapsed": 869588,
		"internal_node_id": "0.0-3.0-1.329"
	},
	{
		"rt": 869,
		"stimulus": "../audio/49-6-masc.mp3",
		"response": " ",
		"word": "e",
		"trial_type": "audio-keyboard-response",
		"trial_index": 401,
		"time_elapsed": 870748,
		"internal_node_id": "0.0-3.0-1.330"
	},
	{
		"rt": 1200,
		"stimulus": "../audio/49-7-masc.mp3",
		"response": " ",
		"word": "um",
		"trial_type": "audio-keyboard-response",
		"trial_index": 402,
		"time_elapsed": 872244,
		"internal_node_id": "0.0-3.0-1.331"
	},
	{
		"rt": 1331,
		"stimulus": "../audio/49-8-masc.mp3",
		"response": " ",
		"word": "suco.",
		"trial_type": "audio-keyboard-response",
		"trial_index": 403,
		"time_elapsed": 873859,
		"internal_node_id": "0.0-3.0-1.332"
	},
	{
		"rt": null,
		"stimulus": "<span style= \"font-size:30px; font-family: monospace\">+</span>",
		"response": null,
		"trial_part": "fixation",
		"trial_type": "html-keyboard-response",
		"trial_index": 404,
		"time_elapsed": 875112,
		"internal_node_id": "0.0-3.0-0.333-0.333"
	},
	{
		"rt": 701,
		"stimulus": "../audio/47-1-masc.mp3",
		"response": " ",
		"word": "O",
		"trial_type": "audio-keyboard-response",
		"trial_index": 405,
		"time_elapsed": 876111,
		"internal_node_id": "0.0-3.0-1.333"
	},
	{
		"rt": 1040,
		"stimulus": "../audio/47-2-masc.mp3",
		"response": " ",
		"word": "tio",
		"trial_type": "audio-keyboard-response",
		"trial_index": 406,
		"time_elapsed": 877440,
		"internal_node_id": "0.0-3.0-1.334"
	},
	{
		"rt": 1309,
		"stimulus": "../audio/47-3-masc.mp3",
		"response": " ",
		"word": "recusou",
		"trial_type": "audio-keyboard-response",
		"trial_index": 407,
		"time_elapsed": 879050,
		"internal_node_id": "0.0-3.0-1.335"
	},
	{
		"rt": 989,
		"stimulus": "../audio/47-4-masc.mp3",
		"response": " ",
		"word": "a",
		"trial_type": "audio-keyboard-response",
		"trial_index": 408,
		"time_elapsed": 880329,
		"internal_node_id": "0.0-3.0-1.336"
	},
	{
		"rt": 2368,
		"stimulus": "../audio/47-5-masc.mp3",
		"response": " ",
		"word": "sobremesa",
		"trial_type": "audio-keyboard-response",
		"trial_index": 409,
		"time_elapsed": 883018,
		"internal_node_id": "0.0-3.0-1.337"
	},
	{
		"rt": 909,
		"stimulus": "../audio/47-6-masc.mp3",
		"response": " ",
		"word": "no",
		"trial_type": "audio-keyboard-response",
		"trial_index": 410,
		"time_elapsed": 884220,
		"internal_node_id": "0.0-3.0-1.338"
	},
	{
		"rt": 1219,
		"stimulus": "../audio/47-7-masc.mp3",
		"response": " ",
		"word": "almoço.",
		"trial_type": "audio-keyboard-response",
		"trial_index": 411,
		"time_elapsed": 885768,
		"internal_node_id": "0.0-3.0-1.339"
	},
	{
		"rt": null,
		"stimulus": "<span style= \"font-size:30px; font-family: monospace\">+</span>",
		"response": null,
		"trial_part": "fixation",
		"trial_type": "html-keyboard-response",
		"trial_index": 412,
		"time_elapsed": 887033,
		"internal_node_id": "0.0-3.0-0.340-0.340"
	},
	{
		"rt": 1101,
		"stimulus": "../audio/50-1-masc.mp3",
		"response": " ",
		"word": "O",
		"trial_type": "audio-keyboard-response",
		"trial_index": 413,
		"time_elapsed": 888428,
		"internal_node_id": "0.0-3.0-1.340"
	},
	{
		"rt": 1379,
		"stimulus": "../audio/50-2-masc.mp3",
		"response": " ",
		"word": "pássaro",
		"trial_type": "audio-keyboard-response",
		"trial_index": 414,
		"time_elapsed": 890131,
		"internal_node_id": "0.0-3.0-1.341"
	},
	{
		"rt": 1251,
		"stimulus": "../audio/50-3-masc.mp3",
		"response": " ",
		"word": "fugiu",
		"trial_type": "audio-keyboard-response",
		"trial_index": 415,
		"time_elapsed": 891674,
		"internal_node_id": "0.0-3.0-1.342"
	},
	{
		"rt": 1072,
		"stimulus": "../audio/50-4-masc.mp3",
		"response": " ",
		"word": "da",
		"trial_type": "audio-keyboard-response",
		"trial_index": 416,
		"time_elapsed": 893036,
		"internal_node_id": "0.0-3.0-1.343"
	},
	{
		"rt": 1360,
		"stimulus": "../audio/50-5-masc.mp3",
		"response": " ",
		"word": "gaiola",
		"trial_type": "audio-keyboard-response",
		"trial_index": 417,
		"time_elapsed": 894695,
		"internal_node_id": "0.0-3.0-1.344"
	},
	{
		"rt": 1059,
		"stimulus": "../audio/50-6-masc.mp3",
		"response": " ",
		"word": "pela",
		"trial_type": "audio-keyboard-response",
		"trial_index": 418,
		"time_elapsed": 896054,
		"internal_node_id": "0.0-3.0-1.345"
	},
	{
		"rt": 1419,
		"stimulus": "../audio/50-7-masc.mp3",
		"response": " ",
		"word": "portinhola.",
		"trial_type": "audio-keyboard-response",
		"trial_index": 419,
		"time_elapsed": 897764,
		"internal_node_id": "0.0-3.0-1.346"
	},
	{
		"rt": 7634,
		"stimulus": "<span style=\"font-size:25px; font-family: monospace\">O pássaro fugiu da gaiola?</span>",
		"response": "s",
		"question": "O pássaro fugiu da gaiola?",
		"answer": "null",
		"trial": "exp-sent",
		"trial_type": "html-keyboard-response",
		"trial_index": 420,
		"time_elapsed": 905661,
		"internal_node_id": "0.0-3.0-2.346-0.346",
		"accuracy": false
	},
	{
		"rt": null,
		"stimulus": "<span style= \"font-size:30px; font-family: monospace\">+</span>",
		"response": null,
		"trial_part": "fixation",
		"trial_type": "html-keyboard-response",
