"view_history","rt","trial_type","trial_index","time_elapsed","internal_node_id","stimulus","response","class","status","answer","correct","trial","letters"
"[{""page_index"":0,""viewing_time"":14622}]","14623","instructions","0","14623","0.0-0.0","","","","","","","",""
"","null","html-keyboard-response","1","15247","0.0-1.0-0.0","+","null","","","","","",""
"","42613","html-keyboard-response","2","57861","0.0-1.0-1.0","chassi","n","null","cog","word","S","prac","null"
"","null","html-keyboard-response","3","58364","0.0-1.0-0.1","+","null","","","","","",""
"","2799","html-keyboard-response","4","61163","0.0-1.0-1.1","calmaria","s","null","noncog","word","S","prac","null"
"","null","html-keyboard-response","5","61664","0.0-1.0-0.2","+","null","","","","","",""
"","6628","html-keyboard-response","6","68294","0.0-1.0-1.2","daja","n","null","noncog","pseudo","N","prac","null"
"","null","html-keyboard-response","7","68797","0.0-1.0-0.3","+","null","","","","","",""
"","1588","html-keyboard-response","8","70387","0.0-1.0-1.3","crante","s","null","noncog","pseudo","N","prac","null"
"","null","html-keyboard-response","9","70888","0.0-1.0-0.4","+","null","","","","","",""
"","3951","html-keyboard-response","10","74840","0.0-1.0-1.4","órgão","s","null","noncog","word","S","prac","null"
"","null","html-keyboard-response","11","75343","0.0-1.0-0.5","+","null","","","","","",""
"","4651","html-keyboard-response","12","79994","0.0-1.0-1.5","plibar","n","null","noncog","pseudo","N","prac","null"
"","null","html-keyboard-response","13","80496","0.0-1.0-0.6","+","null","","","","","",""
"","3399","html-keyboard-response","14","83896","0.0-1.0-1.6","oliva","s","null","cog","word","S","prac","null"
"[{""page_index"":0,""viewing_time"":12116}]","12116","instructions","15","96013","0.0-2.0","","","","","","","",""
"","null","html-keyboard-response","16","96615","0.0-3.0-0.0","+","null","","","","","",""
"","13591","html-keyboard-response","17","110206","0.0-3.0-1.0","ocinto","n","null","noncog","pseudo","N","exp","null"
"","null","html-keyboard-response","18","110709","0.0-3.0-0.1","+","null","","","","","",""
"","6382","html-keyboard-response","19","117092","0.0-3.0-1.1","planalto","n","n","cog","word","S","exp","8"
"","null","html-keyboard-response","20","117593","0.0-3.0-0.2","+","null","","","","","",""
"","2534","html-keyboard-response","21","120129","0.0-3.0-1.2","açúcar","s","n","noncog","word","S","exp","6"
"","null","html-keyboard-response","22","120630","0.0-3.0-0.3","+","null","","","","","",""
"","9777","html-keyboard-response","23","130408","0.0-3.0-1.3","senareta","s","null","noncog","pseudo","N","exp","null"
"","null","html-keyboard-response","24","130909","0.0-3.0-0.4","+","null","","","","","",""
"","6513","html-keyboard-response","25","137424","0.0-3.0-1.4","undivídio","s","null","noncog","pseudo","N","exp","null"
"","null","html-keyboard-response","26","137937","0.0-3.0-0.5","+","null","","","","","",""
"","1909","html-keyboard-response","27","139846","0.0-3.0-1.5","uçar","s","null","noncog","pseudo","N","exp","null"
"","null","html-keyboard-response","28","140349","0.0-3.0-0.6","+","null","","","","","",""
"","8275","html-keyboard-response","29","148624","0.0-3.0-1.6","garastia","n","null","noncog","pseudo","N","exp","null"
"","null","html-keyboard-response","30","149141","0.0-3.0-0.7","+","null","","","","","",""
"","15304","html-keyboard-response","31","164446","0.0-3.0-1.7","cascata","n","n","noncog","word","S","exp","7"
"","null","html-keyboard-response","32","164948","0.0-3.0-0.8","+","null","","","","","",""
"","6554","html-keyboard-response","33","171503","0.0-3.0-1.8","fino","n","a","cog","word","S","exp","4"
"","null","html-keyboard-response","34","172004","0.0-3.0-0.9","+","null","","","","","",""
"","4268","html-keyboard-response","35","176273","0.0-3.0-1.9","cirado","s","null","noncog","pseudo","N","exp","null"
"","null","html-keyboard-response","36","176774","0.0-3.0-0.10","+","null","","","","","",""
"","4458","html-keyboard-response","37","181233","0.0-3.0-1.10","tatear","n","v","cog","word","S","exp","6"
"","null","html-keyboard-response","38","181735","0.0-3.0-0.11","+","null","","","","","",""
"","4636","html-keyboard-response","39","186372","0.0-3.0-1.11","espinho","s","n","noncog","word","S","exp","7"
"","null","html-keyboard-response","40","186874","0.0-3.0-0.12","+","null","","","","","",""
"","3255","html-keyboard-response","41","190130","0.0-3.0-1.12","delomir","n","null","noncog","pseudo","N","exp","null"
"","null","html-keyboard-response","42","190632","0.0-3.0-0.13","+","null","","","","","",""
"","4758","html-keyboard-response","43","195391","0.0-3.0-1.13","mal","n","a","cog","word","S","exp","3"
"","null","html-keyboard-response","44","195894","0.0-3.0-0.14","+","null","","","","","",""
"","1603","html-keyboard-response","45","197497","0.0-3.0-1.14","oecano","n","null","noncog","pseudo","N","exp","null"
"","null","html-keyboard-response","46","197999","0.0-3.0-0.15","+","null","","","","","",""
"","3287","html-keyboard-response","47","201288","0.0-3.0-1.15","multiplicar","s","v","cog","word","S","exp","11"
"","null","html-keyboard-response","48","201790","0.0-3.0-0.16","+","null","","","","","",""
"","19849","html-keyboard-response","49","221641","0.0-3.0-1.16","disbrituir","n","null","noncog","pseudo","N","exp","null"
"","null","html-keyboard-response","50","222142","0.0-3.0-0.17","+","null","","","","","",""
"","7130","html-keyboard-response","51","229273","0.0-3.0-1.17","perdão","s","n","noncog","word","S","exp","6"
"","null","html-keyboard-response","52","229775","0.0-3.0-0.18","+","null","","","","","",""
"","4676","html-keyboard-response","53","234451","0.0-3.0-1.18","barco","s","n","cog","word","S","exp","5"
"","null","html-keyboard-response","54","234952","0.0-3.0-0.19","+","null","","","","","",""
"","3156","html-keyboard-response","55","238109","0.0-3.0-1.19","bandido","s","n","cog","word","S","exp","7"
"","null","html-keyboard-response","56","238610","0.0-3.0-0.20","+","null","","","","","",""
"","3910","html-keyboard-response","57","242521","0.0-3.0-1.20","ilhure","n","null","noncog","pseudo","N","exp","null"
"","null","html-keyboard-response","58","243031","0.0-3.0-0.21","+","null","","","","","",""
"","1392","html-keyboard-response","59","244424","0.0-3.0-1.21","tartos","s","null","noncog","pseudo","N","exp","null"
"","null","html-keyboard-response","60","244926","0.0-3.0-0.22","+","null","","","","","",""
"","15931","html-keyboard-response","61","260858","0.0-3.0-1.22","tronca","n","null","noncog","pseudo","N","exp","null"
"","null","html-keyboard-response","62","261359","0.0-3.0-0.23","+","null","","","","","",""
"","8015","html-keyboard-response","63","269375","0.0-3.0-1.23","orupas","s","null","noncog","pseudo","N","exp","null"
"","null","html-keyboard-response","64","269877","0.0-3.0-0.24","+","null","","","","","",""
"","4373","html-keyboard-response","65","274251","0.0-3.0-1.24","independente","s","a","noncog","word","S","exp","12"
"","null","html-keyboard-response","66","274753","0.0-3.0-0.25","+","null","","","","","",""
"","2098","html-keyboard-response","67","276851","0.0-3.0-1.25","adoçar","s","v","noncog","word","S","exp","6"
"","null","html-keyboard-response","68","277352","0.0-3.0-0.26","+","null","","","","","",""
"","10155","html-keyboard-response","69","287508","0.0-3.0-1.26","beima","n","null","noncog","pseudo","N","exp","null"
"","null","html-keyboard-response","70","288009","0.0-3.0-0.27","+","null","","","","","",""
"","3943","html-keyboard-response","71","291953","0.0-3.0-1.27","delirar","n","v","noncog","word","S","exp","7"
"","null","html-keyboard-response","72","292455","0.0-3.0-0.28","+","null","","","","","",""
"","5696","html-keyboard-response","73","298151","0.0-3.0-1.28","espionar","s","v","cog","word","S","exp","8"
"","null","html-keyboard-response","74","298652","0.0-3.0-0.29","+","null","","","","","",""
"","7300","html-keyboard-response","75","305953","0.0-3.0-1.29","reduzir","n","v","cog","word","S","exp","7"
"","null","html-keyboard-response","76","306454","0.0-3.0-0.30","+","null","","","","","",""
"","3342","html-keyboard-response","77","309797","0.0-3.0-1.30","revear","n","null","noncog","pseudo","N","exp","null"
"","null","html-keyboard-response","78","310299","0.0-3.0-0.31","+","null","","","","","",""
"","1656","html-keyboard-response","79","311956","0.0-3.0-1.31","hébies","n","null","noncog","pseudo","N","exp","null"
"","null","html-keyboard-response","80","312457","0.0-3.0-0.32","+","null","","","","","",""
"","10485","html-keyboard-response","81","322943","0.0-3.0-1.32","traduzir","s","v","cog","word","S","exp","8"
"","null","html-keyboard-response","82","323445","0.0-3.0-0.33","+","null","","","","","",""
"","2949","html-keyboard-response","83","326395","0.0-3.0-1.33","grave","s","a","cog","word","S","exp","5"
"","null","html-keyboard-response","84","326897","0.0-3.0-0.34","+","null","","","","","",""
"","2205","html-keyboard-response","85","329105","0.0-3.0-1.34","dencosto","s","null","noncog","pseudo","N","exp","null"
"","null","html-keyboard-response","86","329606","0.0-3.0-0.35","+","null","","","","","",""
"","3576","html-keyboard-response","87","333182","0.0-3.0-1.35","carregar","s","v","noncog","word","S","exp","8"
"","null","html-keyboard-response","88","333684","0.0-3.0-0.36","+","null","","","","","",""
"","10023","html-keyboard-response","89","343708","0.0-3.0-1.36","avenas","s","null","noncog","pseudo","N","exp","null"
"","null","html-keyboard-response","90","344209","0.0-3.0-0.37","+","null","","","","","",""
"","5197","html-keyboard-response","91","349407","0.0-3.0-1.37","filme","s","n","cog","word","S","exp","5"
"","null","html-keyboard-response","92","349910","0.0-3.0-0.38","+","null","","","","","",""
"","2041","html-keyboard-response","93","351952","0.0-3.0-1.38","jantar","s","v","noncog","word","S","exp","6"
"","null","html-keyboard-response","94","352455","0.0-3.0-0.39","+","null","","","","","",""
"","1901","html-keyboard-response","95","354356","0.0-3.0-1.39","quenzina","s","null","noncog","pseudo","N","exp","null"
"","null","html-keyboard-response","96","354857","0.0-3.0-0.40","+","null","","","","","",""
"","6270","html-keyboard-response","97","361128","0.0-3.0-1.40","sintonizar","s","v","noncog","word","S","exp","10"
"","null","html-keyboard-response","98","361629","0.0-3.0-0.41","+","null","","","","","",""
"","5407","html-keyboard-response","99","367039","0.0-3.0-1.41","apontar","s","v","noncog","word","S","exp","7"
"","null","html-keyboard-response","100","367541","0.0-3.0-0.42","+","null","","","","","",""
"","2853","html-keyboard-response","101","370394","0.0-3.0-1.42","imitar","s","v","cog","word","S","exp","6"
"","null","html-keyboard-response","102","370896","0.0-3.0-0.43","+","null","","","","","",""
"","5936","html-keyboard-response","103","376832","0.0-3.0-1.43","dilheira","n","null","noncog","pseudo","N","exp","null"
"","null","html-keyboard-response","104","377334","0.0-3.0-0.44","+","null","","","","","",""
"","4813","html-keyboard-response","105","382148","0.0-3.0-1.44","verde","n","a","noncog","word","S","exp","5"
"","null","html-keyboard-response","106","382650","0.0-3.0-0.45","+","null","","","","","",""
"","3203","html-keyboard-response","107","385855","0.0-3.0-1.45","sábio","s","n","noncog","word","S","exp","5"
"","null","html-keyboard-response","108","386358","0.0-3.0-0.46","+","null","","","","","",""
"","7512","html-keyboard-response","109","393872","0.0-3.0-1.46","medalha","n","n","cog","word","S","exp","7"
"","null","html-keyboard-response","110","394373","0.0-3.0-0.47","+","null","","","","","",""
"","2399","html-keyboard-response","111","396773","0.0-3.0-1.47","ejerro","s","null","noncog","pseudo","N","exp","null"
"","null","html-keyboard-response","112","397275","0.0-3.0-0.48","+","null","","","","","",""
"","2391","html-keyboard-response","113","399667","0.0-3.0-1.48","esfoce","n","null","noncog","pseudo","N","exp","null"
"","null","html-keyboard-response","114","400169","0.0-3.0-0.49","+","null","","","","","",""
"","2083","html-keyboard-response","115","402252","0.0-3.0-1.49","burtos","n","null","noncog","pseudo","N","exp","null"
"","null","html-keyboard-response","116","402753","0.0-3.0-0.50","+","null","","","","","",""
"","3381","html-keyboard-response","117","406136","0.0-3.0-1.50","âgnulo","s","null","noncog","pseudo","N","exp","null"
"","null","html-keyboard-response","118","406649","0.0-3.0-0.51","+","null","","","","","",""
"","5070","html-keyboard-response","119","411719","0.0-3.0-1.51","drama","s","n","cog","word","S","exp","5"
"","null","html-keyboard-response","120","412220","0.0-3.0-0.52","+","null","","","","","",""
"","10665","html-keyboard-response","121","422886","0.0-3.0-1.52","incomodar","s","v","noncog","word","S","exp","9"
"","null","html-keyboard-response","122","423394","0.0-3.0-0.53","+","null","","","","","",""
"","3308","html-keyboard-response","123","426704","0.0-3.0-1.53","bagunceira","s","a","noncog","word","S","exp","10"
"","null","html-keyboard-response","124","427206","0.0-3.0-0.54","+","null","","","","","",""
"","10745","html-keyboard-response","125","437953","0.0-3.0-1.54","enxerido","s","a","noncog","word","S","exp","8"
"","null","html-keyboard-response","126","438454","0.0-3.0-0.55","+","null","","","","","",""
"","9197","html-keyboard-response","127","447652","0.0-3.0-1.55","lagras","s","null","noncog","pseudo","N","exp","null"
"","null","html-keyboard-response","128","448153","0.0-3.0-0.56","+","null","","","","","",""
"","5881","html-keyboard-response","129","454035","0.0-3.0-1.56","perbas","n","null","noncog","pseudo","N","exp","null"
"","null","html-keyboard-response","130","454546","0.0-3.0-0.57","+","null","","","","","",""
"","3560","html-keyboard-response","131","458107","0.0-3.0-1.57","franda","s","null","noncog","pseudo","N","exp","null"
"","null","html-keyboard-response","132","458608","0.0-3.0-0.58","+","null","","","","","",""
"","3785","html-keyboard-response","133","462395","0.0-3.0-1.58","pantufa","n","n","cog","word","S","exp","7"
"","null","html-keyboard-response","134","462900","0.0-3.0-0.59","+","null","","","","","",""
"","7023","html-keyboard-response","135","469925","0.0-3.0-1.59","atapdar","n","null","noncog","pseudo","N","exp","null"
"","null","html-keyboard-response","136","470427","0.0-3.0-0.60","+","null","","","","","",""
"","2423","html-keyboard-response","137","472850","0.0-3.0-1.60","grótis","s","null","noncog","pseudo","N","exp","null"
"","null","html-keyboard-response","138","473351","0.0-3.0-0.61","+","null","","","","","",""
"","9256","html-keyboard-response","139","482608","0.0-3.0-1.61","especial","n","a","cog","word","S","exp","8"
"","null","html-keyboard-response","140","483110","0.0-3.0-0.62","+","null","","","","","",""
"","1966","html-keyboard-response","141","485078","0.0-3.0-1.62","salpicado","n","a","noncog","word","S","exp","9"
"","null","html-keyboard-response","142","485579","0.0-3.0-0.63","+","null","","","","","",""
"","3289","html-keyboard-response","143","488868","0.0-3.0-1.63","aivões","n","null","noncog","pseudo","N","exp","null"
"","null","html-keyboard-response","144","489371","0.0-3.0-0.64","+","null","","","","","",""
"","40641","html-keyboard-response","145","530013","0.0-3.0-1.64","pega-pega","s","n","noncog","word","S","exp","8"
"","null","html-keyboard-response","146","530513","0.0-3.0-0.65","+","null","","","","","",""
"","2911","html-keyboard-response","147","533426","0.0-3.0-1.65","comércio","s","n","noncog","word","S","exp","8"
"","null","html-keyboard-response","148","533928","0.0-3.0-0.66","+","null","","","","","",""
"","4510","html-keyboard-response","149","538439","0.0-3.0-1.66","cenada","n","null","noncog","pseudo","N","exp","null"
"","null","html-keyboard-response","150","538941","0.0-3.0-0.67","+","null","","","","","",""
"","3991","html-keyboard-response","151","542932","0.0-3.0-1.67","fratos","n","null","noncog","pseudo","N","exp","null"
"","null","html-keyboard-response","152","543434","0.0-3.0-0.68","+","null","","","","","",""
"","6808","html-keyboard-response","153","550243","0.0-3.0-1.68","esprotiar","s","null","noncog","pseudo","N","exp","null"
"","null","html-keyboard-response","154","550744","0.0-3.0-0.69","+","null","","","","","",""
"","4730","html-keyboard-response","155","555476","0.0-3.0-1.69","bracos","s","null","noncog","pseudo","N","exp","null"
"","null","html-keyboard-response","156","555977","0.0-3.0-0.70","+","null","","","","","",""
"","2504","html-keyboard-response","157","558482","0.0-3.0-1.70","fofo","n","a","noncog","word","S","exp","4"
"","null","html-keyboard-response","158","558984","0.0-3.0-0.71","+","null","","","","","",""
"","3105","html-keyboard-response","159","562090","0.0-3.0-1.71","oper","s","null","noncog","pseudo","N","exp","null"
"","null","html-keyboard-response","160","562592","0.0-3.0-0.72","+","null","","","","","",""
"","2308","html-keyboard-response","161","564902","0.0-3.0-1.72","rédesa","n","null","noncog","pseudo","N","exp","null"
"","null","html-keyboard-response","162","565403","0.0-3.0-0.73","+","null","","","","","",""
"","2011","html-keyboard-response","163","567415","0.0-3.0-1.73","escumo","s","null","noncog","pseudo","N","exp","null"
"","null","html-keyboard-response","164","567932","0.0-3.0-0.74","+","null","","","","","",""
"","2247","html-keyboard-response","165","570180","0.0-3.0-1.74","tímido","s","a","cog","word","S","exp","6"
"","null","html-keyboard-response","166","570681","0.0-3.0-0.75","+","null","","","","","",""
"","2491","html-keyboard-response","167","573173","0.0-3.0-1.75","braras","n","null","noncog","pseudo","N","exp","null"
"","null","html-keyboard-response","168","573674","0.0-3.0-0.76","+","null","","","","","",""
"","3740","html-keyboard-response","169","577416","0.0-3.0-1.76","verceja","s","null","noncog","pseudo","N","exp","null"
"","null","html-keyboard-response","170","577919","0.0-3.0-0.77","+","null","","","","","",""
"","3877","html-keyboard-response","171","581797","0.0-3.0-1.77","dipata","n","null","noncog","pseudo","N","exp","null"
"","null","html-keyboard-response","172","582298","0.0-3.0-0.78","+","null","","","","","",""
"","1120","html-keyboard-response","173","583419","0.0-3.0-1.78","loaco","n","null","noncog","pseudo","N","exp","null"
"","null","html-keyboard-response","174","583920","0.0-3.0-0.79","+","null","","","","","",""
"","1758","html-keyboard-response","175","585679","0.0-3.0-1.79","tênis","s","n","cog","word","S","exp","5"
"","null","html-keyboard-response","176","586182","0.0-3.0-0.80","+","null","","","","","",""
"","3771","html-keyboard-response","177","589954","0.0-3.0-1.80","hipócrita","s","a","noncog","word","S","exp","9"
"","null","html-keyboard-response","178","590456","0.0-3.0-0.81","+","null","","","","","",""
"","3180","html-keyboard-response","179","593637","0.0-3.0-1.81","liberal","n","a","cog","word","S","exp","7"
"","null","html-keyboard-response","180","594140","0.0-3.0-0.82","+","null","","","","","",""
"","6058","html-keyboard-response","181","600198","0.0-3.0-1.82","prantal","s","null","noncog","pseudo","N","exp","null"
"","null","html-keyboard-response","182","600701","0.0-3.0-0.83","+","null","","","","","",""
"","10344","html-keyboard-response","183","611045","0.0-3.0-1.83","filosofia","n","n","cog","word","S","exp","9"
"","null","html-keyboard-response","184","611548","0.0-3.0-0.84","+","null","","","","","",""
"","6825","html-keyboard-response","185","618374","0.0-3.0-1.84","protas","n","null","noncog","pseudo","N","exp","null"
"","null","html-keyboard-response","186","618875","0.0-3.0-0.85","+","null","","","","","",""
"","10208","html-keyboard-response","187","629084","0.0-3.0-1.85","gilha","s","null","noncog","pseudo","N","exp","null"
"","null","html-keyboard-response","188","629585","0.0-3.0-0.86","+","null","","","","","",""
"","1907","html-keyboard-response","189","631493","0.0-3.0-1.86","glória","s","n","cog","word","S","exp","6"
"","null","html-keyboard-response","190","631996","0.0-3.0-0.87","+","null","","","","","",""
"","10348","html-keyboard-response","191","642344","0.0-3.0-1.87","atrasar","s","v","noncog","word","S","exp","7"
"","null","html-keyboard-response","192","642846","0.0-3.0-0.88","+","null","","","","","",""
"","5346","html-keyboard-response","193","648192","0.0-3.0-1.88","dobradiça","s","n","noncog","word","S","exp","9"
"","null","html-keyboard-response","194","648694","0.0-3.0-0.89","+","null","","","","","",""
"","3753","html-keyboard-response","195","652448","0.0-3.0-1.89","pitada","s","n","noncog","word","S","exp","6"
"","null","html-keyboard-response","196","652951","0.0-3.0-0.90","+","null","","","","","",""
"","3175","html-keyboard-response","197","656127","0.0-3.0-1.90","lagoa","s","n","cog","word","S","exp","5"
"","null","html-keyboard-response","198","656630","0.0-3.0-0.91","+","null","","","","","",""
"","1893","html-keyboard-response","199","658523","0.0-3.0-1.91","aemaça","n","null","noncog","pseudo","N","exp","null"
"","null","html-keyboard-response","200","659024","0.0-3.0-0.92","+","null","","","","","",""
"","5205","html-keyboard-response","201","664230","0.0-3.0-1.92","telafonir","n","null","noncog","pseudo","N","exp","null"
"","null","html-keyboard-response","202","664730","0.0-3.0-0.93","+","null","","","","","",""
"","5039","html-keyboard-response","203","669770","0.0-3.0-1.93","carona","s","n","noncog","word","S","exp","6"
"","null","html-keyboard-response","204","670272","0.0-3.0-0.94","+","null","","","","","",""
"","2239","html-keyboard-response","205","672512","0.0-3.0-1.94","trabalhar","s","v","noncog","word","S","exp","9"
"","null","html-keyboard-response","206","673013","0.0-3.0-0.95","+","null","","","","","",""
"","4225","html-keyboard-response","207","677239","0.0-3.0-1.95","socorro","s","n","noncog","word","S","exp","7"
"","null","html-keyboard-response","208","677741","0.0-3.0-0.96","+","null","","","","","",""
"","9892","html-keyboard-response","209","687634","0.0-3.0-1.96","pedaço","n","n","noncog","word","S","exp","6"
"","null","html-keyboard-response","210","688137","0.0-3.0-0.97","+","null","","","","","",""
"","17012","html-keyboard-response","211","705149","0.0-3.0-1.97","distraído","n","a","cog","word","S","exp","9"
"","null","html-keyboard-response","212","705651","0.0-3.0-0.98","+","null","","","","","",""
"","5624","html-keyboard-response","213","711275","0.0-3.0-1.98","instruído","s","a","noncog","word","S","exp","9"
"","null","html-keyboard-response","214","711778","0.0-3.0-0.99","+","null","","","","","",""
"","8538","html-keyboard-response","215","720317","0.0-3.0-1.99","macras","n","null","noncog","pseudo","N","exp","null"
"","null","html-keyboard-response","216","720818","0.0-3.0-0.100","+","null","","","","","",""
"","1069","html-keyboard-response","217","721888","0.0-3.0-1.100","costra","s","null","noncog","pseudo","N","exp","null"
"","null","html-keyboard-response","218","722389","0.0-3.0-0.101","+","null","","","","","",""
"","1627","html-keyboard-response","219","724017","0.0-3.0-1.101","parceter","s","null","noncog","pseudo","N","exp","null"
"","null","html-keyboard-response","220","724518","0.0-3.0-0.102","+","null","","","","","",""
"","1204","html-keyboard-response","221","725723","0.0-3.0-1.102","cravo","s","n","noncog","word","S","exp","5"
"","null","html-keyboard-response","222","726225","0.0-3.0-0.103","+","null","","","","","",""
"","2993","html-keyboard-response","223","729219","0.0-3.0-1.103","aitrou","n","null","noncog","pseudo","N","exp","null"
"","null","html-keyboard-response","224","729720","0.0-3.0-0.104","+","null","","","","","",""
"","2957","html-keyboard-response","225","732677","0.0-3.0-1.104","preferir","s","v","cog","word","S","exp","8"
"","null","html-keyboard-response","226","733179","0.0-3.0-0.105","+","null","","","","","",""
"","2797","html-keyboard-response","227","735976","0.0-3.0-1.105","manais","n","null","noncog","pseudo","N","exp","null"
"","null","html-keyboard-response","228","736478","0.0-3.0-0.106","+","null","","","","","",""
"","1336","html-keyboard-response","229","737815","0.0-3.0-1.106","enedro","s","null","noncog","pseudo","N","exp","null"
"","null","html-keyboard-response","230","738321","0.0-3.0-0.107","+","null","","","","","",""
"","2227","html-keyboard-response","231","740549","0.0-3.0-1.107","ronronar","n","v","cog","word","S","exp","8"
"","null","html-keyboard-response","232","741050","0.0-3.0-0.108","+","null","","","","","",""
"","869","html-keyboard-response","233","741920","0.0-3.0-1.108","dia","s","n","noncog","word","S","exp","3"
"","null","html-keyboard-response","234","742421","0.0-3.0-0.109","+","null","","","","","",""
"","6217","html-keyboard-response","235","748639","0.0-3.0-1.109","podilo","n","null","noncog","pseudo","N","exp","null"
"","null","html-keyboard-response","236","749140","0.0-3.0-0.110","+","null","","","","","",""
"","1370","html-keyboard-response","237","750510","0.0-3.0-1.110","azul","s","n","noncog","word","S","exp","4"
"","null","html-keyboard-response","238","751012","0.0-3.0-0.111","+","null","","","","","",""
"","2806","html-keyboard-response","239","753819","0.0-3.0-1.111","prenas","s","null","noncog","pseudo","N","exp","null"
"","null","html-keyboard-response","240","754332","0.0-3.0-0.112","+","null","","","","","",""
"","3582","html-keyboard-response","241","757915","0.0-3.0-1.112","nevela","s","null","noncog","pseudo","N","exp","null"
"","null","html-keyboard-response","242","758417","0.0-3.0-0.113","+","null","","","","","",""
"","2517","html-keyboard-response","243","760935","0.0-3.0-1.113","lorfaz","n","null","noncog","pseudo","N","exp","null"
"","null","html-keyboard-response","244","761438","0.0-3.0-0.114","+","null","","","","","",""
"","6132","html-keyboard-response","245","767570","0.0-3.0-1.114","mania","s","n","cog","word","S","exp","5"
"","null","html-keyboard-response","246","768077","0.0-3.0-0.115","+","null","","","","","",""
"","3269","html-keyboard-response","247","771347","0.0-3.0-1.115","mabras","n","null","noncog","pseudo","N","exp","null"
"","null","html-keyboard-response","248","771849","0.0-3.0-0.116","+","null","","","","","",""
"","1167","html-keyboard-response","249","773017","0.0-3.0-1.116","terdia","s","null","noncog","pseudo","N","exp","null"
"","null","html-keyboard-response","250","773519","0.0-3.0-0.117","+","null","","","","","",""
"","2575","html-keyboard-response","251","776094","0.0-3.0-1.117","revista","s","n","cog","word","S","exp","7"
"","null","html-keyboard-response","252","776600","0.0-3.0-0.118","+","null","","","","","",""
"","2024","html-keyboard-response","253","778625","0.0-3.0-1.118","pangos","s","null","noncog","pseudo","N","exp","null"
"","null","html-keyboard-response","254","779126","0.0-3.0-0.119","+","null","","","","","",""
"","1986","html-keyboard-response","255","781113","0.0-3.0-1.119","raspar","s","v","noncog","word","S","exp","6"
"","null","html-keyboard-response","256","781614","0.0-3.0-0.120","+","null","","","","","",""
"","2037","html-keyboard-response","257","783652","0.0-3.0-1.120","ótimo","s","a","noncog","word","S","exp","5"
"","null","html-keyboard-response","258","784154","0.0-3.0-0.121","+","null","","","","","",""
"","1544","html-keyboard-response","259","785699","0.0-3.0-1.121","sanque","s","null","noncog","pseudo","N","exp","null"
"","null","html-keyboard-response","260","786200","0.0-3.0-0.122","+","null","","","","","",""
"","2463","html-keyboard-response","261","788664","0.0-3.0-1.122","crolatário","s","null","noncog","pseudo","N","exp","null"
"","null","html-keyboard-response","262","789165","0.0-3.0-0.123","+","null","","","","","",""
"","3440","html-keyboard-response","263","792607","0.0-3.0-1.123","taberia","s","null","noncog","pseudo","N","exp","null"
"","null","html-keyboard-response","264","793117","0.0-3.0-0.124","+","null","","","","","",""
"","1847","html-keyboard-response","265","794965","0.0-3.0-1.124","liso","n","n","noncog","word","S","exp","4"
"","null","html-keyboard-response","266","795469","0.0-3.0-0.125","+","null","","","","","",""
"","7238","html-keyboard-response","267","802708","0.0-3.0-1.125","frotes","n","null","noncog","pseudo","N","exp","null"
"","null","html-keyboard-response","268","803210","0.0-3.0-0.126","+","null","","","","","",""
"","1606","html-keyboard-response","269","804817","0.0-3.0-1.126","mudança","s","n","noncog","word","S","exp","7"
"","null","html-keyboard-response","270","805320","0.0-3.0-0.127","+","null","","","","","",""
"","3387","html-keyboard-response","271","808708","0.0-3.0-1.127","sustentar","n","v","noncog","word","S","exp","9"
"","null","html-keyboard-response","272","809209","0.0-3.0-0.128","+","null","","","","","",""
"","1303","html-keyboard-response","273","810513","0.0-3.0-1.128","aletiê","s","null","noncog","pseudo","N","exp","null"
"","null","html-keyboard-response","274","811014","0.0-3.0-0.129","+","null","","","","","",""
"","1801","html-keyboard-response","275","812817","0.0-3.0-1.129","agravar","s","v","cog","word","S","exp","7"
"","null","html-keyboard-response","276","813320","0.0-3.0-0.130","+","null","","","","","",""
"","1135","html-keyboard-response","277","814456","0.0-3.0-1.130","morno","s","a","noncog","word","S","exp","5"
"","null","html-keyboard-response","278","814957","0.0-3.0-0.131","+","null","","","","","",""
"","2750","html-keyboard-response","279","817708","0.0-3.0-1.131","tinta","n","n","cog","word","S","exp","5"
"","null","html-keyboard-response","280","818224","0.0-3.0-0.132","+","null","","","","","",""
"","4714","html-keyboard-response","281","822940","0.0-3.0-1.132","trenos","n","null","noncog","pseudo","N","exp","null"
"","null","html-keyboard-response","282","823441","0.0-3.0-0.133","+","null","","","","","",""
"","2206","html-keyboard-response","283","825647","0.0-3.0-1.133","gruja","s","null","noncog","pseudo","N","exp","null"
"","null","html-keyboard-response","284","826148","0.0-3.0-0.134","+","null","","","","","",""
"","1994","html-keyboard-response","285","828143","0.0-3.0-1.134","gertas","n","null","noncog","pseudo","N","exp","null"
"","null","html-keyboard-response","286","828644","0.0-3.0-0.135","+","null","","","","","",""
"","1631","html-keyboard-response","287","830275","0.0-3.0-1.135","fasdas","s","null","noncog","pseudo","N","exp","null"
"","null","html-keyboard-response","288","830777","0.0-3.0-0.136","+","null","","","","","",""
"","2721","html-keyboard-response","289","833499","0.0-3.0-1.136","gordo","n","a","noncog","word","S","exp","5"
"","null","html-keyboard-response","290","834002","0.0-3.0-0.137","+","null","","","","","",""
"","2165","html-keyboard-response","291","836168","0.0-3.0-1.137","rovaz","n","null","noncog","pseudo","N","exp","null"
"","null","html-keyboard-response","292","836669","0.0-3.0-0.138","+","null","","","","","",""
"","3069","html-keyboard-response","293","839738","0.0-3.0-1.138","promessa","n","n","noncog","word","S","exp","8"
"","null","html-keyboard-response","294","840239","0.0-3.0-0.139","+","null","","","","","",""
"","1955","html-keyboard-response","295","842194","0.0-3.0-1.139","farcas","s","null","noncog","pseudo","N","exp","null"
"","null","html-keyboard-response","296","842696","0.0-3.0-0.140","+","null","","","","","",""
"","944","html-keyboard-response","297","843640","0.0-3.0-1.140","tio","s","n","noncog","word","S","exp","3"
"","null","html-keyboard-response","298","844141","0.0-3.0-0.141","+","null","","","","","",""
"","6961","html-keyboard-response","299","851103","0.0-3.0-1.141","nervoso","n","a","noncog","word","S","exp","7"
"","null","html-keyboard-response","300","851605","0.0-3.0-0.142","+","null","","","","","",""
"","2382","html-keyboard-response","301","853989","0.0-3.0-1.142","motre","s","null","noncog","pseudo","N","exp","null"
"","null","html-keyboard-response","302","854491","0.0-3.0-0.143","+","null","","","","","",""
"","1887","html-keyboard-response","303","856379","0.0-3.0-1.143","tela","s","n","noncog","word","S","exp","4"
"","null","html-keyboard-response","304","856881","0.0-3.0-0.144","+","null","","","","","",""
"","15851","html-keyboard-response","305","872733","0.0-3.0-1.144","memória","s","n","cog","word","S","exp","7"
"","null","html-keyboard-response","306","873234","0.0-3.0-0.145","+","null","","","","","",""
"","1960","html-keyboard-response","307","875195","0.0-3.0-1.145","faínas","n","null","noncog","pseudo","N","exp","null"
"","null","html-keyboard-response","308","875696","0.0-3.0-0.146","+","null","","","","","",""
"","3440","html-keyboard-response","309","879137","0.0-3.0-1.146","nacional","s","a","cog","word","S","exp","8"
"","null","html-keyboard-response","310","879638","0.0-3.0-0.147","+","null","","","","","",""
"","1041","html-keyboard-response","311","880681","0.0-3.0-1.147","carro","s","n","noncog","word","S","exp","5"
"","null","html-keyboard-response","312","881182","0.0-3.0-0.148","+","null","","","","","",""
"","1669","html-keyboard-response","313","882852","0.0-3.0-1.148","casuas","s","null","noncog","pseudo","N","exp","null"
"","null","html-keyboard-response","314","883353","0.0-3.0-0.149","+","null","","","","","",""
"","1032","html-keyboard-response","315","884386","0.0-3.0-1.149","morar","s","v","noncog","word","S","exp","5"
"","null","html-keyboard-response","316","884888","0.0-3.0-0.150","+","null","","","","","",""
"","1650","html-keyboard-response","317","886538","0.0-3.0-1.150","risbos","n","null","noncog","pseudo","N","exp","null"
"","null","html-keyboard-response","318","887039","0.0-3.0-0.151","+","null","","","","","",""
"","1262","html-keyboard-response","319","888302","0.0-3.0-1.151","brincar","s","v","noncog","word","S","exp","7"
"","null","html-keyboard-response","320","888804","0.0-3.0-0.152","+","null","","","","","",""
"","2109","html-keyboard-response","321","890914","0.0-3.0-1.152","montanha","s","n","cog","word","S","exp","8"
"","null","html-keyboard-response","322","891415","0.0-3.0-0.153","+","null","","","","","",""
"","2032","html-keyboard-response","323","893448","0.0-3.0-1.153","resmungar","s","v","noncog","word","S","exp","9"
"","null","html-keyboard-response","324","893949","0.0-3.0-0.154","+","null","","","","","",""
"","7163","html-keyboard-response","325","901113","0.0-3.0-1.154","aparme","n","null","noncog","pseudo","N","exp","null"
"","null","html-keyboard-response","326","901615","0.0-3.0-0.155","+","null","","","","","",""
"","1039","html-keyboard-response","327","902655","0.0-3.0-1.155","cristal","s","n","cog","word","S","exp","7"
"","null","html-keyboard-response","328","903158","0.0-3.0-0.156","+","null","","","","","",""
"","3006","html-keyboard-response","329","906166","0.0-3.0-1.156","morija","s","null","noncog","pseudo","N","exp","null"
"","null","html-keyboard-response","330","906668","0.0-3.0-0.157","+","null","","","","","",""
"","6135","html-keyboard-response","331","912804","0.0-3.0-1.157","grátis","n","a","cog","word","S","exp","6"
"","null","html-keyboard-response","332","913305","0.0-3.0-0.158","+","null","","","","","",""
"","3868","html-keyboard-response","333","917174","0.0-3.0-1.158","usnado","s","null","noncog","pseudo","N","exp","null"
"","null","html-keyboard-response","334","917677","0.0-3.0-0.159","+","null","","","","","",""
"","4483","html-keyboard-response","335","922162","0.0-3.0-1.159","jastor","s","null","noncog","pseudo","N","exp","null"
"","null","html-keyboard-response","336","922663","0.0-3.0-0.160","+","null","","","","","",""
"","5075","html-keyboard-response","337","927739","0.0-3.0-1.160","oricia","n","null","noncog","pseudo","N","exp","null"
"","null","html-keyboard-response","338","928241","0.0-3.0-0.161","+","null","","","","","",""
"","5135","html-keyboard-response","339","933377","0.0-3.0-1.161","alpica","s","null","noncog","pseudo","N","exp","null"
"","null","html-keyboard-response","340","933878","0.0-3.0-0.162","+","null","","","","","",""
"","1112","html-keyboard-response","341","934992","0.0-3.0-1.162","melão","s","n","cog","word","S","exp","5"
"","null","html-keyboard-response","342","935493","0.0-3.0-0.163","+","null","","","","","",""
"","1539","html-keyboard-response","343","937033","0.0-3.0-1.163","livro","s","n","cog","word","S","exp","5"
"","null","html-keyboard-response","344","937535","0.0-3.0-0.164","+","null","","","","","",""
"","1828","html-keyboard-response","345","939364","0.0-3.0-1.164","berquesa","s","null","noncog","pseudo","N","exp","null"
"","null","html-keyboard-response","346","939866","0.0-3.0-0.165","+","null","","","","","",""
"","2821","html-keyboard-response","347","942687","0.0-3.0-1.165","conjerto","s","null","noncog","pseudo","N","exp","null"
"","null","html-keyboard-response","348","943188","0.0-3.0-0.166","+","null","","","","","",""
"","12658","html-keyboard-response","349","955847","0.0-3.0-1.166","trair","n","v","cog","word","S","exp","5"
"","null","html-keyboard-response","350","956350","0.0-3.0-0.167","+","null","","","","","",""
"","1110","html-keyboard-response","351","957460","0.0-3.0-1.167","chato","s","n","noncog","word","S","exp","5"
"","null","html-keyboard-response","352","957963","0.0-3.0-0.168","+","null","","","","","",""
"","2958","html-keyboard-response","353","960922","0.0-3.0-1.168","boreta","s","null","noncog","pseudo","N","exp","null"
"","null","html-keyboard-response","354","961423","0.0-3.0-0.169","+","null","","","","","",""
"","2106","html-keyboard-response","355","963530","0.0-3.0-1.169","pimada","s","null","noncog","pseudo","N","exp","null"
"","null","html-keyboard-response","356","964032","0.0-3.0-0.170","+","null","","","","","",""
"","3069","html-keyboard-response","357","967102","0.0-3.0-1.170","refletir","n","v","cog","word","S","exp","8"
"","null","html-keyboard-response","358","967604","0.0-3.0-0.171","+","null","","","","","",""
"","2417","html-keyboard-response","359","970021","0.0-3.0-1.171","lapestra","s","null","noncog","pseudo","N","exp","null"
"","null","html-keyboard-response","360","970523","0.0-3.0-0.172","+","null","","","","","",""
"","7425","html-keyboard-response","361","977950","0.0-3.0-1.172","atitro","n","null","noncog","pseudo","N","exp","null"
"","null","html-keyboard-response","362","978452","0.0-3.0-0.173","+","null","","","","","",""
"","1372","html-keyboard-response","363","979825","0.0-3.0-1.173","euorpa","n","null","noncog","pseudo","N","exp","null"
"","null","html-keyboard-response","364","980326","0.0-3.0-0.174","+","null","","","","","",""
"","2930","html-keyboard-response","365","983258","0.0-3.0-1.174","aperor","s","null","noncog","pseudo","N","exp","null"
"","null","html-keyboard-response","366","983759","0.0-3.0-0.175","+","null","","","","","",""
"","1291","html-keyboard-response","367","985051","0.0-3.0-1.175","motros","s","null","noncog","pseudo","N","exp","null"
"","null","html-keyboard-response","368","985553","0.0-3.0-0.176","+","null","","","","","",""
"","4117","html-keyboard-response","369","989671","0.0-3.0-1.176","cápsula","s","n","noncog","word","S","exp","7"
"","null","html-keyboard-response","370","990173","0.0-3.0-0.177","+","null","","","","","",""
"","1104","html-keyboard-response","371","991278","0.0-3.0-1.177","pritas","s","null","noncog","pseudo","N","exp","null"
"","null","html-keyboard-response","372","991780","0.0-3.0-0.178","+","null","","","","","",""
"","10062","html-keyboard-response","373","1001842","0.0-3.0-1.178","dacada","n","null","noncog","pseudo","N","exp","null"
"","null","html-keyboard-response","374","1002345","0.0-3.0-0.179","+","null","","","","","",""
"","2722","html-keyboard-response","375","1005068","0.0-3.0-1.179","agressivo","s","a","cog","word","S","exp","9"
"","null","html-keyboard-response","376","1005570","0.0-3.0-0.180","+","null","","","","","",""
"","3045","html-keyboard-response","377","1008616","0.0-3.0-1.180","temperar","s","v","noncog","word","S","exp","8"
"","null","html-keyboard-response","378","1009120","0.0-3.0-0.181","+","null","","","","","",""
"","2561","html-keyboard-response","379","1011682","0.0-3.0-1.181","bachir","s","null","noncog","pseudo","N","exp","null"
"","null","html-keyboard-response","380","1012185","0.0-3.0-0.182","+","null","","","","","",""
"","988","html-keyboard-response","381","1013174","0.0-3.0-1.182","mua","s","null","noncog","pseudo","N","exp","null"
"","null","html-keyboard-response","382","1013676","0.0-3.0-0.183","+","null","","","","","",""
"","732","html-keyboard-response","383","1014409","0.0-3.0-1.183","viver","s","v","cog","word","S","exp","5"
"","null","html-keyboard-response","384","1014911","0.0-3.0-0.184","+","null","","","","","",""
"","2307","html-keyboard-response","385","1017219","0.0-3.0-1.184","detative","s","null","noncog","pseudo","N","exp","null"
"","null","html-keyboard-response","386","1017721","0.0-3.0-0.185","+","null","","","","","",""
"","2788","html-keyboard-response","387","1020511","0.0-3.0-1.185","areia","s","n","noncog","word","S","exp","5"
"","null","html-keyboard-response","388","1021012","0.0-3.0-0.186","+","null","","","","","",""
"","2014","html-keyboard-response","389","1023027","0.0-3.0-1.186","hedoru","s","null","noncog","pseudo","N","exp","null"
"","null","html-keyboard-response","390","1023529","0.0-3.0-0.187","+","null","","","","","",""
"","988","html-keyboard-response","391","1024519","0.0-3.0-1.187","crutas","s","null","noncog","pseudo","N","exp","null"
"","null","html-keyboard-response","392","1025021","0.0-3.0-0.188","+","null","","","","","",""
"","1240","html-keyboard-response","393","1026262","0.0-3.0-1.188","ideisa","s","null","noncog","pseudo","N","exp","null"
"","null","html-keyboard-response","394","1026764","0.0-3.0-0.189","+","null","","","","","",""
"","1130","html-keyboard-response","395","1027895","0.0-3.0-1.189","ofreta","s","null","noncog","pseudo","N","exp","null"
"","null","html-keyboard-response","396","1028397","0.0-3.0-0.190","+","null","","","","","",""
"","1138","html-keyboard-response","397","1029536","0.0-3.0-1.190","abieso","s","null","noncog","pseudo","N","exp","null"
"","null","html-keyboard-response","398","1030038","0.0-3.0-0.191","+","null","","","","","",""
"","3838","html-keyboard-response","399","1033877","0.0-3.0-1.191","fogão","s","n","noncog","word","S","exp","5"
"","null","html-keyboard-response","400","1034377","0.0-3.0-0.192","+","null","","","","","",""
"","13177","html-keyboard-response","401","1047555","0.0-3.0-1.192","promeção","n","null","noncog","pseudo","N","exp","null"
"","null","html-keyboard-response","402","1048057","0.0-3.0-0.193","+","null","","","","","",""
"","2122","html-keyboard-response","403","1050179","0.0-3.0-1.193","alfabeto","s","n","cog","word","S","exp","8"
"","null","html-keyboard-response","404","1050686","0.0-3.0-0.194","+","null","","","","","",""
"","1480","html-keyboard-response","405","1052166","0.0-3.0-1.194","propaganda","s","n","cog","word","S","exp","10"
"","null","html-keyboard-response","406","1052667","0.0-3.0-0.195","+","null","","","","","",""
"","3330","html-keyboard-response","407","1055999","0.0-3.0-1.195","afual","s","null","noncog","pseudo","N","exp","null"
"","null","html-keyboard-response","408","1056500","0.0-3.0-0.196","+","null","","","","","",""
"","1691","html-keyboard-response","409","1058192","0.0-3.0-1.196","deselegante","s","a","noncog","word","S","exp","11"
"","null","html-keyboard-response","410","1058694","0.0-3.0-0.197","+","null","","","","","",""
"","907","html-keyboard-response","411","1059602","0.0-3.0-1.197","telefone","s","n","cog","word","S","exp","8"
"","null","html-keyboard-response","412","1060103","0.0-3.0-0.198","+","null","","","","","",""
"","1521","html-keyboard-response","413","1061625","0.0-3.0-1.198","ensuas","s","null","noncog","pseudo","N","exp","null"
"","null","html-keyboard-response","414","1062126","0.0-3.0-0.199","+","null","","","","","",""
"","5659","html-keyboard-response","415","1067786","0.0-3.0-1.199","esperar","n","v","cog","word","S","exp","7"
"","null","html-keyboard-response","416","1068289","0.0-3.0-0.200","+","null","","","","","",""
"","5481","html-keyboard-response","417","1073771","0.0-3.0-1.200","papai","n","n","cog","word","S","exp","5"
"","null","html-keyboard-response","418","1074273","0.0-3.0-0.201","+","null","","","","","",""
"","12926","html-keyboard-response","419","1087201","0.0-3.0-1.201","irratinte","s","null","noncog","pseudo","N","exp","null"
"","null","html-keyboard-response","420","1087703","0.0-3.0-0.202","+","null","","","","","",""
"","3636","html-keyboard-response","421","1091341","0.0-3.0-1.202","espaço","s","n","cog","word","S","exp","6"
"","null","html-keyboard-response","422","1091842","0.0-3.0-0.203","+","null","","","","","",""
"","4660","html-keyboard-response","423","1096502","0.0-3.0-1.203","extravagante","s","a","cog","word","S","exp","12"
"","null","html-keyboard-response","424","1097003","0.0-3.0-0.204","+","null","","","","","",""
"","4732","html-keyboard-response","425","1101737","0.0-3.0-1.204","prever","s","v","cog","word","S","exp","6"
"","null","html-keyboard-response","426","1102238","0.0-3.0-0.205","+","null","","","","","",""
"","4095","html-keyboard-response","427","1106333","0.0-3.0-1.205","usfiga","n","null","noncog","pseudo","N","exp","null"
"","null","html-keyboard-response","428","1106835","0.0-3.0-0.206","+","null","","","","","",""
"","1658","html-keyboard-response","429","1108493","0.0-3.0-1.206","país","s","n","noncog","word","S","exp","4"
"","null","html-keyboard-response","430","1108995","0.0-3.0-0.207","+","null","","","","","",""
"","6511","html-keyboard-response","431","1115507","0.0-3.0-1.207","encelhor","s","null","noncog","pseudo","N","exp","null"
"","null","html-keyboard-response","432","1116010","0.0-3.0-0.208","+","null","","","","","",""
"","3566","html-keyboard-response","433","1119577","0.0-3.0-1.208","vitrive","n","null","noncog","pseudo","N","exp","null"
"","null","html-keyboard-response","434","1120086","0.0-3.0-0.209","+","null","","","","","",""
"","8109","html-keyboard-response","435","1128195","0.0-3.0-1.209","plinta","n","null","noncog","pseudo","N","exp","null"
"","null","html-keyboard-response","436","1128696","0.0-3.0-0.210","+","null","","","","","",""
"","5476","html-keyboard-response","437","1134174","0.0-3.0-1.210","bibarconato","n","null","noncog","pseudo","N","exp","null"
"","null","html-keyboard-response","438","1134675","0.0-3.0-0.211","+","null","","","","","",""
"","1397","html-keyboard-response","439","1136073","0.0-3.0-1.211","bambu","n","n","cog","word","S","exp","5"
"","null","html-keyboard-response","440","1136574","0.0-3.0-0.212","+","null","","","","","",""
"","1456","html-keyboard-response","441","1138031","0.0-3.0-1.212","cerca","s","n","noncog","word","S","exp","5"
"","null","html-keyboard-response","442","1138533","0.0-3.0-0.213","+","null","","","","","",""
"","3064","html-keyboard-response","443","1141598","0.0-3.0-1.213","cinema","s","n","cog","word","S","exp","6"
"","null","html-keyboard-response","444","1142100","0.0-3.0-0.214","+","null","","","","","",""
"","1724","html-keyboard-response","445","1143825","0.0-3.0-1.214","uchães","s","null","noncog","pseudo","N","exp","null"
"","null","html-keyboard-response","446","1144326","0.0-3.0-0.215","+","null","","","","","",""
"","2313","html-keyboard-response","447","1146640","0.0-3.0-1.215","convidado","s","n","noncog","word","S","exp","9"
"","null","html-keyboard-response","448","1147142","0.0-3.0-0.216","+","null","","","","","",""
"","1114","html-keyboard-response","449","1148256","0.0-3.0-1.216","nome","s","n","cog","word","S","exp","4"
"","null","html-keyboard-response","450","1148757","0.0-3.0-0.217","+","null","","","","","",""
"","1333","html-keyboard-response","451","1150091","0.0-3.0-1.217","civil","s","a","cog","word","S","exp","5"
"","null","html-keyboard-response","452","1150593","0.0-3.0-0.218","+","null","","","","","",""
"","7888","html-keyboard-response","453","1158483","0.0-3.0-1.218","animado","n","a","noncog","word","S","exp","7"
"","null","html-keyboard-response","454","1158985","0.0-3.0-0.219","+","null","","","","","",""
"","7439","html-keyboard-response","455","1166425","0.0-3.0-1.219","verdade","s","n","cog","word","S","exp","7"
"","null","html-keyboard-response","456","1166934","0.0-3.0-0.220","+","null","","","","","",""
"","2183","html-keyboard-response","457","1169118","0.0-3.0-1.220","anjo","s","n","cog","word","S","exp","4"
"","null","html-keyboard-response","458","1169622","0.0-3.0-0.221","+","null","","","","","",""
"","9072","html-keyboard-response","459","1178695","0.0-3.0-1.221","chorão","s","a","noncog","word","S","exp","6"
"","null","html-keyboard-response","460","1179197","0.0-3.0-0.222","+","null","","","","","",""
"","1783","html-keyboard-response","461","1180981","0.0-3.0-1.222","árovre","s","null","noncog","pseudo","N","exp","null"
"","null","html-keyboard-response","462","1181482","0.0-3.0-0.223","+","null","","","","","",""
"","1880","html-keyboard-response","463","1183362","0.0-3.0-1.223","selir","s","null","noncog","pseudo","N","exp","null"
"","null","html-keyboard-response","464","1183865","0.0-3.0-0.224","+","null","","","","","",""
"","2809","html-keyboard-response","465","1186675","0.0-3.0-1.224","afonher","s","null","noncog","pseudo","N","exp","null"
"","null","html-keyboard-response","466","1187177","0.0-3.0-0.225","+","null","","","","","",""
"","839","html-keyboard-response","467","1188017","0.0-3.0-1.225","enxarto","s","null","noncog","pseudo","N","exp","null"
"","null","html-keyboard-response","468","1188519","0.0-3.0-0.226","+","null","","","","","",""
"","1153","html-keyboard-response","469","1189674","0.0-3.0-1.226","bancada","s","n","noncog","word","S","exp","7"
"","null","html-keyboard-response","470","1190176","0.0-3.0-0.227","+","null","","","","","",""
"","2539","html-keyboard-response","471","1192716","0.0-3.0-1.227","candifência","s","null","noncog","pseudo","N","exp","null"
"","null","html-keyboard-response","472","1193218","0.0-3.0-0.228","+","null","","","","","",""
"","71245","html-keyboard-response","473","1264463","0.0-3.0-1.228","pneucania","n","null","noncog","pseudo","N","exp","null"
"","null","html-keyboard-response","474","1264966","0.0-3.0-0.229","+","null","","","","","",""
"","9434","html-keyboard-response","475","1274401","0.0-3.0-1.229","matinal","s","a","cog","word","S","exp","7"
"","null","html-keyboard-response","476","1274903","0.0-3.0-0.230","+","null","","","","","",""
"","3388","html-keyboard-response","477","1278292","0.0-3.0-1.230","suipestar","n","null","noncog","pseudo","N","exp","null"
"","null","html-keyboard-response","478","1278794","0.0-3.0-0.231","+","null","","","","","",""
"","3048","html-keyboard-response","479","1281843","0.0-3.0-1.231","arranjar","s","v","cog","word","S","exp","8"
"","null","html-keyboard-response","480","1282344","0.0-3.0-0.232","+","null","","","","","",""
"","7748","html-keyboard-response","481","1290094","0.0-3.0-1.232","nivelado","s","a","cog","word","S","exp","8"
"","null","html-keyboard-response","482","1290595","0.0-3.0-0.233","+","null","","","","","",""
"","1689","html-keyboard-response","483","1292284","0.0-3.0-1.233","vervas","n","null","noncog","pseudo","N","exp","null"
"","null","html-keyboard-response","484","1292786","0.0-3.0-0.234","+","null","","","","","",""
"","1000","html-keyboard-response","485","1293788","0.0-3.0-1.234","pulmão","s","n","noncog","word","S","exp","6"
"","null","html-keyboard-response","486","1294289","0.0-3.0-0.235","+","null","","","","","",""
"","962","html-keyboard-response","487","1295252","0.0-3.0-1.235","fusbão","s","null","noncog","pseudo","N","exp","null"
"","null","html-keyboard-response","488","1295754","0.0-3.0-0.236","+","null","","","","","",""
"","986","html-keyboard-response","489","1296740","0.0-3.0-1.236","francês","s","a","cog","word","S","exp","7"
"","null","html-keyboard-response","490","1297241","0.0-3.0-0.237","+","null","","","","","",""
"","936","html-keyboard-response","491","1298178","0.0-3.0-1.237","destino","s","n","cog","word","S","exp","7"
"","null","html-keyboard-response","492","1298689","0.0-3.0-0.238","+","null","","","","","",""
"","1828","html-keyboard-response","493","1300518","0.0-3.0-1.238","ênclio","s","null","noncog","pseudo","N","exp","null"
"","null","html-keyboard-response","494","1301030","0.0-3.0-0.239","+","null","","","","","",""
"","3553","html-keyboard-response","495","1304584","0.0-3.0-1.239","manfa","s","null","noncog","pseudo","N","exp","null"
