[
	{
		"view_history": [
			{
				"page_index": 0,
				"viewing_time": 1808
			},
			{
				"page_index": 1,
				"viewing_time": 2315
			}
		],
		"rt": 4123,
		"trial_type": "instructions",
		"trial_index": 0,
		"time_elapsed": 4125,
		"internal_node_id": "0.0-0.0"
	},
	{
		"rt": null,
		"stimulus": "<span style= \"font-size:30px; font-family: monospace\">+</span>",
		"response": null,
		"trial_part": "fixation",
		"trial_type": "html-keyboard-response",
		"trial_index": 1,
		"time_elapsed": 5229,
		"internal_node_id": "0.0-1.0-0.0-0.0"
	},
	{
		"rt": 8579,
		"stimulus": "<span style=\"font-size:30px; font-family: monospace\">O</span>",
		"response": " ",
		"trial": "prac-sent",
		"word": "O",
		"trial_type": "html-keyboard-response",
		"trial_index": 2,
		"time_elapsed": 14059,
		"internal_node_id": "0.0-1.0-1.0"
	},
	{
		"rt": 797,
		"stimulus": "<span style=\"font-size:30px; font-family: monospace\">dia</span>",
		"response": " ",
		"trial": "prac-sent",
		"word": "dia",
		"trial_type": "html-keyboard-response",
		"trial_index": 3,
		"time_elapsed": 15118,
		"internal_node_id": "0.0-1.0-1.1"
	},
	{
		"rt": 752,
		"stimulus": "<span style=\"font-size:30px; font-family: monospace\">estará</span>",
		"response": " ",
		"trial": "prac-sent",
		"word": "estará",
		"trial_type": "html-keyboard-response",
		"trial_index": 4,
		"time_elapsed": 16126,
		"internal_node_id": "0.0-1.0-1.2"
	},
	{
		"rt": 688,
		"stimulus": "<span style=\"font-size:30px; font-family: monospace\">cheio</span>",
		"response": " ",
		"trial": "prac-sent",
		"word": "cheio",
		"trial_type": "html-keyboard-response",
		"trial_index": 5,
		"time_elapsed": 17073,
		"internal_node_id": "0.0-1.0-1.3"
	},
	{
		"rt": 623,
		"stimulus": "<span style=\"font-size:30px; font-family: monospace\">de</span>",
		"response": " ",
		"trial": "prac-sent",
		"word": "de",
		"trial_type": "html-keyboard-response",
		"trial_index": 6,
		"time_elapsed": 17957,
		"internal_node_id": "0.0-1.0-1.4"
	},
	{
		"rt": 3044,
		"stimulus": "<span style=\"font-size:30px; font-family: monospace\">nuvens</span>",
		"response": " ",
		"trial": "prac-sent",
		"word": "nuvens",
		"trial_type": "html-keyboard-response",
		"trial_index": 7,
		"time_elapsed": 21257,
		"internal_node_id": "0.0-1.0-1.5"
	},
	{
		"rt": 890,
		"stimulus": "<span style=\"font-size:30px; font-family: monospace\">hoje.</span>",
		"response": " ",
		"trial": "prac-sent",
		"word": "hoje.",
		"trial_type": "html-keyboard-response",
		"trial_index": 8,
		"time_elapsed": 22404,
		"internal_node_id": "0.0-1.0-1.6"
	},
	{
		"rt": null,
		"stimulus": "<span style= \"font-size:30px; font-family: monospace\">+</span>",
		"response": null,
		"trial_part": "fixation",
		"trial_type": "html-keyboard-response",
		"trial_index": 9,
		"time_elapsed": 23665,
		"internal_node_id": "0.0-1.0-0.7-0.7"
	},
	{
		"rt": 2738,
		"stimulus": "<span style=\"font-size:30px; font-family: monospace\">A</span>",
		"response": " ",
		"trial": "prac-sent",
		"word": "A",
		"trial_type": "html-keyboard-response",
		"trial_index": 10,
		"time_elapsed": 26668,
		"internal_node_id": "0.0-1.0-1.7"
	},
	{
		"rt": 621,
		"stimulus": "<span style=\"font-size:30px; font-family: monospace\">caneca</span>",
		"response": " ",
		"trial": "prac-sent",
		"word": "caneca",
		"trial_type": "html-keyboard-response",
		"trial_index": 11,
		"time_elapsed": 27553,
		"internal_node_id": "0.0-1.0-1.8"
	},
	{
		"rt": 566,
		"stimulus": "<span style=\"font-size:30px; font-family: monospace\">colorida</span>",
		"response": " ",
		"trial": "prac-sent",
		"word": "colorida",
		"trial_type": "html-keyboard-response",
		"trial_index": 12,
		"time_elapsed": 28376,
		"internal_node_id": "0.0-1.0-1.9"
	},
	{
		"rt": 658,
		"stimulus": "<span style=\"font-size:30px; font-family: monospace\">caiu</span>",
		"response": " ",
		"trial": "prac-sent",
		"word": "caiu",
		"trial_type": "html-keyboard-response",
		"trial_index": 13,
		"time_elapsed": 29295,
		"internal_node_id": "0.0-1.0-1.10"
	},
	{
		"rt": 523,
		"stimulus": "<span style=\"font-size:30px; font-family: monospace\">da</span>",
		"response": " ",
		"trial": "prac-sent",
		"word": "da",
		"trial_type": "html-keyboard-response",
		"trial_index": 14,
		"time_elapsed": 30071,
		"internal_node_id": "0.0-1.0-1.11"
	},
	{
		"rt": 731,
		"stimulus": "<span style=\"font-size:30px; font-family: monospace\">mesa</span>",
		"response": " ",
		"trial": "prac-sent",
		"word": "mesa",
		"trial_type": "html-keyboard-response",
		"trial_index": 15,
		"time_elapsed": 31054,
		"internal_node_id": "0.0-1.0-1.12"
	},
	{
		"rt": 595,
		"stimulus": "<span style=\"font-size:30px; font-family: monospace\">de</span>",
		"response": " ",
		"trial": "prac-sent",
		"word": "de",
		"trial_type": "html-keyboard-response",
		"trial_index": 16,
		"time_elapsed": 31901,
		"internal_node_id": "0.0-1.0-1.13"
	},
	{
		"rt": 732,
		"stimulus": "<span style=\"font-size:30px; font-family: monospace\">jantar.</span>",
		"response": " ",
		"trial": "prac-comp",
		"word": "jantar.",
		"trial_type": "html-keyboard-response",
		"trial_index": 17,
		"time_elapsed": 32885,
		"internal_node_id": "0.0-1.0-1.14"
	},
	{
		"rt": 3156,
		"stimulus": "<span style=\"font-size:30px; font-family: monospace\">A caneca permaneceu na mesa?</span>",
		"response": "s",
		"question": "A caneca permaneceu na mesa?",
		"answer": "não",
		"trial": "prac-comp",
		"trial_type": "html-keyboard-response",
		"trial_index": 18,
		"time_elapsed": 36294,
		"internal_node_id": "0.0-1.0-2.14-0.14",
		"accuracy": false
	},
	{
		"view_history": [
			{
				"page_index": 0,
				"viewing_time": 7806
			}
		],
		"rt": 7806,
		"trial_type": "instructions",
		"trial_index": 19,
		"time_elapsed": 44610,
		"internal_node_id": "0.0-2.0"
	},
	{
		"rt": null,
		"stimulus": "<span style= \"font-size:30px; font-family: monospace\">+</span>",
		"response": null,
		"trial_part": "fixation",
		"trial_type": "html-keyboard-response",
		"trial_index": 20,
		"time_elapsed": 45713,
		"internal_node_id": "0.0-3.0-0.0-0.0"
	},
	{
		"rt": 651,
		"stimulus": "<span style=\"font-size:30px; font-family: monospace\">Ursos</span>",
		"response": " ",
		"trial": "exp-sent",
		"word": "Ursos",
		"trial_type": "html-keyboard-response",
		"trial_index": 21,
		"time_elapsed": 46628,
		"internal_node_id": "0.0-3.0-1.0"
	},
	{
		"rt": 759,
		"stimulus": "<span style=\"font-size:30px; font-family: monospace\">têm</span>",
		"response": " ",
		"trial": "exp-sent",
		"word": "têm",
		"trial_type": "html-keyboard-response",
		"trial_index": 22,
		"time_elapsed": 47639,
		"internal_node_id": "0.0-3.0-1.1"
	},
	{
		"rt": 507,
		"stimulus": "<span style=\"font-size:30px; font-family: monospace\">uma</span>",
		"response": " ",
		"trial": "exp-sent",
		"word": "uma",
		"trial_type": "html-keyboard-response",
		"trial_index": 23,
		"time_elapsed": 48398,
		"internal_node_id": "0.0-3.0-1.2"
	},
	{
		"rt": 478,
		"stimulus": "<span style=\"font-size:30px; font-family: monospace\">patada</span>",
		"response": " ",
		"trial": "exp-sent",
		"word": "patada",
		"trial_type": "html-keyboard-response",
		"trial_index": 24,
		"time_elapsed": 49126,
		"internal_node_id": "0.0-3.0-1.3"
	},
	{
		"rt": 505,
		"stimulus": "<span style=\"font-size:30px; font-family: monospace\">brutal</span>",
		"response": " ",
		"trial": "exp-sent",
		"word": "brutal",
		"trial_type": "html-keyboard-response",
		"trial_index": 25,
		"time_elapsed": 49882,
		"internal_node_id": "0.0-3.0-1.4"
	},
	{
		"rt": 546,
		"stimulus": "<span style=\"font-size:30px; font-family: monospace\">e</span>",
		"response": " ",
		"trial": "exp-sent",
		"word": "e",
		"trial_type": "html-keyboard-response",
		"trial_index": 26,
		"time_elapsed": 50679,
		"internal_node_id": "0.0-3.0-1.5"
	},
	{
		"rt": 464,
		"stimulus": "<span style=\"font-size:30px; font-family: monospace\">poderosa.</span>",
		"response": " ",
		"trial": "exp-sent",
		"word": "poderosa.",
		"trial_type": "html-keyboard-response",
		"trial_index": 27,
		"time_elapsed": 51395,
		"internal_node_id": "0.0-3.0-1.6"
	},
	{
		"rt": null,
		"stimulus": "<span style= \"font-size:30px; font-family: monospace\">+</span>",
		"response": null,
		"trial_part": "fixation",
		"trial_type": "html-keyboard-response",
		"trial_index": 28,
		"time_elapsed": 52648,
		"internal_node_id": "0.0-3.0-0.7-0.7"
	},
	{
		"rt": 710,
		"stimulus": "<span style=\"font-size:30px; font-family: monospace\">Eu</span>",
		"response": " ",
		"trial": "exp-sent",
		"word": "Eu",
		"trial_type": "html-keyboard-response",
		"trial_index": 29,
		"time_elapsed": 53610,
		"internal_node_id": "0.0-3.0-1.7"
	},
	{
		"rt": 482,
		"stimulus": "<span style=\"font-size:30px; font-family: monospace\">fiz</span>",
		"response": " ",
		"trial": "exp-sent",
		"word": "fiz",
		"trial_type": "html-keyboard-response",
		"trial_index": 30,
		"time_elapsed": 54344,
		"internal_node_id": "0.0-3.0-1.8"
	},
	{
		"rt": 523,
		"stimulus": "<span style=\"font-size:30px; font-family: monospace\">aulas</span>",
		"response": " ",
		"trial": "exp-sent",
		"word": "aulas",
		"trial_type": "html-keyboard-response",
		"trial_index": 31,
		"time_elapsed": 55119,
		"internal_node_id": "0.0-3.0-1.9"
	},
	{
		"rt": 463,
		"stimulus": "<span style=\"font-size:30px; font-family: monospace\">de</span>",
		"response": " ",
		"trial": "exp-sent",
		"word": "de",
		"trial_type": "html-keyboard-response",
		"trial_index": 32,
		"time_elapsed": 55835,
		"internal_node_id": "0.0-3.0-1.10"
	},
	{
		"rt": 439,
		"stimulus": "<span style=\"font-size:30px; font-family: monospace\">espanhol</span>",
		"response": " ",
		"trial": "exp-sent",
		"word": "espanhol",
		"trial_type": "html-keyboard-response",
		"trial_index": 33,
		"time_elapsed": 56525,
		"internal_node_id": "0.0-3.0-1.11"
	},
	{
		"rt": 925,
		"stimulus": "<span style=\"font-size:30px; font-family: monospace\">nesta</span>",
		"response": " ",
		"trial": "exp-sent",
		"word": "nesta",
		"trial_type": "html-keyboard-response",
		"trial_index": 34,
		"time_elapsed": 57702,
		"internal_node_id": "0.0-3.0-1.12"
	},
	{
		"rt": 1053,
		"stimulus": "<span style=\"font-size:30px; font-family: monospace\">cidade.</span>",
		"response": " ",
		"trial": "exp-sent",
		"word": "cidade.",
		"trial_type": "html-keyboard-response",
		"trial_index": 35,
		"time_elapsed": 59006,
		"internal_node_id": "0.0-3.0-1.13"
	},
	{
		"rt": null,
		"stimulus": "<span style= \"font-size:30px; font-family: monospace\">+</span>",
		"response": null,
		"trial_part": "fixation",
		"trial_type": "html-keyboard-response",
		"trial_index": 36,
		"time_elapsed": 60258,
		"internal_node_id": "0.0-3.0-0.14-0.14"
	},
	{
		"rt": 631,
		"stimulus": "<span style=\"font-size:30px; font-family: monospace\">Ele</span>",
		"response": " ",
		"trial": "exp-sent",
		"word": "Ele",
		"trial_type": "html-keyboard-response",
		"trial_index": 37,
		"time_elapsed": 61140,
		"internal_node_id": "0.0-3.0-1.14"
	},
	{
		"rt": 582,
		"stimulus": "<span style=\"font-size:30px; font-family: monospace\">comprou</span>",
		"response": " ",
		"trial": "exp-sent",
		"word": "comprou",
		"trial_type": "html-keyboard-response",
		"trial_index": 38,
		"time_elapsed": 61974,
		"internal_node_id": "0.0-3.0-1.15"
	},
	{
		"rt": 477,
		"stimulus": "<span style=\"font-size:30px; font-family: monospace\">mais</span>",
		"response": " ",
		"trial": "exp-sent",
		"word": "mais",
		"trial_type": "html-keyboard-response",
		"trial_index": 39,
		"time_elapsed": 62702,
		"internal_node_id": "0.0-3.0-1.16"
	},
	{
		"rt": 648,
		"stimulus": "<span style=\"font-size:30px; font-family: monospace\">uma</span>",
		"response": " ",
		"trial": "exp-sent",
		"word": "uma",
		"trial_type": "html-keyboard-response",
		"trial_index": 40,
		"time_elapsed": 63602,
		"internal_node_id": "0.0-3.0-1.17"
	},
	{
		"rt": 746,
		"stimulus": "<span style=\"font-size:30px; font-family: monospace\">esponja</span>",
		"response": " ",
		"trial": "exp-sent",
		"word": "esponja",
		"trial_type": "html-keyboard-response",
		"trial_index": 41,
		"time_elapsed": 64600,
		"internal_node_id": "0.0-3.0-1.18"
	},
	{
		"rt": 633,
		"stimulus": "<span style=\"font-size:30px; font-family: monospace\">para</span>",
		"response": " ",
		"trial": "exp-sent",
		"word": "para",
		"trial_type": "html-keyboard-response",
		"trial_index": 42,
		"time_elapsed": 65485,
		"internal_node_id": "0.0-3.0-1.19"
	},
	{
		"rt": 489,
		"stimulus": "<span style=\"font-size:30px; font-family: monospace\">a</span>",
		"response": " ",
		"trial": "exp-sent",
		"word": "a",
		"trial_type": "html-keyboard-response",
		"trial_index": 43,
		"time_elapsed": 66226,
		"internal_node_id": "0.0-3.0-1.20"
	},
	{
		"rt": 3286,
		"stimulus": "<span style=\"font-size:30px; font-family: monospace\">cozinha.</span>",
		"response": " ",
		"trial": "exp-sent",
		"word": "cozinha.",
		"trial_type": "html-keyboard-response",
		"trial_index": 44,
		"time_elapsed": 69764,
		"internal_node_id": "0.0-3.0-1.21"
	},
	{
		"rt": null,
		"stimulus": "<span style= \"font-size:30px; font-family: monospace\">+</span>",
		"response": null,
		"trial_part": "fixation",
		"trial_type": "html-keyboard-response",
		"trial_index": 45,
		"time_elapsed": 71017,
		"internal_node_id": "0.0-3.0-0.22-0.22"
	},
	{
		"rt": 473,
		"stimulus": "<span style=\"font-size:30px; font-family: monospace\">Ele</span>",
		"response": " ",
		"trial": "exp-sent",
		"word": "Ele",
		"trial_type": "html-keyboard-response",
		"trial_index": 46,
		"time_elapsed": 71741,
		"internal_node_id": "0.0-3.0-1.22"
	},
	{
		"rt": 885,
		"stimulus": "<span style=\"font-size:30px; font-family: monospace\">teve</span>",
		"response": " ",
		"trial": "exp-sent",
		"word": "teve",
		"trial_type": "html-keyboard-response",
		"trial_index": 47,
		"time_elapsed": 72878,
		"internal_node_id": "0.0-3.0-1.23"
	},
	{
		"rt": 461,
		"stimulus": "<span style=\"font-size:30px; font-family: monospace\">um</span>",
		"response": " ",
		"trial": "exp-sent",
		"word": "um",
		"trial_type": "html-keyboard-response",
		"trial_index": 48,
		"time_elapsed": 73598,
		"internal_node_id": "0.0-3.0-1.24"
	},
	{
		"rt": 576,
		"stimulus": "<span style=\"font-size:30px; font-family: monospace\">sono</span>",
		"response": " ",
		"trial": "exp-sent",
		"word": "sono",
		"trial_type": "html-keyboard-response",
		"trial_index": 49,
		"time_elapsed": 74426,
		"internal_node_id": "0.0-3.0-1.25"
	},
	{
		"rt": 537,
		"stimulus": "<span style=\"font-size:30px; font-family: monospace\">bizarro</span>",
		"response": " ",
		"trial": "exp-sent",
		"word": "bizarro",
		"trial_type": "html-keyboard-response",
		"trial_index": 50,
		"time_elapsed": 75215,
		"internal_node_id": "0.0-3.0-1.26"
	},
	{
		"rt": 437,
		"stimulus": "<span style=\"font-size:30px; font-family: monospace\">sem</span>",
		"response": " ",
		"trial": "exp-sent",
		"word": "sem",
		"trial_type": "html-keyboard-response",
		"trial_index": 51,
		"time_elapsed": 75905,
		"internal_node_id": "0.0-3.0-1.27"
	},
	{
		"rt": 922,
		"stimulus": "<span style=\"font-size:30px; font-family: monospace\">nenhum</span>",
		"response": " ",
		"trial": "exp-sent",
		"word": "nenhum",
		"trial_type": "html-keyboard-response",
		"trial_index": 52,
		"time_elapsed": 77079,
		"internal_node_id": "0.0-3.0-1.28"
	},
	{
		"rt": 666,
		"stimulus": "<span style=\"font-size:30px; font-family: monospace\">motivo.</span>",
		"response": " ",
		"trial": "exp-sent",
		"word": "motivo.",
		"trial_type": "html-keyboard-response",
		"trial_index": 53,
		"time_elapsed": 77997,
		"internal_node_id": "0.0-3.0-1.29"
	},
	{
		"rt": null,
		"stimulus": "<span style= \"font-size:30px; font-family: monospace\">+</span>",
		"response": null,
		"trial_part": "fixation",
		"trial_type": "html-keyboard-response",
		"trial_index": 54,
		"time_elapsed": 79250,
		"internal_node_id": "0.0-3.0-0.30-0.30"
	},
	{
		"rt": 671,
		"stimulus": "<span style=\"font-size:30px; font-family: monospace\">A</span>",
		"response": " ",
		"trial": "exp-sent",
		"word": "A",
		"trial_type": "html-keyboard-response",
		"trial_index": 55,
		"time_elapsed": 80172,
		"internal_node_id": "0.0-3.0-1.30"
	},
	{
		"rt": 552,
		"stimulus": "<span style=\"font-size:30px; font-family: monospace\">moça</span>",
		"response": " ",
		"trial": "exp-sent",
		"word": "moça",
		"trial_type": "html-keyboard-response",
		"trial_index": 56,
		"time_elapsed": 80976,
		"internal_node_id": "0.0-3.0-1.31"
	},
	{
		"rt": 418,
		"stimulus": "<span style=\"font-size:30px; font-family: monospace\">comprou</span>",
		"response": " ",
		"trial": "exp-sent",
		"word": "comprou",
		"trial_type": "html-keyboard-response",
		"trial_index": 57,
		"time_elapsed": 81646,
		"internal_node_id": "0.0-3.0-1.32"
	},
	{
		"rt": 564,
		"stimulus": "<span style=\"font-size:30px; font-family: monospace\">um</span>",
		"response": " ",
		"trial": "exp-sent",
		"word": "um",
		"trial_type": "html-keyboard-response",
		"trial_index": 58,
		"time_elapsed": 82462,
		"internal_node_id": "0.0-3.0-1.33"
	},
	{
		"rt": 655,
		"stimulus": "<span style=\"font-size:30px; font-family: monospace\">diamante</span>",
		"response": " ",
		"trial": "exp-sent",
		"word": "diamante",
		"trial_type": "html-keyboard-response",
		"trial_index": 59,
		"time_elapsed": 83368,
		"internal_node_id": "0.0-3.0-1.34"
	},
	{
		"rt": 661,
		"stimulus": "<span style=\"font-size:30px; font-family: monospace\">para</span>",
		"response": " ",
		"trial": "exp-sent",
		"word": "para",
		"trial_type": "html-keyboard-response",
		"trial_index": 60,
		"time_elapsed": 84280,
		"internal_node_id": "0.0-3.0-1.35"
	},
	{
		"rt": 436,
		"stimulus": "<span style=\"font-size:30px; font-family: monospace\">sua</span>",
		"response": " ",
		"trial": "exp-sent",
		"word": "sua",
		"trial_type": "html-keyboard-response",
		"trial_index": 61,
		"time_elapsed": 84968,
		"internal_node_id": "0.0-3.0-1.36"
	},
	{
		"rt": 532,
		"stimulus": "<span style=\"font-size:30px; font-family: monospace\">prima.</span>",
		"response": " ",
		"trial": "comp",
		"word": "prima.",
		"trial_type": "html-keyboard-response",
		"trial_index": 62,
		"time_elapsed": 85752,
		"internal_node_id": "0.0-3.0-1.37"
	},
	{
		"rt": 16980,
		"stimulus": "<span style=\"font-size:30px; font-family: monospace\">A moça comprou um diamante?</span>",
		"response": "n",
		"question": "A moça comprou um diamante?",
		"answer": "sim",
		"trial": "comp",
		"trial_type": "html-keyboard-response",
		"trial_index": 63,
		"time_elapsed": 102985,
		"internal_node_id": "0.0-3.0-2.37-0.37",
		"accuracy": false
	},
	{
		"rt": null,
		"stimulus": "<span style= \"font-size:30px; font-family: monospace\">+</span>",
		"response": null,
		"trial_part": "fixation",
		"trial_type": "html-keyboard-response",
		"trial_index": 64,
		"time_elapsed": 104487,
		"internal_node_id": "0.0-3.0-0.38-0.38"
	},
	{
		"rt": 213,
		"stimulus": "<span style=\"font-size:30px; font-family: monospace\">O</span>",
		"response": " ",
		"trial": "exp-sent",
		"word": "O",
		"trial_type": "html-keyboard-response",
		"trial_index": 65,
		"time_elapsed": 104952,
		"internal_node_id": "0.0-3.0-1.38"
	},
	{
		"rt": 2801,
		"stimulus": "<span style=\"font-size:30px; font-family: monospace\">moço</span>",
		"response": " ",
		"trial": "exp-sent",
		"word": "moço",
		"trial_type": "html-keyboard-response",
		"trial_index": 66,
		"time_elapsed": 108005,
		"internal_node_id": "0.0-3.0-1.39"
	},
	{
		"rt": 2592,
		"stimulus": "<span style=\"font-size:30px; font-family: monospace\">usou</span>",
		"response": " ",
		"trial": "exp-sent",
		"word": "usou",
		"trial_type": "html-keyboard-response",
		"trial_index": 67,
		"time_elapsed": 110849,
		"internal_node_id": "0.0-3.0-1.40"
	},
	{
		"rt": 2420,
		"stimulus": "<span style=\"font-size:30px; font-family: monospace\">várias</span>",
		"response": " ",
		"trial": "exp-sent",
		"word": "várias",
		"trial_type": "html-keyboard-response",
		"trial_index": 68,
		"time_elapsed": 113520,
		"internal_node_id": "0.0-3.0-1.41"
	},
	{
		"rt": 1263,
		"stimulus": "<span style=\"font-size:30px; font-family: monospace\">velas</span>",
		"response": " ",
		"trial": "exp-sent",
		"word": "velas",
		"trial_type": "html-keyboard-response",
		"trial_index": 69,
		"time_elapsed": 115034,
		"internal_node_id": "0.0-3.0-1.42"
	},
	{
		"rt": 865,
		"stimulus": "<span style=\"font-size:30px; font-family: monospace\">no</span>",
		"response": " ",
		"trial": "exp-sent",
		"word": "no",
		"trial_type": "html-keyboard-response",
		"trial_index": 70,
		"time_elapsed": 116151,
		"internal_node_id": "0.0-3.0-1.43"
	},
	{
		"rt": 1982,
		"stimulus": "<span style=\"font-size:30px; font-family: monospace\">enfeite</span>",
		"response": " ",
		"trial": "exp-sent",
		"word": "enfeite",
		"trial_type": "html-keyboard-response",
		"trial_index": 71,
		"time_elapsed": 118385,
		"internal_node_id": "0.0-3.0-1.44"
	},
	{
		"rt": 669,
		"stimulus": "<span style=\"font-size:30px; font-family: monospace\">de</span>",
		"response": " ",
		"trial": "exp-sent",
		"word": "de",
		"trial_type": "html-keyboard-response",
		"trial_index": 72,
		"time_elapsed": 119306,
		"internal_node_id": "0.0-3.0-1.45"
	},
	{
		"rt": 735,
		"stimulus": "<span style=\"font-size:30px; font-family: monospace\">mesa.</span>",
		"response": " ",
		"trial": "exp-sent",
		"word": "mesa.",
		"trial_type": "html-keyboard-response",
		"trial_index": 73,
		"time_elapsed": 120293,
		"internal_node_id": "0.0-3.0-1.46"
	},
	{
		"rt": null,
		"stimulus": "<span style= \"font-size:30px; font-family: monospace\">+</span>",
		"response": null,
		"trial_part": "fixation",
		"trial_type": "html-keyboard-response",
		"trial_index": 74,
		"time_elapsed": 121545,
		"internal_node_id": "0.0-3.0-0.47-0.47"
	},
	{
		"rt": 655,
		"stimulus": "<span style=\"font-size:30px; font-family: monospace\">Gostamos</span>",
		"response": " ",
		"trial": "exp-sent",
		"word": "Gostamos",
		"trial_type": "html-keyboard-response",
		"trial_index": 75,
		"time_elapsed": 122452,
		"internal_node_id": "0.0-3.0-1.47"
	},
	{
		"rt": 746,
		"stimulus": "<span style=\"font-size:30px; font-family: monospace\">de</span>",
		"response": " ",
		"trial": "exp-sent",
		"word": "de",
		"trial_type": "html-keyboard-response",
		"trial_index": 76,
		"time_elapsed": 123449,
		"internal_node_id": "0.0-3.0-1.48"
	},
	{
		"rt": 699,
		"stimulus": "<span style=\"font-size:30px; font-family: monospace\">suco</span>",
		"response": " ",
		"trial": "exp-sent",
		"word": "suco",
		"trial_type": "html-keyboard-response",
		"trial_index": 77,
		"time_elapsed": 124400,
		"internal_node_id": "0.0-3.0-1.49"
	},
	{
		"rt": 588,
		"stimulus": "<span style=\"font-size:30px; font-family: monospace\">em</span>",
		"response": " ",
		"trial": "exp-sent",
		"word": "em",
		"trial_type": "html-keyboard-response",
		"trial_index": 78,
		"time_elapsed": 125240,
		"internal_node_id": "0.0-3.0-1.50"
	},
	{
		"rt": 1075,
		"stimulus": "<span style=\"font-size:30px; font-family: monospace\">garrafa</span>",
		"response": " ",
		"trial": "exp-sent",
		"word": "garrafa",
		"trial_type": "html-keyboard-response",
		"trial_index": 79,
		"time_elapsed": 126566,
		"internal_node_id": "0.0-3.0-1.51"
	},
	{
		"rt": 694,
		"stimulus": "<span style=\"font-size:30px; font-family: monospace\">de</span>",
		"response": " ",
		"trial": "exp-sent",
		"word": "de",
		"trial_type": "html-keyboard-response",
		"trial_index": 80,
		"time_elapsed": 127511,
		"internal_node_id": "0.0-3.0-1.52"
	},
	{
		"rt": 748,
		"stimulus": "<span style=\"font-size:30px; font-family: monospace\">tamanho</span>",
		"response": " ",
		"trial": "exp-sent",
		"word": "tamanho",
		"trial_type": "html-keyboard-response",
		"trial_index": 81,
		"time_elapsed": 128511,
		"internal_node_id": "0.0-3.0-1.53"
	},
	{
		"rt": 703,
		"stimulus": "<span style=\"font-size:30px; font-family: monospace\">pequeno.</span>",
		"response": " ",
		"trial": "exp-sent",
		"word": "pequeno.",
		"trial_type": "html-keyboard-response",
		"trial_index": 82,
		"time_elapsed": 129466,
		"internal_node_id": "0.0-3.0-1.54"
	},
	{
		"rt": null,
		"stimulus": "<span style= \"font-size:30px; font-family: monospace\">+</span>",
		"response": null,
		"trial_part": "fixation",
		"trial_type": "html-keyboard-response",
		"trial_index": 83,
		"time_elapsed": 130719,
		"internal_node_id": "0.0-3.0-0.55-0.55"
	},
	{
		"rt": 805,
		"stimulus": "<span style=\"font-size:30px; font-family: monospace\">Sua</span>",
		"response": " ",
		"trial": "exp-sent",
		"word": "Sua",
		"trial_type": "html-keyboard-response",
		"trial_index": 84,
		"time_elapsed": 131775,
		"internal_node_id": "0.0-3.0-1.55"
	},
	{
		"rt": 621,
		"stimulus": "<span style=\"font-size:30px; font-family: monospace\">filha</span>",
		"response": " ",
		"trial": "exp-sent",
		"word": "filha",
		"trial_type": "html-keyboard-response",
		"trial_index": 85,
		"time_elapsed": 132648,
		"internal_node_id": "0.0-3.0-1.56"
	},
	{
		"rt": 716,
		"stimulus": "<span style=\"font-size:30px; font-family: monospace\">é</span>",
		"response": " ",
		"trial": "exp-sent",
		"word": "é",
		"trial_type": "html-keyboard-response",
		"trial_index": 86,
		"time_elapsed": 133617,
		"internal_node_id": "0.0-3.0-1.57"
	},
	{
		"rt": 691,
		"stimulus": "<span style=\"font-size:30px; font-family: monospace\">muito</span>",
		"response": " ",
		"trial": "exp-sent",
		"word": "muito",
		"trial_type": "html-keyboard-response",
		"trial_index": 87,
		"time_elapsed": 134559,
		"internal_node_id": "0.0-3.0-1.58"
	},
	{
		"rt": 1967,
		"stimulus": "<span style=\"font-size:30px; font-family: monospace\">capaz</span>",
		"response": " ",
		"trial": "exp-sent",
		"word": "capaz",
		"trial_type": "html-keyboard-response",
		"trial_index": 88,
		"time_elapsed": 136778,
		"internal_node_id": "0.0-3.0-1.59"
	},
	{
		"rt": 542,
		"stimulus": "<span style=\"font-size:30px; font-family: monospace\">e</span>",
		"response": " ",
		"trial": "exp-sent",
		"word": "e",
		"trial_type": "html-keyboard-response",
		"trial_index": 89,
		"time_elapsed": 137572,
		"internal_node_id": "0.0-3.0-1.60"
	},
	{
		"rt": 941,
		"stimulus": "<span style=\"font-size:30px; font-family: monospace\">esforçada.</span>",
		"response": " ",
		"trial": "exp-sent",
		"word": "esforçada.",
		"trial_type": "html-keyboard-response",
		"trial_index": 90,
		"time_elapsed": 138764,
		"internal_node_id": "0.0-3.0-1.61"
	},
	{
		"rt": null,
		"stimulus": "<span style= \"font-size:30px; font-family: monospace\">+</span>",
		"response": null,
		"trial_part": "fixation",
		"trial_type": "html-keyboard-response",
		"trial_index": 91,
		"time_elapsed": 140017,
		"internal_node_id": "0.0-3.0-0.62-0.62"
	},
	{
		"rt": 1081,
		"stimulus": "<span style=\"font-size:30px; font-family: monospace\">A</span>",
		"response": " ",
		"trial": "exp-sent",
		"word": "A",
		"trial_type": "html-keyboard-response",
		"trial_index": 92,
		"time_elapsed": 141350,
		"internal_node_id": "0.0-3.0-1.62"
	},
	{
		"rt": 839,
		"stimulus": "<span style=\"font-size:30px; font-family: monospace\">batida</span>",
		"response": " ",
		"trial": "exp-sent",
		"word": "batida",
		"trial_type": "html-keyboard-response",
		"trial_index": 93,
		"time_elapsed": 142441,
		"internal_node_id": "0.0-3.0-1.63"
	},
	{
		"rt": 743,
		"stimulus": "<span style=\"font-size:30px; font-family: monospace\">causou</span>",
		"response": " ",
		"trial": "exp-sent",
		"word": "causou",
		"trial_type": "html-keyboard-response",
		"trial_index": 94,
		"time_elapsed": 143435,
		"internal_node_id": "0.0-3.0-1.64"
	},
	{
		"rt": 1271,
		"stimulus": "<span style=\"font-size:30px; font-family: monospace\">muita</span>",
		"response": " ",
		"trial": "exp-sent",
		"word": "muita",
		"trial_type": "html-keyboard-response",
		"trial_index": 95,
		"time_elapsed": 144957,
		"internal_node_id": "0.0-3.0-1.65"
	},
	{
		"rt": 673,
		"stimulus": "<span style=\"font-size:30px; font-family: monospace\">confusão</span>",
		"response": " ",
		"trial": "exp-sent",
		"word": "confusão",
		"trial_type": "html-keyboard-response",
		"trial_index": 96,
		"time_elapsed": 145882,
		"internal_node_id": "0.0-3.0-1.66"
	},
	{
		"rt": 586,
		"stimulus": "<span style=\"font-size:30px; font-family: monospace\">na</span>",
		"response": " ",
		"trial": "exp-sent",
		"word": "na",
		"trial_type": "html-keyboard-response",
		"trial_index": 97,
		"time_elapsed": 146720,
		"internal_node_id": "0.0-3.0-1.67"
	},
	{
		"rt": 729,
		"stimulus": "<span style=\"font-size:30px; font-family: monospace\">estrada.</span>",
		"response": " ",
		"trial": "exp-sent",
		"word": "estrada.",
		"trial_type": "html-keyboard-response",
		"trial_index": 98,
		"time_elapsed": 147701,
		"internal_node_id": "0.0-3.0-1.68"
	},
	{
		"rt": null,
		"stimulus": "<span style= \"font-size:30px; font-family: monospace\">+</span>",
		"response": null,
		"trial_part": "fixation",
		"trial_type": "html-keyboard-response",
		"trial_index": 99,
		"time_elapsed": 148954,
		"internal_node_id": "0.0-3.0-0.69-0.69"
	},
	{
		"rt": 204,
		"stimulus": "<span style=\"font-size:30px; font-family: monospace\">Eu</span>",
		"response": " ",
		"trial": "exp-sent",
		"word": "Eu",
		"trial_type": "html-keyboard-response",
		"trial_index": 100,
		"time_elapsed": 149409,
		"internal_node_id": "0.0-3.0-1.69"
	},
	{
		"rt": 822,
		"stimulus": "<span style=\"font-size:30px; font-family: monospace\">cozinhei</span>",
		"response": " ",
		"trial": "exp-sent",
		"word": "cozinhei",
		"trial_type": "html-keyboard-response",
		"trial_index": 101,
		"time_elapsed": 150482,
		"internal_node_id": "0.0-3.0-1.70"
	},
	{
		"rt": 763,
		"stimulus": "<span style=\"font-size:30px; font-family: monospace\">um</span>",
		"response": " ",
		"trial": "exp-sent",
		"word": "um",
		"trial_type": "html-keyboard-response",
		"trial_index": 102,
		"time_elapsed": 151497,
		"internal_node_id": "0.0-3.0-1.71"
	},
	{
		"rt": 1605,
		"stimulus": "<span style=\"font-size:30px; font-family: monospace\">almoço</span>",
		"response": " ",
		"trial": "exp-sent",
		"word": "almoço",
		"trial_type": "html-keyboard-response",
		"trial_index": 103,
		"time_elapsed": 153354,
		"internal_node_id": "0.0-3.0-1.72"
	},
	{
		"rt": 788,
		"stimulus": "<span style=\"font-size:30px; font-family: monospace\">nutritivo</span>",
		"response": " ",
		"trial": "exp-sent",
		"word": "nutritivo",
		"trial_type": "html-keyboard-response",
		"trial_index": 104,
		"time_elapsed": 154394,
		"internal_node_id": "0.0-3.0-1.73"
	},
	{
		"rt": 832,
		"stimulus": "<span style=\"font-size:30px; font-family: monospace\">para</span>",
		"response": " ",
		"trial": "exp-sent",
		"word": "para",
		"trial_type": "html-keyboard-response",
		"trial_index": 105,
		"time_elapsed": 155477,
		"internal_node_id": "0.0-3.0-1.74"
	},
	{
		"rt": 844,
		"stimulus": "<span style=\"font-size:30px; font-family: monospace\">hoje.</span>",
		"response": " ",
		"trial": "comp",
		"word": "hoje.",
		"trial_type": "html-keyboard-response",
		"trial_index": 106,
		"time_elapsed": 156573,
		"internal_node_id": "0.0-3.0-1.75"
	},
	{
		"rt": 11658,
		"stimulus": "<span style=\"font-size:30px; font-family: monospace\">O almoço era nutritivo?</span>",
		"response": "n",
		"question": "O almoço era nutritivo?",
		"answer": "sim",
		"trial": "comp",
		"trial_type": "html-keyboard-response",
		"trial_index": 107,
		"time_elapsed": 168482,
		"internal_node_id": "0.0-3.0-2.75-0.75",
		"accuracy": false
	},
	{
		"rt": null,
		"stimulus": "<span style= \"font-size:30px; font-family: monospace\">+</span>",
		"response": null,
		"trial_part": "fixation",
		"trial_type": "html-keyboard-response",
		"trial_index": 108,
		"time_elapsed": 169985,
		"internal_node_id": "0.0-3.0-0.76-0.76"
	},
	{
		"rt": 413,
		"stimulus": "<span style=\"font-size:30px; font-family: monospace\">Minha</span>",
		"response": " ",
		"trial": "exp-sent",
		"word": "Minha",
		"trial_type": "html-keyboard-response",
		"trial_index": 109,
		"time_elapsed": 170649,
		"internal_node_id": "0.0-3.0-1.76"
	},
	{
		"rt": 919,
		"stimulus": "<span style=\"font-size:30px; font-family: monospace\">prima</span>",
		"response": " ",
		"trial": "exp-sent",
		"word": "prima",
		"trial_type": "html-keyboard-response",
		"trial_index": 110,
		"time_elapsed": 171821,
		"internal_node_id": "0.0-3.0-1.77"
	},
	{
		"rt": 1239,
		"stimulus": "<span style=\"font-size:30px; font-family: monospace\">trocou</span>",
		"response": " ",
		"trial": "exp-sent",
		"word": "trocou",
		"trial_type": "html-keyboard-response",
		"trial_index": 111,
		"time_elapsed": 173311,
		"internal_node_id": "0.0-3.0-1.78"
	},
	{
		"rt": 616,
		"stimulus": "<span style=\"font-size:30px; font-family: monospace\">a</span>",
		"response": " ",
		"trial": "exp-sent",
		"word": "a",
		"trial_type": "html-keyboard-response",
		"trial_index": 112,
		"time_elapsed": 174181,
		"internal_node_id": "0.0-3.0-1.79"
	},
	{
		"rt": 818,
		"stimulus": "<span style=\"font-size:30px; font-family: monospace\">tela</span>",
		"response": " ",
		"trial": "exp-sent",
		"word": "tela",
		"trial_type": "html-keyboard-response",
		"trial_index": 113,
		"time_elapsed": 175250,
		"internal_node_id": "0.0-3.0-1.80"
	},
	{
		"rt": 640,
		"stimulus": "<span style=\"font-size:30px; font-family: monospace\">do</span>",
		"response": " ",
		"trial": "exp-sent",
		"word": "do",
		"trial_type": "html-keyboard-response",
		"trial_index": 114,
		"time_elapsed": 176143,
		"internal_node_id": "0.0-3.0-1.81"
	},
	{
		"rt": 4045,
		"stimulus": "<span style=\"font-size:30px; font-family: monospace\">celular</span>",
		"response": " ",
		"trial": "exp-sent",
		"word": "celular",
		"trial_type": "html-keyboard-response",
		"trial_index": 115,
		"time_elapsed": 180441,
		"internal_node_id": "0.0-3.0-1.82"
	},
	{
		"rt": 834,
		"stimulus": "<span style=\"font-size:30px; font-family: monospace\">duas</span>",
		"response": " ",
		"trial": "exp-sent",
		"word": "duas",
		"trial_type": "html-keyboard-response",
		"trial_index": 116,
		"time_elapsed": 181526,
		"internal_node_id": "0.0-3.0-1.83"
	},
	{
		"rt": 1131,
		"stimulus": "<span style=\"font-size:30px; font-family: monospace\">vezes.</span>",
		"response": " ",
		"trial": "exp-sent",
		"word": "vezes.",
		"trial_type": "html-keyboard-response",
		"trial_index": 117,
		"time_elapsed": 182909,
		"internal_node_id": "0.0-3.0-1.84"
	},
	{
		"rt": null,
		"stimulus": "<span style= \"font-size:30px; font-family: monospace\">+</span>",
		"response": null,
		"trial_part": "fixation",
		"trial_type": "html-keyboard-response",
		"trial_index": 118,
		"time_elapsed": 184162,
		"internal_node_id": "0.0-3.0-0.85-0.85"
	},
	{
		"rt": 918,
		"stimulus": "<span style=\"font-size:30px; font-family: monospace\">Agora</span>",
		"response": " ",
		"trial": "exp-sent",
		"word": "Agora",
		"trial_type": "html-keyboard-response",
		"trial_index": 119,
		"time_elapsed": 185331,
		"internal_node_id": "0.0-3.0-1.85"
	},
	{
		"rt": 682,
		"stimulus": "<span style=\"font-size:30px; font-family: monospace\">a</span>",
		"response": " ",
		"trial": "exp-sent",
		"word": "a",
		"trial_type": "html-keyboard-response",
		"trial_index": 120,
		"time_elapsed": 186265,
		"internal_node_id": "0.0-3.0-1.86"
	},
	{
		"rt": 1009,
		"stimulus": "<span style=\"font-size:30px; font-family: monospace\">minha</span>",
		"response": " ",
		"trial": "exp-sent",
		"word": "minha",
		"trial_type": "html-keyboard-response",
		"trial_index": 121,
		"time_elapsed": 187525,
		"internal_node_id": "0.0-3.0-1.87"
	},
	{
		"rt": 792,
		"stimulus": "<span style=\"font-size:30px; font-family: monospace\">única</span>",
		"response": " ",
		"trial": "exp-sent",
		"word": "única",
		"trial_type": "html-keyboard-response",
		"trial_index": 122,
		"time_elapsed": 188569,
		"internal_node_id": "0.0-3.0-1.88"
	},
	{
		"rt": 2077,
		"stimulus": "<span style=\"font-size:30px; font-family: monospace\">preocupação</span>",
		"response": " ",
		"trial": "exp-sent",
		"word": "preocupação",
		"trial_type": "html-keyboard-response",
		"trial_index": 123,
		"time_elapsed": 190898,
		"internal_node_id": "0.0-3.0-1.89"
	},
	{
		"rt": 959,
		"stimulus": "<span style=\"font-size:30px; font-family: monospace\">é</span>",
		"response": " ",
		"trial": "exp-sent",
		"word": "é",
		"trial_type": "html-keyboard-response",
		"trial_index": 124,
		"time_elapsed": 192109,
		"internal_node_id": "0.0-3.0-1.90"
	},
	{
		"rt": 646,
		"stimulus": "<span style=\"font-size:30px; font-family: monospace\">um</span>",
		"response": " ",
		"trial": "exp-sent",
		"word": "um",
		"trial_type": "html-keyboard-response",
		"trial_index": 125,
		"time_elapsed": 193007,
		"internal_node_id": "0.0-3.0-1.91"
	},
	{
		"rt": 1136,
		"stimulus": "<span style=\"font-size:30px; font-family: monospace\">descanso</span>",
		"response": " ",
		"trial": "exp-sent",
		"word": "descanso",
		"trial_type": "html-keyboard-response",
		"trial_index": 126,
		"time_elapsed": 194395,
		"internal_node_id": "0.0-3.0-1.92"
	},
	{
		"rt": 878,
		"stimulus": "<span style=\"font-size:30px; font-family: monospace\">tranquilo.</span>",
		"response": " ",
		"trial": "exp-sent",
		"word": "tranquilo.",
		"trial_type": "html-keyboard-response",
		"trial_index": 127,
		"time_elapsed": 195525,
		"internal_node_id": "0.0-3.0-1.93"
	},
	{
		"rt": null,
		"stimulus": "<span style= \"font-size:30px; font-family: monospace\">+</span>",
		"response": null,
		"trial_part": "fixation",
		"trial_type": "html-keyboard-response",
		"trial_index": 128,
		"time_elapsed": 196778,
		"internal_node_id": "0.0-3.0-0.94-0.94"
	},
	{
		"rt": 297,
		"stimulus": "<span style=\"font-size:30px; font-family: monospace\">A</span>",
		"response": " ",
		"trial": "exp-sent",
		"word": "A",
		"trial_type": "html-keyboard-response",
		"trial_index": 129,
		"time_elapsed": 197327,
		"internal_node_id": "0.0-3.0-1.94"
	},
	{
		"rt": 517,
		"stimulus": "<span style=\"font-size:30px; font-family: monospace\">criança</span>",
		"response": " ",
		"trial": "exp-sent",
		"word": "criança",
		"trial_type": "html-keyboard-response",
		"trial_index": 130,
		"time_elapsed": 198096,
		"internal_node_id": "0.0-3.0-1.95"
	},
	{
		"rt": 566,
		"stimulus": "<span style=\"font-size:30px; font-family: monospace\">ganhou</span>",
		"response": " ",
		"trial": "exp-sent",
		"word": "ganhou",
		"trial_type": "html-keyboard-response",
		"trial_index": 131,
		"time_elapsed": 198914,
		"internal_node_id": "0.0-3.0-1.96"
	},
	{
		"rt": 906,
		"stimulus": "<span style=\"font-size:30px; font-family: monospace\">um</span>",
		"response": " ",
		"trial": "exp-sent",
		"word": "um",
		"trial_type": "html-keyboard-response",
		"trial_index": 132,
		"time_elapsed": 200072,
		"internal_node_id": "0.0-3.0-1.97"
	},
	{
		"rt": 841,
		"stimulus": "<span style=\"font-size:30px; font-family: monospace\">presente</span>",
		"response": " ",
		"trial": "exp-sent",
		"word": "presente",
		"trial_type": "html-keyboard-response",
		"trial_index": 133,
		"time_elapsed": 201165,
		"internal_node_id": "0.0-3.0-1.98"
	},
	{
		"rt": 2750,
		"stimulus": "<span style=\"font-size:30px; font-family: monospace\">maravilhoso.</span>",
		"response": " ",
		"trial": "exp-sent",
		"word": "maravilhoso.",
		"trial_type": "html-keyboard-response",
		"trial_index": 134,
		"time_elapsed": 204166,
		"internal_node_id": "0.0-3.0-1.99"
	},
	{
		"rt": null,
		"stimulus": "<span style= \"font-size:30px; font-family: monospace\">+</span>",
		"response": null,
		"trial_part": "fixation",
		"trial_type": "html-keyboard-response",
		"trial_index": 135,
		"time_elapsed": 205418,
		"internal_node_id": "0.0-3.0-0.100-0.100"
	},
	{
		"rt": 2,
		"stimulus": "<span style=\"font-size:30px; font-family: monospace\">Os</span>",
		"response": " ",
		"trial": "exp-sent",
		"word": "Os",
		"trial_type": "html-keyboard-response",
		"trial_index": 136,
		"time_elapsed": 205672,
		"internal_node_id": "0.0-3.0-1.100"
	},
	{
		"rt": 652,
		"stimulus": "<span style=\"font-size:30px; font-family: monospace\">bichos</span>",
		"response": " ",
		"trial": "exp-sent",
		"word": "bichos",
		"trial_type": "html-keyboard-response",
		"trial_index": 137,
		"time_elapsed": 206576,
		"internal_node_id": "0.0-3.0-1.101"
	},
	{
		"rt": 494,
		"stimulus": "<span style=\"font-size:30px; font-family: monospace\">têm</span>",
		"response": " ",
		"trial": "exp-sent",
		"word": "têm",
		"trial_type": "html-keyboard-response",
		"trial_index": 138,
		"time_elapsed": 207321,
		"internal_node_id": "0.0-3.0-1.102"
	},
	{
		"rt": 513,
		"stimulus": "<span style=\"font-size:30px; font-family: monospace\">um</span>",
		"response": " ",
		"trial": "exp-sent",
		"word": "um",
		"trial_type": "html-keyboard-response",
		"trial_index": 139,
		"time_elapsed": 208086,
		"internal_node_id": "0.0-3.0-1.103"
	},
	{
		"rt": 831,
		"stimulus": "<span style=\"font-size:30px; font-family: monospace\">instinto</span>",
		"response": " ",
		"trial": "exp-sent",
		"word": "instinto",
		"trial_type": "html-keyboard-response",
		"trial_index": 140,
		"time_elapsed": 209168,
		"internal_node_id": "0.0-3.0-1.104"
	},
	{
		"rt": 540,
		"stimulus": "<span style=\"font-size:30px; font-family: monospace\">de</span>",
		"response": " ",
		"trial": "exp-sent",
		"word": "de",
		"trial_type": "html-keyboard-response",
		"trial_index": 141,
		"time_elapsed": 209960,
		"internal_node_id": "0.0-3.0-1.105"
	},
	{
		"rt": 1357,
		"stimulus": "<span style=\"font-size:30px; font-family: monospace\">sobrevivência</span>",
		"response": " ",
		"trial": "exp-sent",
		"word": "sobrevivência",
		"trial_type": "html-keyboard-response",
		"trial_index": 142,
		"time_elapsed": 211568,
		"internal_node_id": "0.0-3.0-1.106"
	},
	{
		"rt": 656,
		"stimulus": "<span style=\"font-size:30px; font-family: monospace\">forte.</span>",
		"response": " ",
		"trial": "exp-sent",
		"word": "forte.",
		"trial_type": "html-keyboard-response",
		"trial_index": 143,
		"time_elapsed": 212476,
		"internal_node_id": "0.0-3.0-1.107"
	},
	{
		"rt": null,
		"stimulus": "<span style= \"font-size:30px; font-family: monospace\">+</span>",
		"response": null,
		"trial_part": "fixation",
		"trial_type": "html-keyboard-response",
		"trial_index": 144,
		"time_elapsed": 213728,
		"internal_node_id": "0.0-3.0-0.108-0.108"
	},
	{
		"rt": 480,
		"stimulus": "<span style=\"font-size:30px; font-family: monospace\">Aquele</span>",
		"response": " ",
		"trial": "exp-sent",
		"word": "Aquele",
		"trial_type": "html-keyboard-response",
		"trial_index": 145,
		"time_elapsed": 214458,
		"internal_node_id": "0.0-3.0-1.108"
	},
	{
		"rt": 599,
		"stimulus": "<span style=\"font-size:30px; font-family: monospace\">menino</span>",
		"response": " ",
		"trial": "exp-sent",
		"word": "menino",
		"trial_type": "html-keyboard-response",
		"trial_index": 146,
		"time_elapsed": 215310,
		"internal_node_id": "0.0-3.0-1.109"
	},
	{
		"rt": 569,
		"stimulus": "<span style=\"font-size:30px; font-family: monospace\">alto</span>",
		"response": " ",
		"trial": "exp-sent",
		"word": "alto",
		"trial_type": "html-keyboard-response",
		"trial_index": 147,
		"time_elapsed": 216130,
		"internal_node_id": "0.0-3.0-1.110"
	},
	{
		"rt": 843,
		"stimulus": "<span style=\"font-size:30px; font-family: monospace\">é</span>",
		"response": " ",
		"trial": "exp-sent",
		"word": "é",
		"trial_type": "html-keyboard-response",
		"trial_index": 148,
		"time_elapsed": 217225,
		"internal_node_id": "0.0-3.0-1.111"
	},
	{
		"rt": 652,
		"stimulus": "<span style=\"font-size:30px; font-family: monospace\">exibido</span>",
		"response": " ",
		"trial": "exp-sent",
		"word": "exibido",
		"trial_type": "html-keyboard-response",
		"trial_index": 149,
		"time_elapsed": 218129,
		"internal_node_id": "0.0-3.0-1.112"
	},
	{
		"rt": 698,
		"stimulus": "<span style=\"font-size:30px; font-family: monospace\">e</span>",
		"response": " ",
		"trial": "exp-sent",
		"word": "e",
		"trial_type": "html-keyboard-response",
		"trial_index": 150,
		"time_elapsed": 219079,
		"internal_node_id": "0.0-3.0-1.113"
	},
	{
		"rt": 603,
		"stimulus": "<span style=\"font-size:30px; font-family: monospace\">sovina.</span>",
		"response": " ",
		"trial": "comp",
		"word": "sovina.",
		"trial_type": "html-keyboard-response",
		"trial_index": 151,
		"time_elapsed": 219934,
		"internal_node_id": "0.0-3.0-1.114"
	},
	{
		"rt": 10836,
		"stimulus": "<span style=\"font-size:30px; font-family: monospace\">Aquele menino é humilde?</span>",
		"response": "s",
		"question": "Aquele menino é humilde?",
		"answer": "não",
		"trial": "comp",
		"trial_type": "html-keyboard-response",
		"trial_index": 152,
		"time_elapsed": 231022,
		"internal_node_id": "0.0-3.0-2.114-0.114",
		"accuracy": false
	},
	{
		"rt": null,
		"stimulus": "<span style= \"font-size:30px; font-family: monospace\">+</span>",
		"response": null,
		"trial_part": "fixation",
		"trial_type": "html-keyboard-response",
		"trial_index": 153,
		"time_elapsed": 232524,
		"internal_node_id": "0.0-3.0-0.115-0.115"
	},
	{
		"rt": 900,
		"stimulus": "<span style=\"font-size:30px; font-family: monospace\">Ganhamos</span>",
		"response": " ",
		"trial": "exp-sent",
		"word": "Ganhamos",
		"trial_type": "html-keyboard-response",
		"trial_index": 154,
		"time_elapsed": 233675,
		"internal_node_id": "0.0-3.0-1.115"
	},
	{
		"rt": 602,
		"stimulus": "<span style=\"font-size:30px; font-family: monospace\">passagem</span>",
		"response": " ",
		"trial": "exp-sent",
		"word": "passagem",
		"trial_type": "html-keyboard-response",
		"trial_index": 155,
		"time_elapsed": 234529,
		"internal_node_id": "0.0-3.0-1.116"
	},
	{
		"rt": 829,
		"stimulus": "<span style=\"font-size:30px; font-family: monospace\">para</span>",
		"response": " ",
		"trial": "exp-sent",
		"word": "para",
		"trial_type": "html-keyboard-response",
		"trial_index": 156,
		"time_elapsed": 235609,
		"internal_node_id": "0.0-3.0-1.117"
	},
	{
		"rt": 958,
		"stimulus": "<span style=\"font-size:30px; font-family: monospace\">uma</span>",
		"response": " ",
		"trial": "exp-sent",
		"word": "uma",
		"trial_type": "html-keyboard-response",
		"trial_index": 157,
		"time_elapsed": 236819,
		"internal_node_id": "0.0-3.0-1.118"
	},
	{
		"rt": 5772,
		"stimulus": "<span style=\"font-size:30px; font-family: monospace\">viagem</span>",
		"response": " ",
		"trial": "exp-sent",
		"word": "viagem",
		"trial_type": "html-keyboard-response",
		"trial_index": 158,
		"time_elapsed": 242843,
		"internal_node_id": "0.0-3.0-1.119"
	},
	{
		"rt": 690,
		"stimulus": "<span style=\"font-size:30px; font-family: monospace\">de</span>",
		"response": " ",
		"trial": "exp-sent",
		"word": "de",
		"trial_type": "html-keyboard-response",
		"trial_index": 159,
		"time_elapsed": 243792,
		"internal_node_id": "0.0-3.0-1.120"
	},
	{
		"rt": 614,
		"stimulus": "<span style=\"font-size:30px; font-family: monospace\">férias.</span>",
		"response": " ",
		"trial": "exp-sent",
		"word": "férias.",
		"trial_type": "html-keyboard-response",
		"trial_index": 160,
		"time_elapsed": 244658,
		"internal_node_id": "0.0-3.0-1.121"
	},
	{
		"rt": null,
		"stimulus": "<span style= \"font-size:30px; font-family: monospace\">+</span>",
		"response": null,
		"trial_part": "fixation",
		"trial_type": "html-keyboard-response",
		"trial_index": 161,
		"time_elapsed": 245910,
		"internal_node_id": "0.0-3.0-0.122-0.122"
	},
	{
		"rt": 637,
		"stimulus": "<span style=\"font-size:30px; font-family: monospace\">Caiu</span>",
		"response": " ",
		"trial": "exp-sent",
		"word": "Caiu",
		"trial_type": "html-keyboard-response",
		"trial_index": 162,
		"time_elapsed": 246798,
		"internal_node_id": "0.0-3.0-1.122"
	},
	{
		"rt": 893,
		"stimulus": "<span style=\"font-size:30px; font-family: monospace\">algo</span>",
		"response": " ",
		"trial": "exp-sent",
		"word": "algo",
		"trial_type": "html-keyboard-response",
		"trial_index": 163,
		"time_elapsed": 247942,
		"internal_node_id": "0.0-3.0-1.123"
	},
	{
		"rt": 610,
		"stimulus": "<span style=\"font-size:30px; font-family: monospace\">no</span>",
		"response": " ",
		"trial": "exp-sent",
		"word": "no",
		"trial_type": "html-keyboard-response",
		"trial_index": 164,
		"time_elapsed": 248805,
		"internal_node_id": "0.0-3.0-1.124"
	},
	{
		"rt": 769,
		"stimulus": "<span style=\"font-size:30px; font-family: monospace\">meu</span>",
		"response": " ",
		"trial": "exp-sent",
		"word": "meu",
		"trial_type": "html-keyboard-response",
		"trial_index": 165,
		"time_elapsed": 249826,
		"internal_node_id": "0.0-3.0-1.125"
	},
	{
		"rt": 1718,
		"stimulus": "<span style=\"font-size:30px; font-family: monospace\">olho</span>",
		"response": " ",
		"trial": "exp-sent",
		"word": "olho",
		"trial_type": "html-keyboard-response",
		"trial_index": 166,
		"time_elapsed": 251796,
		"internal_node_id": "0.0-3.0-1.126"
	},
	{
		"rt": 549,
		"stimulus": "<span style=\"font-size:30px; font-family: monospace\">ontem</span>",
		"response": " ",
		"trial": "exp-sent",
		"word": "ontem",
		"trial_type": "html-keyboard-response",
		"trial_index": 167,
		"time_elapsed": 252596,
		"internal_node_id": "0.0-3.0-1.127"
	},
	{
		"rt": 1636,
		"stimulus": "<span style=\"font-size:30px; font-family: monospace\">de</span>",
		"response": " ",
		"trial": "exp-sent",
		"word": "de",
		"trial_type": "html-keyboard-response",
		"trial_index": 168,
		"time_elapsed": 254483,
		"internal_node_id": "0.0-3.0-1.128"
	},
	{
		"rt": 798,
		"stimulus": "<span style=\"font-size:30px; font-family: monospace\">tarde.</span>",
		"response": " ",
		"trial": "exp-sent",
		"word": "tarde.",
		"trial_type": "html-keyboard-response",
		"trial_index": 169,
		"time_elapsed": 255532,
		"internal_node_id": "0.0-3.0-1.129"
	},
	{
		"rt": null,
		"stimulus": "<span style= \"font-size:30px; font-family: monospace\">+</span>",
		"response": null,
		"trial_part": "fixation",
		"trial_type": "html-keyboard-response",
		"trial_index": 170,
		"time_elapsed": 256785,
		"internal_node_id": "0.0-3.0-0.130-0.130"
	},
	{
		"rt": 575,
		"stimulus": "<span style=\"font-size:30px; font-family: monospace\">Não</span>",
		"response": " ",
		"trial": "exp-sent",
		"word": "Não",
		"trial_type": "html-keyboard-response",
		"trial_index": 171,
		"time_elapsed": 257611,
		"internal_node_id": "0.0-3.0-1.130"
	},
	{
		"rt": 1420,
		"stimulus": "<span style=\"font-size:30px; font-family: monospace\">havia</span>",
		"response": " ",
		"trial": "exp-sent",
		"word": "havia",
		"trial_type": "html-keyboard-response",
		"trial_index": 172,
		"time_elapsed": 259282,
		"internal_node_id": "0.0-3.0-1.131"
	},
	{
		"rt": 520,
		"stimulus": "<span style=\"font-size:30px; font-family: monospace\">mais</span>",
		"response": " ",
		"trial": "exp-sent",
		"word": "mais",
		"trial_type": "html-keyboard-response",
		"trial_index": 173,
		"time_elapsed": 260054,
		"internal_node_id": "0.0-3.0-1.132"
	},
	{
		"rt": 820,
		"stimulus": "<span style=\"font-size:30px; font-family: monospace\">nenhum</span>",
		"response": " ",
		"trial": "exp-sent",
		"word": "nenhum",
		"trial_type": "html-keyboard-response",
		"trial_index": 174,
		"time_elapsed": 261125,
		"internal_node_id": "0.0-3.0-1.133"
	},
	{
		"rt": 702,
		"stimulus": "<span style=\"font-size:30px; font-family: monospace\">ingresso</span>",
		"response": " ",
		"trial": "exp-sent",
		"word": "ingresso",
		"trial_type": "html-keyboard-response",
		"trial_index": 175,
		"time_elapsed": 262079,
		"internal_node_id": "0.0-3.0-1.134"
	},
	{
		"rt": 881,
		"stimulus": "<span style=\"font-size:30px; font-family: monospace\">para</span>",
		"response": " ",
		"trial": "exp-sent",
		"word": "para",
		"trial_type": "html-keyboard-response",
		"trial_index": 176,
		"time_elapsed": 263211,
		"internal_node_id": "0.0-3.0-1.135"
	},
	{
		"rt": 807,
		"stimulus": "<span style=\"font-size:30px; font-family: monospace\">o</span>",
		"response": " ",
		"trial": "exp-sent",
		"word": "o",
		"trial_type": "html-keyboard-response",
		"trial_index": 177,
		"time_elapsed": 264270,
		"internal_node_id": "0.0-3.0-1.136"
	},
	{
		"rt": 523,
		"stimulus": "<span style=\"font-size:30px; font-family: monospace\">evento.</span>",
		"response": " ",
		"trial": "exp-sent",
		"word": "evento.",
		"trial_type": "html-keyboard-response",
		"trial_index": 178,
		"time_elapsed": 265044,
		"internal_node_id": "0.0-3.0-1.137"
	},
	{
		"rt": null,
		"stimulus": "<span style= \"font-size:30px; font-family: monospace\">+</span>",
		"response": null,
		"trial_part": "fixation",
		"trial_type": "html-keyboard-response",
		"trial_index": 179,
		"time_elapsed": 266296,
		"internal_node_id": "0.0-3.0-0.138-0.138"
	},
	{
		"rt": 288,
		"stimulus": "<span style=\"font-size:30px; font-family: monospace\">A</span>",
		"response": " ",
		"trial": "exp-sent",
		"word": "A",
		"trial_type": "html-keyboard-response",
		"trial_index": 180,
		"time_elapsed": 266836,
		"internal_node_id": "0.0-3.0-1.138"
	},
	{
		"rt": 686,
		"stimulus": "<span style=\"font-size:30px; font-family: monospace\">médica</span>",
		"response": " ",
		"trial": "exp-sent",
		"word": "médica",
		"trial_type": "html-keyboard-response",
		"trial_index": 181,
		"time_elapsed": 267772,
		"internal_node_id": "0.0-3.0-1.139"
	},
	{
		"rt": 1464,
		"stimulus": "<span style=\"font-size:30px; font-family: monospace\">descobriu</span>",
		"response": " ",
		"trial": "exp-sent",
		"word": "descobriu",
		"trial_type": "html-keyboard-response",
		"trial_index": 182,
		"time_elapsed": 269487,
		"internal_node_id": "0.0-3.0-1.140"
	},
	{
		"rt": 766,
		"stimulus": "<span style=\"font-size:30px; font-family: monospace\">uma</span>",
		"response": " ",
		"trial": "exp-sent",
		"word": "uma",
		"trial_type": "html-keyboard-response",
		"trial_index": 183,
		"time_elapsed": 270506,
		"internal_node_id": "0.0-3.0-1.141"
	},
	{
		"rt": 619,
		"stimulus": "<span style=\"font-size:30px; font-family: monospace\">cura</span>",
		"response": " ",
		"trial": "exp-sent",
		"word": "cura",
		"trial_type": "html-keyboard-response",
		"trial_index": 184,
		"time_elapsed": 271377,
		"internal_node_id": "0.0-3.0-1.142"
	},
	{
		"rt": 594,
		"stimulus": "<span style=\"font-size:30px; font-family: monospace\">para</span>",
		"response": " ",
		"trial": "exp-sent",
		"word": "para",
		"trial_type": "html-keyboard-response",
		"trial_index": 185,
		"time_elapsed": 272223,
		"internal_node_id": "0.0-3.0-1.143"
	},
	{
		"rt": 830,
		"stimulus": "<span style=\"font-size:30px; font-family: monospace\">a</span>",
		"response": " ",
		"trial": "exp-sent",
		"word": "a",
		"trial_type": "html-keyboard-response",
		"trial_index": 186,
		"time_elapsed": 273305,
		"internal_node_id": "0.0-3.0-1.144"
	},
	{
		"rt": 650,
		"stimulus": "<span style=\"font-size:30px; font-family: monospace\">doença.</span>",
		"response": " ",
		"trial": "exp-sent",
		"word": "doença.",
		"trial_type": "html-keyboard-response",
		"trial_index": 187,
		"time_elapsed": 274206,
		"internal_node_id": "0.0-3.0-1.145"
	},
	{
		"rt": null,
		"stimulus": "<span style= \"font-size:30px; font-family: monospace\">+</span>",
		"response": null,
		"trial_part": "fixation",
		"trial_type": "html-keyboard-response",
		"trial_index": 188,
		"time_elapsed": 275458,
		"internal_node_id": "0.0-3.0-0.146-0.146"
	},
	{
		"rt": 287,
		"stimulus": "<span style=\"font-size:30px; font-family: monospace\">O</span>",
		"response": " ",
		"trial": "exp-sent",
		"word": "O",
		"trial_type": "html-keyboard-response",
		"trial_index": 189,
		"time_elapsed": 275997,
		"internal_node_id": "0.0-3.0-1.146"
	},
	{
		"rt": 930,
		"stimulus": "<span style=\"font-size:30px; font-family: monospace\">menino</span>",
		"response": " ",
		"trial": "exp-sent",
		"word": "menino",
		"trial_type": "html-keyboard-response",
		"trial_index": 190,
		"time_elapsed": 277178,
		"internal_node_id": "0.0-3.0-1.147"
	},
	{
		"rt": 857,
		"stimulus": "<span style=\"font-size:30px; font-family: monospace\">riscou</span>",
		"response": " ",
		"trial": "exp-sent",
		"word": "riscou",
		"trial_type": "html-keyboard-response",
		"trial_index": 191,
		"time_elapsed": 278286,
		"internal_node_id": "0.0-3.0-1.148"
	},
	{
		"rt": 582,
		"stimulus": "<span style=\"font-size:30px; font-family: monospace\">o</span>",
		"response": " ",
		"trial": "exp-sent",
		"word": "o",
		"trial_type": "html-keyboard-response",
		"trial_index": 192,
		"time_elapsed": 279121,
		"internal_node_id": "0.0-3.0-1.149"
	},
	{
		"rt": 1570,
		"stimulus": "<span style=\"font-size:30px; font-family: monospace\">caderno</span>",
		"response": " ",
		"trial": "exp-sent",
		"word": "caderno",
		"trial_type": "html-keyboard-response",
		"trial_index": 193,
		"time_elapsed": 280943,
		"internal_node_id": "0.0-3.0-1.150"
	},
	{
		"rt": 597,
		"stimulus": "<span style=\"font-size:30px; font-family: monospace\">com</span>",
		"response": " ",
		"trial": "exp-sent",
		"word": "com",
		"trial_type": "html-keyboard-response",
		"trial_index": 194,
		"time_elapsed": 281792,
		"internal_node_id": "0.0-3.0-1.151"
	},
	{
		"rt": 606,
		"stimulus": "<span style=\"font-size:30px; font-family: monospace\">a</span>",
		"response": " ",
		"trial": "exp-sent",
		"word": "a",
		"trial_type": "html-keyboard-response",
		"trial_index": 195,
		"time_elapsed": 282650,
		"internal_node_id": "0.0-3.0-1.152"
	},
	{
		"rt": 1774,
		"stimulus": "<span style=\"font-size:30px; font-family: monospace\">caneta.</span>",
		"response": " ",
		"trial": "comp",
		"word": "caneta.",
		"trial_type": "html-keyboard-response",
		"trial_index": 196,
		"time_elapsed": 284676,
		"internal_node_id": "0.0-3.0-1.153"
	},
	{
		"rt": 38044,
		"stimulus": "<span style=\"font-size:30px; font-family: monospace\">O menino riscou a parede com a caneta?</span>",
		"response": "n",
		"question": "O menino riscou a parede com a caneta?",
		"answer": "não",
		"trial": "comp",
		"trial_type": "html-keyboard-response",
		"trial_index": 197,
		"time_elapsed": 322971,
		"internal_node_id": "0.0-3.0-2.153-0.153",
		"accuracy": false
	},
	{
		"rt": null,
		"stimulus": "<span style= \"font-size:30px; font-family: monospace\">+</span>",
		"response": null,
		"trial_part": "fixation",
		"trial_type": "html-keyboard-response",
		"trial_index": 198,
		"time_elapsed": 324486,
		"internal_node_id": "0.0-3.0-0.154-0.154"
	},
	{
		"rt": 158,
		"stimulus": "<span style=\"font-size:30px; font-family: monospace\">Ele</span>",
		"response": " ",
		"trial": "exp-sent",
		"word": "Ele",
		"trial_type": "html-keyboard-response",
		"trial_index": 199,
		"time_elapsed": 324896,
		"internal_node_id": "0.0-3.0-1.154"
	},
	{
		"rt": 306,
		"stimulus": "<span style=\"font-size:30px; font-family: monospace\">é</span>",
		"response": " ",
		"trial": "exp-sent",
		"word": "é",
		"trial_type": "html-keyboard-response",
		"trial_index": 200,
		"time_elapsed": 325453,
		"internal_node_id": "0.0-3.0-1.155"
	},
	{
		"rt": 397,
		"stimulus": "<span style=\"font-size:30px; font-family: monospace\">um</span>",
		"response": " ",
		"trial": "exp-sent",
		"word": "um",
		"trial_type": "html-keyboard-response",
		"trial_index": 201,
		"time_elapsed": 326103,
		"internal_node_id": "0.0-3.0-1.156"
	},
	{
		"rt": 346,
		"stimulus": "<span style=\"font-size:30px; font-family: monospace\">pai</span>",
		"response": " ",
		"trial": "exp-sent",
		"word": "pai",
		"trial_type": "html-keyboard-response",
		"trial_index": 202,
		"time_elapsed": 326700,
		"internal_node_id": "0.0-3.0-1.157"
	},
	{
		"rt": 456,
		"stimulus": "<span style=\"font-size:30px; font-family: monospace\">ausente</span>",
		"response": " ",
		"trial": "exp-sent",
		"word": "ausente",
		"trial_type": "html-keyboard-response",
		"trial_index": 203,
		"time_elapsed": 327407,
		"internal_node_id": "0.0-3.0-1.158"
	},
	{
		"rt": 400,
		"stimulus": "<span style=\"font-size:30px; font-family: monospace\">e</span>",
		"response": " ",
		"trial": "exp-sent",
		"word": "e",
		"trial_type": "html-keyboard-response",
		"trial_index": 204,
		"time_elapsed": 328058,
		"internal_node_id": "0.0-3.0-1.159"
	},
	{
		"rt": 408,
		"stimulus": "<span style=\"font-size:30px; font-family: monospace\">muito</span>",
		"response": " ",
		"trial": "exp-sent",
		"word": "muito",
		"trial_type": "html-keyboard-response",
		"trial_index": 205,
		"time_elapsed": 328718,
		"internal_node_id": "0.0-3.0-1.160"
	},
	{
		"rt": 1697,
		"stimulus": "<span style=\"font-size:30px; font-family: monospace\">fofoqueiro.</span>",
		"response": " ",
		"trial": "exp-sent",
		"word": "fofoqueiro.",
		"trial_type": "html-keyboard-response",
		"trial_index": 206,
		"time_elapsed": 330666,
		"internal_node_id": "0.0-3.0-1.161"
	},
	{
		"rt": null,
		"stimulus": "<span style= \"font-size:30px; font-family: monospace\">+</span>",
		"response": null,
		"trial_part": "fixation",
		"trial_type": "html-keyboard-response",
		"trial_index": 207,
		"time_elapsed": 331923,
		"internal_node_id": "0.0-3.0-0.162-0.162"
	},
	{
		"rt": 23,
		"stimulus": "<span style=\"font-size:30px; font-family: monospace\">O</span>",
		"response": " ",
		"trial": "exp-sent",
		"word": "O",
		"trial_type": "html-keyboard-response",
		"trial_index": 208,
		"time_elapsed": 332198,
		"internal_node_id": "0.0-3.0-1.162"
	},
	{
		"rt": 510,
		"stimulus": "<span style=\"font-size:30px; font-family: monospace\">filho</span>",
		"response": " ",
		"trial": "exp-sent",
		"word": "filho",
		"trial_type": "html-keyboard-response",
		"trial_index": 209,
		"time_elapsed": 332960,
		"internal_node_id": "0.0-3.0-1.163"
	},
	{
		"rt": 781,
		"stimulus": "<span style=\"font-size:30px; font-family: monospace\">lavou</span>",
		"response": " ",
		"trial": "exp-sent",
		"word": "lavou",
		"trial_type": "html-keyboard-response",
		"trial_index": 210,
		"time_elapsed": 333992,
		"internal_node_id": "0.0-3.0-1.164"
	},
	{
		"rt": 2315,
		"stimulus": "<span style=\"font-size:30px; font-family: monospace\">a</span>",
		"response": " ",
		"trial": "exp-sent",
		"word": "a",
		"trial_type": "html-keyboard-response",
		"trial_index": 211,
		"time_elapsed": 336560,
		"internal_node_id": "0.0-3.0-1.165"
	},
	{
		"rt": 1076,
		"stimulus": "<span style=\"font-size:30px; font-family: monospace\">roupa</span>",
		"response": " ",
		"trial": "exp-sent",
		"word": "roupa",
		"trial_type": "html-keyboard-response",
		"trial_index": 212,
		"time_elapsed": 337888,
		"internal_node_id": "0.0-3.0-1.166"
	},
	{
		"rt": 876,
		"stimulus": "<span style=\"font-size:30px; font-family: monospace\">sem</span>",
		"response": " ",
		"trial": "exp-sent",
		"word": "sem",
		"trial_type": "html-keyboard-response",
		"trial_index": 213,
		"time_elapsed": 339016,
		"internal_node_id": "0.0-3.0-1.167"
	},
	{
		"rt": 881,
		"stimulus": "<span style=\"font-size:30px; font-family: monospace\">nenhuma</span>",
		"response": " ",
		"trial": "exp-sent",
		"word": "nenhuma",
		"trial_type": "html-keyboard-response",
		"trial_index": 214,
		"time_elapsed": 340148,
		"internal_node_id": "0.0-3.0-1.168"
	},
	{
		"rt": 810,
		"stimulus": "<span style=\"font-size:30px; font-family: monospace\">ajuda.</span>",
		"response": " ",
		"trial": "exp-sent",
		"word": "ajuda.",
		"trial_type": "html-keyboard-response",
		"trial_index": 215,
		"time_elapsed": 341210,
		"internal_node_id": "0.0-3.0-1.169"
	},
	{
		"rt": null,
		"stimulus": "<span style= \"font-size:30px; font-family: monospace\">+</span>",
		"response": null,
		"trial_part": "fixation",
		"trial_type": "html-keyboard-response",
		"trial_index": 216,
		"time_elapsed": 342462,
		"internal_node_id": "0.0-3.0-0.170-0.170"
	},
	{
		"rt": 349,
		"stimulus": "<span style=\"font-size:30px; font-family: monospace\">O</span>",
		"response": " ",
		"trial": "exp-sent",
		"word": "O",
		"trial_type": "html-keyboard-response",
		"trial_index": 217,
		"time_elapsed": 343063,
		"internal_node_id": "0.0-3.0-1.170"
	},
	{
		"rt": 546,
		"stimulus": "<span style=\"font-size:30px; font-family: monospace\">menino</span>",
		"response": " ",
		"trial": "exp-sent",
		"word": "menino",
		"trial_type": "html-keyboard-response",
		"trial_index": 218,
		"time_elapsed": 343861,
		"internal_node_id": "0.0-3.0-1.171"
	},
	{
		"rt": 629,
		"stimulus": "<span style=\"font-size:30px; font-family: monospace\">quebrou</span>",
		"response": " ",
		"trial": "exp-sent",
		"word": "quebrou",
		"trial_type": "html-keyboard-response",
		"trial_index": 219,
		"time_elapsed": 344742,
		"internal_node_id": "0.0-3.0-1.172"
	},
	{
		"rt": 441,
		"stimulus": "<span style=\"font-size:30px; font-family: monospace\">a</span>",
		"response": " ",
		"trial": "exp-sent",
		"word": "a",
		"trial_type": "html-keyboard-response",
		"trial_index": 220,
		"time_elapsed": 345434,
		"internal_node_id": "0.0-3.0-1.173"
	},
	{
		"rt": 484,
		"stimulus": "<span style=\"font-size:30px; font-family: monospace\">perna</span>",
		"response": " ",
		"trial": "exp-sent",
		"word": "perna",
		"trial_type": "html-keyboard-response",
		"trial_index": 221,
		"time_elapsed": 346170,
		"internal_node_id": "0.0-3.0-1.174"
	},
	{
		"rt": 473,
		"stimulus": "<span style=\"font-size:30px; font-family: monospace\">nos</span>",
		"response": " ",
		"trial": "exp-sent",
		"word": "nos",
		"trial_type": "html-keyboard-response",
		"trial_index": 222,
		"time_elapsed": 346909,
		"internal_node_id": "0.0-3.0-1.175"
	},
	{
		"rt": 436,
		"stimulus": "<span style=\"font-size:30px; font-family: monospace\">esportes.</span>",
		"response": " ",
		"trial": "exp-sent",
		"word": "esportes.",
		"trial_type": "html-keyboard-response",
		"trial_index": 223,
		"time_elapsed": 347596,
		"internal_node_id": "0.0-3.0-1.176"
	},
	{
		"rt": null,
		"stimulus": "<span style= \"font-size:30px; font-family: monospace\">+</span>",
		"response": null,
		"trial_part": "fixation",
		"trial_type": "html-keyboard-response",
		"trial_index": 224,
		"time_elapsed": 348850,
		"internal_node_id": "0.0-3.0-0.177-0.177"
	},
	{
		"rt": 338,
		"stimulus": "<span style=\"font-size:30px; font-family: monospace\">Ela</span>",
		"response": " ",
		"trial": "exp-sent",
		"word": "Ela",
		"trial_type": "html-keyboard-response",
		"trial_index": 225,
		"time_elapsed": 349440,
		"internal_node_id": "0.0-3.0-1.177"
	},
	{
		"rt": 444,
		"stimulus": "<span style=\"font-size:30px; font-family: monospace\">brincou</span>",
		"response": " ",
		"trial": "exp-sent",
		"word": "brincou",
		"trial_type": "html-keyboard-response",
		"trial_index": 226,
		"time_elapsed": 350136,
		"internal_node_id": "0.0-3.0-1.178"
	},
	{
		"rt": 461,
		"stimulus": "<span style=\"font-size:30px; font-family: monospace\">com</span>",
		"response": " ",
		"trial": "exp-sent",
		"word": "com",
		"trial_type": "html-keyboard-response",
		"trial_index": 227,
		"time_elapsed": 350848,
		"internal_node_id": "0.0-3.0-1.179"
	},
	{
		"rt": 423,
		"stimulus": "<span style=\"font-size:30px; font-family: monospace\">uma</span>",
		"response": " ",
		"trial": "exp-sent",
		"word": "uma",
		"trial_type": "html-keyboard-response",
		"trial_index": 228,
		"time_elapsed": 351523,
		"internal_node_id": "0.0-3.0-1.180"
	},
	{
		"rt": 440,
		"stimulus": "<span style=\"font-size:30px; font-family: monospace\">menina</span>",
		"response": " ",
		"trial": "exp-sent",
		"word": "menina",
		"trial_type": "html-keyboard-response",
		"trial_index": 229,
		"time_elapsed": 352229,
		"internal_node_id": "0.0-3.0-1.181"
	},
	{
		"rt": 413,
		"stimulus": "<span style=\"font-size:30px; font-family: monospace\">da</span>",
		"response": " ",
		"trial": "exp-sent",
		"word": "da",
		"trial_type": "html-keyboard-response",
		"trial_index": 230,
		"time_elapsed": 352894,
		"internal_node_id": "0.0-3.0-1.182"
	},
	{
		"rt": 418,
		"stimulus": "<span style=\"font-size:30px; font-family: monospace\">turma.</span>",
		"response": " ",
		"trial": "exp-sent",
		"word": "turma.",
		"trial_type": "html-keyboard-response",
		"trial_index": 231,
		"time_elapsed": 353573,
		"internal_node_id": "0.0-3.0-1.183"
	},
	{
		"rt": null,
		"stimulus": "<span style= \"font-size:30px; font-family: monospace\">+</span>",
		"response": null,
		"trial_part": "fixation",
		"trial_type": "html-keyboard-response",
		"trial_index": 232,
		"time_elapsed": 354825,
		"internal_node_id": "0.0-3.0-0.184-0.184"
	},
	{
		"rt": 466,
		"stimulus": "<span style=\"font-size:30px; font-family: monospace\">Ele</span>",
		"response": " ",
		"trial": "exp-sent",
		"word": "Ele",
		"trial_type": "html-keyboard-response",
		"trial_index": 233,
		"time_elapsed": 355542,
		"internal_node_id": "0.0-3.0-1.184"
	},
	{
		"rt": 427,
		"stimulus": "<span style=\"font-size:30px; font-family: monospace\">esteve</span>",
		"response": " ",
		"trial": "exp-sent",
		"word": "esteve",
		"trial_type": "html-keyboard-response",
		"trial_index": 234,
		"time_elapsed": 356221,
		"internal_node_id": "0.0-3.0-1.185"
	},
	{
		"rt": 979,
		"stimulus": "<span style=\"font-size:30px; font-family: monospace\">no</span>",
		"response": " ",
		"trial": "exp-sent",
		"word": "no",
		"trial_type": "html-keyboard-response",
		"trial_index": 235,
		"time_elapsed": 357462,
		"internal_node_id": "0.0-3.0-1.186"
	},
	{
		"rt": 1362,
		"stimulus": "<span style=\"font-size:30px; font-family: monospace\">escritório</span>",
		"response": " ",
		"trial": "exp-sent",
		"word": "escritório",
		"trial_type": "html-keyboard-response",
		"trial_index": 236,
		"time_elapsed": 359076,
		"internal_node_id": "0.0-3.0-1.187"
	},
	{
		"rt": 549,
		"stimulus": "<span style=\"font-size:30px; font-family: monospace\">o</span>",
		"response": " ",
		"trial": "exp-sent",
		"word": "o",
		"trial_type": "html-keyboard-response",
		"trial_index": 237,
		"time_elapsed": 359884,
		"internal_node_id": "0.0-3.0-1.188"
	},
	{
		"rt": 576,
		"stimulus": "<span style=\"font-size:30px; font-family: monospace\">dia</span>",
		"response": " ",
		"trial": "exp-sent",
		"word": "dia",
		"trial_type": "html-keyboard-response",
		"trial_index": 238,
		"time_elapsed": 360713,
		"internal_node_id": "0.0-3.0-1.189"
	},
	{
		"rt": 621,
		"stimulus": "<span style=\"font-size:30px; font-family: monospace\">inteiro.</span>",
		"response": " ",
		"trial": "comp",
		"word": "inteiro.",
		"trial_type": "html-keyboard-response",
		"trial_index": 239,
		"time_elapsed": 361586,
		"internal_node_id": "0.0-3.0-1.190"
	},
	{
		"rt": 8463,
		"stimulus": "<span style=\"font-size:30px; font-family: monospace\">Ele esteve no parque o dia inteiro?</span>",
		"response": "s",
		"question": "Ele esteve no parque o dia inteiro?",
		"answer": "não",
		"trial": "comp",
		"trial_type": "html-keyboard-response",
		"trial_index": 240,
		"time_elapsed": 370301,
		"internal_node_id": "0.0-3.0-2.190-0.190",
		"accuracy": false
	},
	{
		"rt": null,
		"stimulus": "<span style= \"font-size:30px; font-family: monospace\">+</span>",
		"response": null,
		"trial_part": "fixation",
		"trial_type": "html-keyboard-response",
		"trial_index": 241,
		"time_elapsed": 371803,
		"internal_node_id": "0.0-3.0-0.191-0.191"
	},
	{
		"rt": 191,
		"stimulus": "<span style=\"font-size:30px; font-family: monospace\">Eu</span>",
		"response": " ",
		"trial": "exp-sent",
		"word": "Eu",
		"trial_type": "html-keyboard-response",
		"trial_index": 242,
		"time_elapsed": 372245,
		"internal_node_id": "0.0-3.0-1.191"
	},
	{
		"rt": 541,
		"stimulus": "<span style=\"font-size:30px; font-family: monospace\">gosto</span>",
		"response": " ",
		"trial": "exp-sent",
		"word": "gosto",
		"trial_type": "html-keyboard-response",
		"trial_index": 243,
		"time_elapsed": 373038,
		"internal_node_id": "0.0-3.0-1.192"
	},
	{
		"rt": 426,
		"stimulus": "<span style=\"font-size:30px; font-family: monospace\">de</span>",
		"response": " ",
		"trial": "exp-sent",
		"word": "de",
		"trial_type": "html-keyboard-response",
		"trial_index": 244,
		"time_elapsed": 373716,
		"internal_node_id": "0.0-3.0-1.193"
	},
	{
		"rt": 1236,
		"stimulus": "<span style=\"font-size:30px; font-family: monospace\">molho</span>",
		"response": " ",
		"trial": "exp-sent",
		"word": "molho",
		"trial_type": "html-keyboard-response",
		"trial_index": 245,
		"time_elapsed": 375204,
		"internal_node_id": "0.0-3.0-1.194"
	},
	{
		"rt": 464,
		"stimulus": "<span style=\"font-size:30px; font-family: monospace\">picante</span>",
		"response": " ",
		"trial": "exp-sent",
		"word": "picante",
		"trial_type": "html-keyboard-response",
		"trial_index": 246,
		"time_elapsed": 375920,
		"internal_node_id": "0.0-3.0-1.195"
	},
	{
		"rt": 418,
		"stimulus": "<span style=\"font-size:30px; font-family: monospace\">nas</span>",
		"response": " ",
		"trial": "exp-sent",
		"word": "nas",
		"trial_type": "html-keyboard-response",
		"trial_index": 247,
		"time_elapsed": 376590,
		"internal_node_id": "0.0-3.0-1.196"
	},
	{
		"rt": 460,
		"stimulus": "<span style=\"font-size:30px; font-family: monospace\">batatas.</span>",
		"response": " ",
		"trial": "exp-sent",
		"word": "batatas.",
		"trial_type": "html-keyboard-response",
		"trial_index": 248,
		"time_elapsed": 377300,
		"internal_node_id": "0.0-3.0-1.197"
	},
	{
		"rt": null,
		"stimulus": "<span style= \"font-size:30px; font-family: monospace\">+</span>",
		"response": null,
		"trial_part": "fixation",
		"trial_type": "html-keyboard-response",
		"trial_index": 249,
		"time_elapsed": 378553,
		"internal_node_id": "0.0-3.0-0.198-0.198"
	},
	{
		"rt": 484,
		"stimulus": "<span style=\"font-size:30px; font-family: monospace\">As</span>",
		"response": " ",
		"trial": "exp-sent",
		"word": "As",
		"trial_type": "html-keyboard-response",
		"trial_index": 250,
		"time_elapsed": 379288,
		"internal_node_id": "0.0-3.0-1.198"
	},
	{
		"rt": 252,
		"stimulus": "<span style=\"font-size:30px; font-family: monospace\">pessoas</span>",
		"response": " ",
		"trial": "exp-sent",
		"word": "pessoas",
		"trial_type": "html-keyboard-response",
		"trial_index": 251,
		"time_elapsed": 379791,
		"internal_node_id": "0.0-3.0-1.199"
	},
	{
		"rt": 366,
		"stimulus": "<span style=\"font-size:30px; font-family: monospace\">têm</span>",
		"response": " ",
		"trial": "exp-sent",
		"word": "têm",
		"trial_type": "html-keyboard-response",
		"trial_index": 252,
		"time_elapsed": 380409,
		"internal_node_id": "0.0-3.0-1.200"
	},
	{
		"rt": 994,
		"stimulus": "<span style=\"font-size:30px; font-family: monospace\">sua</span>",
		"response": " ",
		"trial": "exp-sent",
		"word": "sua",
		"trial_type": "html-keyboard-response",
		"trial_index": 253,
		"time_elapsed": 381655,
		"internal_node_id": "0.0-3.0-1.201"
	},
	{
		"rt": 1024,
		"stimulus": "<span style=\"font-size:30px; font-family: monospace\">liberdade</span>",
		"response": " ",
		"trial": "exp-sent",
		"word": "liberdade",
		"trial_type": "html-keyboard-response",
		"trial_index": 254,
		"time_elapsed": 382930,
		"internal_node_id": "0.0-3.0-1.202"
	},
	{
		"rt": 435,
		"stimulus": "<span style=\"font-size:30px; font-family: monospace\">até</span>",
		"response": " ",
		"trial": "exp-sent",
		"word": "até",
		"trial_type": "html-keyboard-response",
		"trial_index": 255,
		"time_elapsed": 383628,
		"internal_node_id": "0.0-3.0-1.203"
	},
	{
		"rt": 462,
		"stimulus": "<span style=\"font-size:30px; font-family: monospace\">certo</span>",
		"response": " ",
		"trial": "exp-sent",
		"word": "certo",
		"trial_type": "html-keyboard-response",
		"trial_index": 256,
		"time_elapsed": 384342,
		"internal_node_id": "0.0-3.0-1.204"
	},
	{
		"rt": 504,
		"stimulus": "<span style=\"font-size:30px; font-family: monospace\">ponto.</span>",
		"response": " ",
		"trial": "exp-sent",
		"word": "ponto.",
		"trial_type": "html-keyboard-response",
		"trial_index": 257,
		"time_elapsed": 385097,
		"internal_node_id": "0.0-3.0-1.205"
	},
	{
		"rt": null,
		"stimulus": "<span style= \"font-size:30px; font-family: monospace\">+</span>",
		"response": null,
		"trial_part": "fixation",
		"trial_type": "html-keyboard-response",
		"trial_index": 258,
		"time_elapsed": 386357,
		"internal_node_id": "0.0-3.0-0.206-0.206"
	},
	{
		"rt": 322,
		"stimulus": "<span style=\"font-size:30px; font-family: monospace\">A</span>",
		"response": " ",
		"trial": "exp-sent",
		"word": "A",
		"trial_type": "html-keyboard-response",
		"trial_index": 259,
		"time_elapsed": 386930,
		"internal_node_id": "0.0-3.0-1.206"
	},
	{
		"rt": 510,
		"stimulus": "<span style=\"font-size:30px; font-family: monospace\">empresa</span>",
		"response": " ",
		"trial": "exp-sent",
		"word": "empresa",
		"trial_type": "html-keyboard-response",
		"trial_index": 260,
		"time_elapsed": 387691,
		"internal_node_id": "0.0-3.0-1.207"
	},
	{
		"rt": 749,
		"stimulus": "<span style=\"font-size:30px; font-family: monospace\">enviou</span>",
		"response": " ",
		"trial": "exp-sent",
		"word": "enviou",
		"trial_type": "html-keyboard-response",
		"trial_index": 261,
		"time_elapsed": 388692,
		"internal_node_id": "0.0-3.0-1.208"
	},
	{
		"rt": 728,
		"stimulus": "<span style=\"font-size:30px; font-family: monospace\">o</span>",
		"response": " ",
		"trial": "exp-sent",
		"word": "o",
		"trial_type": "html-keyboard-response",
		"trial_index": 262,
		"time_elapsed": 389671,
		"internal_node_id": "0.0-3.0-1.209"
	},
	{
		"rt": 804,
		"stimulus": "<span style=\"font-size:30px; font-family: monospace\">aviso</span>",
		"response": " ",
		"trial": "exp-sent",
		"word": "aviso",
		"trial_type": "html-keyboard-response",
		"trial_index": 263,
		"time_elapsed": 390727,
		"internal_node_id": "0.0-3.0-1.210"
	},
	{
		"rt": 1231,
		"stimulus": "<span style=\"font-size:30px; font-family: monospace\">hoje</span>",
		"response": " ",
		"trial": "exp-sent",
		"word": "hoje",
		"trial_type": "html-keyboard-response",
		"trial_index": 264,
		"time_elapsed": 392211,
		"internal_node_id": "0.0-3.0-1.211"
	},
	{
		"rt": 531,
		"stimulus": "<span style=\"font-size:30px; font-family: monospace\">de</span>",
		"response": " ",
		"trial": "exp-sent",
		"word": "de",
		"trial_type": "html-keyboard-response",
		"trial_index": 265,
		"time_elapsed": 392993,
		"internal_node_id": "0.0-3.0-1.212"
	},
	{
		"rt": 675,
		"stimulus": "<span style=\"font-size:30px; font-family: monospace\">tarde.</span>",
		"response": " ",
		"trial": "exp-sent",
		"word": "tarde.",
		"trial_type": "html-keyboard-response",
		"trial_index": 266,
		"time_elapsed": 393919,
		"internal_node_id": "0.0-3.0-1.213"
	},
	{
		"rt": null,
		"stimulus": "<span style= \"font-size:30px; font-family: monospace\">+</span>",
		"response": null,
		"trial_part": "fixation",
		"trial_type": "html-keyboard-response",
		"trial_index": 267,
		"time_elapsed": 395171,
		"internal_node_id": "0.0-3.0-0.214-0.214"
	},
	{
		"rt": 379,
		"stimulus": "<span style=\"font-size:30px; font-family: monospace\">A</span>",
		"response": " ",
		"trial": "exp-sent",
		"word": "A",
		"trial_type": "html-keyboard-response",
		"trial_index": 268,
		"time_elapsed": 395801,
		"internal_node_id": "0.0-3.0-1.214"
	},
	{
		"rt": 418,
		"stimulus": "<span style=\"font-size:30px; font-family: monospace\">loja</span>",
		"response": " ",
		"trial": "exp-sent",
		"word": "loja",
		"trial_type": "html-keyboard-response",
		"trial_index": 269,
		"time_elapsed": 396472,
		"internal_node_id": "0.0-3.0-1.215"
	},
	{
		"rt": 636,
		"stimulus": "<span style=\"font-size:30px; font-family: monospace\">vende</span>",
		"response": " ",
		"trial": "exp-sent",
		"word": "vende",
		"trial_type": "html-keyboard-response",
		"trial_index": 270,
		"time_elapsed": 397360,
		"internal_node_id": "0.0-3.0-1.216"
	},
	{
		"rt": 476,
		"stimulus": "<span style=\"font-size:30px; font-family: monospace\">tanto</span>",
		"response": " ",
		"trial": "exp-sent",
		"word": "tanto",
		"trial_type": "html-keyboard-response",
		"trial_index": 271,
		"time_elapsed": 398087,
		"internal_node_id": "0.0-3.0-1.217"
	},
	{
		"rt": 605,
		"stimulus": "<span style=\"font-size:30px; font-family: monospace\">frituras</span>",
		"response": " ",
		"trial": "exp-sent",
		"word": "frituras",
		"trial_type": "html-keyboard-response",
		"trial_index": 272,
		"time_elapsed": 398949,
		"internal_node_id": "0.0-3.0-1.218"
	},
	{
		"rt": 478,
		"stimulus": "<span style=\"font-size:30px; font-family: monospace\">quanto</span>",
		"response": " ",
		"trial": "exp-sent",
		"word": "quanto",
		"trial_type": "html-keyboard-response",
		"trial_index": 273,
		"time_elapsed": 399679,
		"internal_node_id": "0.0-3.0-1.219"
	},
	{
		"rt": 496,
		"stimulus": "<span style=\"font-size:30px; font-family: monospace\">comidas</span>",
		"response": " ",
		"trial": "exp-sent",
		"word": "comidas",
		"trial_type": "html-keyboard-response",
		"trial_index": 274,
		"time_elapsed": 400427,
		"internal_node_id": "0.0-3.0-1.220"
	},
	{
		"rt": 499,
		"stimulus": "<span style=\"font-size:30px; font-family: monospace\">leves.</span>",
		"response": " ",
		"trial": "exp-sent",
		"word": "leves.",
		"trial_type": "html-keyboard-response",
		"trial_index": 275,
		"time_elapsed": 401178,
		"internal_node_id": "0.0-3.0-1.221"
	},
	{
		"rt": null,
		"stimulus": "<span style= \"font-size:30px; font-family: monospace\">+</span>",
		"response": null,
		"trial_part": "fixation",
		"trial_type": "html-keyboard-response",
		"trial_index": 276,
		"time_elapsed": 402431,
		"internal_node_id": "0.0-3.0-0.222-0.222"
	},
	{
		"rt": 881,
		"stimulus": "<span style=\"font-size:30px; font-family: monospace\">As</span>",
		"response": " ",
		"trial": "exp-sent",
		"word": "As",
		"trial_type": "html-keyboard-response",
		"trial_index": 277,
		"time_elapsed": 403564,
		"internal_node_id": "0.0-3.0-1.222"
	},
	{
		"rt": 477,
		"stimulus": "<span style=\"font-size:30px; font-family: monospace\">cadeiras</span>",
		"response": " ",
		"trial": "exp-sent",
		"word": "cadeiras",
		"trial_type": "html-keyboard-response",
		"trial_index": 278,
		"time_elapsed": 404293,
		"internal_node_id": "0.0-3.0-1.223"
	},
	{
		"rt": 506,
		"stimulus": "<span style=\"font-size:30px; font-family: monospace\">azuis</span>",
		"response": " ",
		"trial": "exp-sent",
		"word": "azuis",
		"trial_type": "html-keyboard-response",
		"trial_index": 279,
		"time_elapsed": 405050,
		"internal_node_id": "0.0-3.0-1.224"
	},
	{
		"rt": 508,
		"stimulus": "<span style=\"font-size:30px; font-family: monospace\">da</span>",
		"response": " ",
		"trial": "exp-sent",
		"word": "da",
		"trial_type": "html-keyboard-response",
		"trial_index": 280,
		"time_elapsed": 405810,
		"internal_node_id": "0.0-3.0-1.225"
	},
	{
		"rt": 471,
		"stimulus": "<span style=\"font-size:30px; font-family: monospace\">sala</span>",
		"response": " ",
		"trial": "exp-sent",
		"word": "sala",
		"trial_type": "html-keyboard-response",
		"trial_index": 281,
		"time_elapsed": 406533,
		"internal_node_id": "0.0-3.0-1.226"
	},
	{
		"rt": 418,
		"stimulus": "<span style=\"font-size:30px; font-family: monospace\">eram</span>",
		"response": " ",
		"trial": "exp-sent",
		"word": "eram",
		"trial_type": "html-keyboard-response",
		"trial_index": 282,
		"time_elapsed": 407204,
		"internal_node_id": "0.0-3.0-1.227"
	},
	{
		"rt": 434,
		"stimulus": "<span style=\"font-size:30px; font-family: monospace\">da</span>",
		"response": " ",
		"trial": "exp-sent",
		"word": "da",
		"trial_type": "html-keyboard-response",
		"trial_index": 283,
		"time_elapsed": 407890,
		"internal_node_id": "0.0-3.0-1.228"
	},
	{
		"rt": 513,
		"stimulus": "<span style=\"font-size:30px; font-family: monospace\">minha</span>",
		"response": " ",
		"trial": "exp-sent",
		"word": "minha",
		"trial_type": "html-keyboard-response",
		"trial_index": 284,
		"time_elapsed": 408653,
		"internal_node_id": "0.0-3.0-1.229"
	},
	{
		"rt": 432,
		"stimulus": "<span style=\"font-size:30px; font-family: monospace\">vó.</span>",
		"response": " ",
		"trial": "comp",
		"word": "vó.",
		"trial_type": "html-keyboard-response",
		"trial_index": 285,
		"time_elapsed": 409337,
		"internal_node_id": "0.0-3.0-1.230"
	},
	{
		"rt": 5288,
		"stimulus": "<span style=\"font-size:30px; font-family: monospace\">As cadeiras eram da avó?</span>",
		"response": "n",
		"question": "As cadeiras eram da avó?",
		"answer": "sim",
		"trial": "comp",
		"trial_type": "html-keyboard-response",
		"trial_index": 286,
		"time_elapsed": 414877,
		"internal_node_id": "0.0-3.0-2.230-0.230",
		"accuracy": false
	},
	{
		"rt": null,
		"stimulus": "<span style= \"font-size:30px; font-family: monospace\">+</span>",
		"response": null,
		"trial_part": "fixation",
		"trial_type": "html-keyboard-response",
		"trial_index": 287,
		"time_elapsed": 416391,
		"internal_node_id": "0.0-3.0-0.231-0.231"
	},
	{
		"rt": 550,
		"stimulus": "<span style=\"font-size:30px; font-family: monospace\">A</span>",
		"response": " ",
		"trial": "exp-sent",
		"word": "A",
		"trial_type": "html-keyboard-response",
		"trial_index": 288,
		"time_elapsed": 417192,
		"internal_node_id": "0.0-3.0-1.231"
	},
	{
		"rt": 469,
		"stimulus": "<span style=\"font-size:30px; font-family: monospace\">força</span>",
		"response": " ",
		"trial": "exp-sent",
		"word": "força",
		"trial_type": "html-keyboard-response",
		"trial_index": 289,
		"time_elapsed": 417912,
		"internal_node_id": "0.0-3.0-1.232"
	},
	{
		"rt": 593,
		"stimulus": "<span style=\"font-size:30px; font-family: monospace\">d'água</span>",
		"response": " ",
		"trial": "exp-sent",
		"word": "d'água",
		"trial_type": "html-keyboard-response",
		"trial_index": 290,
		"time_elapsed": 418758,
		"internal_node_id": "0.0-3.0-1.233"
	},
	{
		"rt": 540,
		"stimulus": "<span style=\"font-size:30px; font-family: monospace\">estava</span>",
		"response": " ",
		"trial": "exp-sent",
		"word": "estava",
		"trial_type": "html-keyboard-response",
		"trial_index": 291,
		"time_elapsed": 419550,
		"internal_node_id": "0.0-3.0-1.234"
	},
	{
		"rt": 584,
		"stimulus": "<span style=\"font-size:30px; font-family: monospace\">normal</span>",
		"response": " ",
		"trial": "exp-sent",
		"word": "normal",
		"trial_type": "html-keyboard-response",
		"trial_index": 292,
		"time_elapsed": 420386,
		"internal_node_id": "0.0-3.0-1.235"
	},
	{
		"rt": 436,
		"stimulus": "<span style=\"font-size:30px; font-family: monospace\">naquele</span>",
		"response": " ",
		"trial": "exp-sent",
		"word": "naquele",
		"trial_type": "html-keyboard-response",
		"trial_index": 293,
		"time_elapsed": 421072,
		"internal_node_id": "0.0-3.0-1.236"
	},
	{
		"rt": 497,
		"stimulus": "<span style=\"font-size:30px; font-family: monospace\">dia.</span>",
		"response": " ",
		"trial": "exp-sent",
		"word": "dia.",
		"trial_type": "html-keyboard-response",
		"trial_index": 294,
		"time_elapsed": 421821,
		"internal_node_id": "0.0-3.0-1.237"
	},
	{
		"rt": null,
		"stimulus": "<span style= \"font-size:30px; font-family: monospace\">+</span>",
		"response": null,
		"trial_part": "fixation",
		"trial_type": "html-keyboard-response",
		"trial_index": 295,
		"time_elapsed": 423074,
		"internal_node_id": "0.0-3.0-0.238-0.238"
	},
	{
		"rt": 486,
		"stimulus": "<span style=\"font-size:30px; font-family: monospace\">A</span>",
		"response": " ",
		"trial": "exp-sent",
		"word": "A",
		"trial_type": "html-keyboard-response",
		"trial_index": 296,
		"time_elapsed": 423813,
		"internal_node_id": "0.0-3.0-1.238"
	},
	{
		"rt": 419,
		"stimulus": "<span style=\"font-size:30px; font-family: monospace\">médica</span>",
		"response": " ",
		"trial": "exp-sent",
		"word": "médica",
		"trial_type": "html-keyboard-response",
		"trial_index": 297,
		"time_elapsed": 424484,
		"internal_node_id": "0.0-3.0-1.239"
	},
	{
		"rt": 403,
		"stimulus": "<span style=\"font-size:30px; font-family: monospace\">ofereceu</span>",
		"response": " ",
		"trial": "exp-sent",
		"word": "ofereceu",
		"trial_type": "html-keyboard-response",
		"trial_index": 298,
		"time_elapsed": 425145,
		"internal_node_id": "0.0-3.0-1.240"
	},
	{
		"rt": 423,
		"stimulus": "<span style=\"font-size:30px; font-family: monospace\">a</span>",
		"response": " ",
		"trial": "exp-sent",
		"word": "a",
		"trial_type": "html-keyboard-response",
		"trial_index": 299,
		"time_elapsed": 425820,
		"internal_node_id": "0.0-3.0-1.241"
	},
	{
		"rt": 483,
		"stimulus": "<span style=\"font-size:30px; font-family: monospace\">pomada</span>",
		"response": " ",
		"trial": "exp-sent",
		"word": "pomada",
		"trial_type": "html-keyboard-response",
		"trial_index": 300,
		"time_elapsed": 426555,
		"internal_node_id": "0.0-3.0-1.242"
	},
	{
		"rt": 545,
		"stimulus": "<span style=\"font-size:30px; font-family: monospace\">para</span>",
		"response": " ",
		"trial": "exp-sent",
		"word": "para",
		"trial_type": "html-keyboard-response",
		"trial_index": 301,
		"time_elapsed": 427352,
		"internal_node_id": "0.0-3.0-1.243"
	},
	{
		"rt": 523,
		"stimulus": "<span style=\"font-size:30px; font-family: monospace\">o</span>",
		"response": " ",
		"trial": "exp-sent",
		"word": "o",
		"trial_type": "html-keyboard-response",
		"trial_index": 302,
		"time_elapsed": 428126,
		"internal_node_id": "0.0-3.0-1.244"
	},
	{
		"rt": 485,
		"stimulus": "<span style=\"font-size:30px; font-family: monospace\">avô.</span>",
		"response": " ",
		"trial": "exp-sent",
		"word": "avô.",
		"trial_type": "html-keyboard-response",
		"trial_index": 303,
		"time_elapsed": 428864,
		"internal_node_id": "0.0-3.0-1.245"
	},
	{
		"rt": null,
		"stimulus": "<span style= \"font-size:30px; font-family: monospace\">+</span>",
		"response": null,
		"trial_part": "fixation",
		"trial_type": "html-keyboard-response",
		"trial_index": 304,
		"time_elapsed": 430126,
		"internal_node_id": "0.0-3.0-0.246-0.246"
	},
	{
		"rt": 200,
		"stimulus": "<span style=\"font-size:30px; font-family: monospace\">Ele</span>",
		"response": " ",
		"trial": "exp-sent",
		"word": "Ele",
		"trial_type": "html-keyboard-response",
		"trial_index": 305,
		"time_elapsed": 430577,
		"internal_node_id": "0.0-3.0-1.246"
	},
	{
		"rt": 514,
		"stimulus": "<span style=\"font-size:30px; font-family: monospace\">conversou</span>",
		"response": " ",
		"trial": "exp-sent",
		"word": "conversou",
		"trial_type": "html-keyboard-response",
		"trial_index": 306,
		"time_elapsed": 431342,
		"internal_node_id": "0.0-3.0-1.247"
	},
	{
		"rt": 476,
		"stimulus": "<span style=\"font-size:30px; font-family: monospace\">com</span>",
		"response": " ",
		"trial": "exp-sent",
		"word": "com",
		"trial_type": "html-keyboard-response",
		"trial_index": 307,
		"time_elapsed": 432070,
		"internal_node_id": "0.0-3.0-1.248"
	},
	{
		"rt": 474,
		"stimulus": "<span style=\"font-size:30px; font-family: monospace\">o</span>",
		"response": " ",
		"trial": "exp-sent",
		"word": "o",
		"trial_type": "html-keyboard-response",
		"trial_index": 308,
		"time_elapsed": 432795,
		"internal_node_id": "0.0-3.0-1.249"
	},
	{
		"rt": 502,
		"stimulus": "<span style=\"font-size:30px; font-family: monospace\">patrão</span>",
		"response": " ",
		"trial": "exp-sent",
		"word": "patrão",
		"trial_type": "html-keyboard-response",
		"trial_index": 309,
		"time_elapsed": 433548,
		"internal_node_id": "0.0-3.0-1.250"
	},
	{
		"rt": 423,
		"stimulus": "<span style=\"font-size:30px; font-family: monospace\">durante</span>",
		"response": " ",
		"trial": "exp-sent",
		"word": "durante",
		"trial_type": "html-keyboard-response",
		"trial_index": 310,
		"time_elapsed": 434223,
		"internal_node_id": "0.0-3.0-1.251"
	},
	{
		"rt": 393,
		"stimulus": "<span style=\"font-size:30px; font-family: monospace\">a</span>",
		"response": " ",
		"trial": "exp-sent",
		"word": "a",
		"trial_type": "html-keyboard-response",
		"trial_index": 311,
		"time_elapsed": 434868,
		"internal_node_id": "0.0-3.0-1.252"
	},
	{
		"rt": 530,
		"stimulus": "<span style=\"font-size:30px; font-family: monospace\">tarde.</span>",
		"response": " ",
		"trial": "exp-sent",
		"word": "tarde.",
		"trial_type": "html-keyboard-response",
		"trial_index": 312,
		"time_elapsed": 435650,
		"internal_node_id": "0.0-3.0-1.253"
	},
	{
		"rt": null,
		"stimulus": "<span style= \"font-size:30px; font-family: monospace\">+</span>",
		"response": null,
		"trial_part": "fixation",
		"trial_type": "html-keyboard-response",
		"trial_index": 313,
		"time_elapsed": 436903,
		"internal_node_id": "0.0-3.0-0.254-0.254"
	},
	{
		"rt": 539,
		"stimulus": "<span style=\"font-size:30px; font-family: monospace\">Algumas</span>",
		"response": " ",
		"trial": "exp-sent",
		"word": "Algumas",
		"trial_type": "html-keyboard-response",
		"trial_index": 314,
		"time_elapsed": 437693,
		"internal_node_id": "0.0-3.0-1.254"
	},
	{
		"rt": 412,
		"stimulus": "<span style=\"font-size:30px; font-family: monospace\">pessoas</span>",
		"response": " ",
		"trial": "exp-sent",
		"word": "pessoas",
		"trial_type": "html-keyboard-response",
		"trial_index": 315,
		"time_elapsed": 438360,
		"internal_node_id": "0.0-3.0-1.255"
	},
	{
		"rt": 409,
		"stimulus": "<span style=\"font-size:30px; font-family: monospace\">acreditam</span>",
		"response": " ",
		"trial": "exp-sent",
		"word": "acreditam",
		"trial_type": "html-keyboard-response",
		"trial_index": 316,
		"time_elapsed": 439021,
		"internal_node_id": "0.0-3.0-1.256"
	},
	{
		"rt": 471,
		"stimulus": "<span style=\"font-size:30px; font-family: monospace\">em</span>",
		"response": " ",
		"trial": "exp-sent",
		"word": "em",
		"trial_type": "html-keyboard-response",
		"trial_index": 317,
		"time_elapsed": 439743,
		"internal_node_id": "0.0-3.0-1.257"
	},
	{
		"rt": 514,
		"stimulus": "<span style=\"font-size:30px; font-family: monospace\">espíritos</span>",
		"response": " ",
		"trial": "exp-sent",
		"word": "espíritos",
		"trial_type": "html-keyboard-response",
		"trial_index": 318,
		"time_elapsed": 440509,
		"internal_node_id": "0.0-3.0-1.258"
	},
	{
		"rt": 465,
		"stimulus": "<span style=\"font-size:30px; font-family: monospace\">e</span>",
		"response": " ",
		"trial": "exp-sent",
		"word": "e",
		"trial_type": "html-keyboard-response",
		"trial_index": 319,
		"time_elapsed": 441226,
		"internal_node_id": "0.0-3.0-1.259"
	},
	{
		"rt": 434,
		"stimulus": "<span style=\"font-size:30px; font-family: monospace\">em</span>",
		"response": " ",
		"trial": "exp-sent",
		"word": "em",
		"trial_type": "html-keyboard-response",
		"trial_index": 320,
		"time_elapsed": 441912,
		"internal_node_id": "0.0-3.0-1.260"
	},
	{
		"rt": 495,
		"stimulus": "<span style=\"font-size:30px; font-family: monospace\">outras</span>",
		"response": " ",
		"trial": "exp-sent",
		"word": "outras",
		"trial_type": "html-keyboard-response",
		"trial_index": 321,
		"time_elapsed": 442660,
		"internal_node_id": "0.0-3.0-1.261"
	},
	{
		"rt": 512,
		"stimulus": "<span style=\"font-size:30px; font-family: monospace\">vidas.</span>",
		"response": " ",
		"trial": "exp-sent",
		"word": "vidas.",
		"trial_type": "html-keyboard-response",
		"trial_index": 322,
		"time_elapsed": 443423,
		"internal_node_id": "0.0-3.0-1.262"
	},
	{
		"rt": null,
		"stimulus": "<span style= \"font-size:30px; font-family: monospace\">+</span>",
		"response": null,
		"trial_part": "fixation",
		"trial_type": "html-keyboard-response",
		"trial_index": 323,
		"time_elapsed": 444688,
		"internal_node_id": "0.0-3.0-0.263-0.263"
	},
	{
		"rt": 451,
		"stimulus": "<span style=\"font-size:30px; font-family: monospace\">Ela</span>",
		"response": " ",
		"trial": "exp-sent",
		"word": "Ela",
		"trial_type": "html-keyboard-response",
		"trial_index": 324,
		"time_elapsed": 445390,
		"internal_node_id": "0.0-3.0-1.263"
	},
	{
		"rt": 471,
		"stimulus": "<span style=\"font-size:30px; font-family: monospace\">gosta</span>",
		"response": " ",
		"trial": "exp-sent",
		"word": "gosta",
		"trial_type": "html-keyboard-response",
		"trial_index": 325,
		"time_elapsed": 446113,
		"internal_node_id": "0.0-3.0-1.264"
	},
	{
		"rt": 420,
		"stimulus": "<span style=\"font-size:30px; font-family: monospace\">de</span>",
		"response": " ",
		"trial": "exp-sent",
		"word": "de",
		"trial_type": "html-keyboard-response",
		"trial_index": 326,
		"time_elapsed": 446785,
		"internal_node_id": "0.0-3.0-1.265"
	},
	{
		"rt": 517,
		"stimulus": "<span style=\"font-size:30px; font-family: monospace\">estudar</span>",
		"response": " ",
		"trial": "exp-sent",
		"word": "estudar",
		"trial_type": "html-keyboard-response",
		"trial_index": 327,
		"time_elapsed": 447553,
		"internal_node_id": "0.0-3.0-1.266"
	},
	{
		"rt": 2702,
		"stimulus": "<span style=\"font-size:30px; font-family: monospace\">matemática</span>",
		"response": " ",
		"trial": "exp-sent",
		"word": "matemática",
		"trial_type": "html-keyboard-response",
		"trial_index": 328,
		"time_elapsed": 450506,
		"internal_node_id": "0.0-3.0-1.267"
	},
	{
		"rt": 483,
		"stimulus": "<span style=\"font-size:30px; font-family: monospace\">com</span>",
		"response": " ",
		"trial": "exp-sent",
		"word": "com",
		"trial_type": "html-keyboard-response",
		"trial_index": 329,
		"time_elapsed": 451241,
		"internal_node_id": "0.0-3.0-1.268"
	},
	{
		"rt": 511,
		"stimulus": "<span style=\"font-size:30px; font-family: monospace\">colegas.</span>",
		"response": " ",
		"trial": "comp",
		"word": "colegas.",
		"trial_type": "html-keyboard-response",
		"trial_index": 330,
		"time_elapsed": 452002,
		"internal_node_id": "0.0-3.0-1.269"
	},
	{
		"rt": 73332,
		"stimulus": "<span style=\"font-size:30px; font-family: monospace\">Ela gosta de estudar física?</span>",
		"response": "n",
		"question": "Ela gosta de estudar física?",
		"answer": "não",
		"trial": "comp",
		"trial_type": "html-keyboard-response",
		"trial_index": 331,
		"time_elapsed": 525586,
		"internal_node_id": "0.0-3.0-2.269-0.269",
		"accuracy": false
	},
	{
		"rt": null,
		"stimulus": "<span style= \"font-size:30px; font-family: monospace\">+</span>",
		"response": null,
		"trial_part": "fixation",
		"trial_type": "html-keyboard-response",
		"trial_index": 332,
		"time_elapsed": 527088,
		"internal_node_id": "0.0-3.0-0.270-0.270"
	},
	{
		"rt": 11555,
		"stimulus": "<span style=\"font-size:30px; font-family: monospace\">A</span>",
		"response": " ",
		"trial": "exp-sent",
		"word": "A",
		"trial_type": "html-keyboard-response",
		"trial_index": 333,
		"time_elapsed": 538894,
		"internal_node_id": "0.0-3.0-1.270"
	},
	{
		"rt": 644,
		"stimulus": "<span style=\"font-size:30px; font-family: monospace\">senhora</span>",
		"response": " ",
		"trial": "exp-sent",
		"word": "senhora",
		"trial_type": "html-keyboard-response",
		"trial_index": 334,
		"time_elapsed": 539790,
		"internal_node_id": "0.0-3.0-1.271"
	},
	{
		"rt": 650,
		"stimulus": "<span style=\"font-size:30px; font-family: monospace\">cumprimentou</span>",
		"response": " ",
		"trial": "exp-sent",
		"word": "cumprimentou",
		"trial_type": "html-keyboard-response",
		"trial_index": 335,
		"time_elapsed": 540691,
		"internal_node_id": "0.0-3.0-1.272"
	},
	{
		"rt": 609,
		"stimulus": "<span style=\"font-size:30px; font-family: monospace\">o</span>",
		"response": " ",
		"trial": "exp-sent",
		"word": "o",
		"trial_type": "html-keyboard-response",
		"trial_index": 336,
		"time_elapsed": 541551,
		"internal_node_id": "0.0-3.0-1.273"
	},
	{
		"rt": 441,
		"stimulus": "<span style=\"font-size:30px; font-family: monospace\">operador</span>",
		"response": " ",
		"trial": "exp-sent",
		"word": "operador",
		"trial_type": "html-keyboard-response",
		"trial_index": 337,
		"time_elapsed": 542243,
		"internal_node_id": "0.0-3.0-1.274"
	},
	{
		"rt": 545,
		"stimulus": "<span style=\"font-size:30px; font-family: monospace\">de</span>",
		"response": " ",
		"trial": "exp-sent",
		"word": "de",
		"trial_type": "html-keyboard-response",
		"trial_index": 338,
		"time_elapsed": 543040,
		"internal_node_id": "0.0-3.0-1.275"
	},
	{
		"rt": 440,
		"stimulus": "<span style=\"font-size:30px; font-family: monospace\">caixa.</span>",
		"response": " ",
		"trial": "exp-sent",
		"word": "caixa.",
		"trial_type": "html-keyboard-response",
		"trial_index": 339,
		"time_elapsed": 543732,
		"internal_node_id": "0.0-3.0-1.276"
	},
	{
		"rt": null,
		"stimulus": "<span style= \"font-size:30px; font-family: monospace\">+</span>",
		"response": null,
		"trial_part": "fixation",
		"trial_type": "html-keyboard-response",
		"trial_index": 340,
		"time_elapsed": 544984,
