"view_history","rt","trial_type","trial_index","time_elapsed","internal_node_id","stimulus","response","trial_part","word","question","answer","trial","accuracy"
"[{""page_index"":0,""viewing_time"":23627},{""page_index"":1,""viewing_time"":4042}]","27669","instructions","0","27671","0.0-0.0","","","","","","","",""
"","null","html-keyboard-response","1","28785","0.0-1.0-0.0-0.0","<span style= ""font-size:30px; font-family: monospace"">+</span>","null","fixation","","","","",""
"","7149","audio-keyboard-response","2","36528","0.0-1.0-1.0","../audio/prac-question-1-1.mp3"," ","","O","","","",""
"","1749","audio-keyboard-response","3","38632","0.0-1.0-1.1","../audio/prac-question-1-2.mp3"," ","","dia","","","",""
"","2368","audio-keyboard-response","4","41305","0.0-1.0-1.2","../audio/prac-question-1-3.mp3"," ","","estará","","","",""
"","2040","audio-keyboard-response","5","43671","0.0-1.0-1.3","../audio/prac-question-1-4.mp3"," ","","cheio","","","",""
"","1459","audio-keyboard-response","6","45425","0.0-1.0-1.4","../audio/prac-question-1-5.mp3"," ","","de","","","",""
"","2219","audio-keyboard-response","7","47958","0.0-1.0-1.5","../audio/prac-question-1-6.mp3"," ","","nuvens","","","",""
"","1899","audio-keyboard-response","8","50266","0.0-1.0-1.6","../audio/prac-question-1-7.mp3"," ","","hoje.","","","",""
"","null","html-keyboard-response","9","51534","0.0-1.0-0.7-0.7","<span style= ""font-size:30px; font-family: monospace"">+</span>","null","fixation","","","","",""
"","992","audio-keyboard-response","10","52930","0.0-1.0-1.7","../audio/prac-question-2-1.mp3"," ","","A","","","",""
"","2181","audio-keyboard-response","11","55483","0.0-1.0-1.8","../audio/prac-question-2-2.mp3"," ","","caneca","","","",""
"","4051","audio-keyboard-response","12","59859","0.0-1.0-1.9","../audio/prac-question-2-3.mp3"," ","","colorida","","","",""
"","1920","audio-keyboard-response","13","62090","0.0-1.0-1.10","../audio/prac-question-2-4.mp3"," ","","caiu","","","",""
"","1421","audio-keyboard-response","14","63802","0.0-1.0-1.11","../audio/prac-question-2-5.mp3"," ","","da","","","",""
"","1701","audio-keyboard-response","15","65819","0.0-1.0-1.12","../audio/prac-question-2-6.mp3"," ","","mesa","","","",""
"","1291","audio-keyboard-response","16","67419","0.0-1.0-1.13","../audio/prac-question-2-7.mp3"," ","","de","","","",""
"","1819","audio-keyboard-response","17","69541","0.0-1.0-1.14","../audio/prac-question-2-8.mp3"," ","","jantar.","","","",""
"","8362","html-keyboard-response","18","78165","0.0-1.0-2.14-0.14","<span style=""font-size:25px; font-family: monospace"">A caneca era colorida?</span>","n","","","A caneca era colorida?","null","prac-sent","false"
"[{""page_index"":0,""viewing_time"":3916}]","3917","instructions","19","82596","0.0-2.0","","","","","","","",""
"","null","html-keyboard-response","20","83708","0.0-3.0-0.0-0.0","<span style= ""font-size:30px; font-family: monospace"">+</span>","null","fixation","","","","",""
"","189","audio-keyboard-response","21","84191","0.0-3.0-1.0","../audio/06-1-masc.mp3"," ","","Ouvimos","","","",""
"","1840","audio-keyboard-response","22","86300","0.0-3.0-1.1","../audio/06-2-masc.mp3"," ","","a","","","",""
"","1869","audio-keyboard-response","23","88467","0.0-3.0-1.2","../audio/06-3-masc.mp3"," ","","fala","","","",""
"","1499","audio-keyboard-response","24","90261","0.0-3.0-1.3","../audio/06-4-masc.mp3"," ","","do","","","",""
"","1400","audio-keyboard-response","25","91942","0.0-3.0-1.4","../audio/06-5-masc.mp3"," ","","profeta","","","",""
"","1240","audio-keyboard-response","26","93452","0.0-3.0-1.5","../audio/06-6-masc.mp3"," ","","no","","","",""
"","1488","audio-keyboard-response","27","95220","0.0-3.0-1.6","../audio/06-7-masc.mp3"," ","","púlpito","","","",""
"","1229","audio-keyboard-response","28","96758","0.0-3.0-1.7","../audio/06-8-masc.mp3"," ","","da","","","",""
"","1600","audio-keyboard-response","29","98656","0.0-3.0-1.8","../audio/06-9-masc.mp3"," ","","igreja.","","","",""
"","null","html-keyboard-response","30","99927","0.0-3.0-0.9-0.9","<span style= ""font-size:30px; font-family: monospace"">+</span>","null","fixation","","","","",""
"","1099","audio-keyboard-response","31","101352","0.0-3.0-1.9","../audio/07-1-masc.mp3"," ","","Meu","","","",""
"","1291","audio-keyboard-response","32","102921","0.0-3.0-1.10","../audio/07-2-masc.mp3"," ","","filho","","","",""
"","1411","audio-keyboard-response","33","104639","0.0-3.0-1.11","../audio/07-3-masc.mp3"," ","","é","","","",""
"","1669","audio-keyboard-response","34","106605","0.0-3.0-1.12","../audio/07-4-masc.mp3"," ","","muito","","","",""
"","1899","audio-keyboard-response","35","108833","0.0-3.0-1.13","../audio/07-5-masc.mp3"," ","","responsável","","","",""
"","1779","audio-keyboard-response","36","110955","0.0-3.0-1.14","../audio/07-6-masc.mp3"," ","","nos","","","",""
"","1819","audio-keyboard-response","37","113060","0.0-3.0-1.15","../audio/07-7-masc.mp3"," ","","estudos.","","","",""
"","null","html-keyboard-response","38","114328","0.0-3.0-0.16-0.16","<span style= ""font-size:30px; font-family: monospace"">+</span>","null","fixation","","","","",""
"","1080","audio-keyboard-response","39","115687","0.0-3.0-1.16","../audio/08-1-fem.mp3"," ","","A","","","",""
"","1651","audio-keyboard-response","40","117680","0.0-3.0-1.17","../audio/08-2-fem.mp3"," ","","receita","","","",""
"","1128","audio-keyboard-response","41","119221","0.0-3.0-1.18","../audio/08-3-fem.mp3"," ","","pede","","","",""
"","1192","audio-keyboard-response","42","120732","0.0-3.0-1.19","../audio/08-4-fem.mp3"," ","","um","","","",""
"","1211","audio-keyboard-response","43","122329","0.0-3.0-1.20","../audio/08-5-fem.mp3"," ","","litro","","","",""
"","2131","audio-keyboard-response","44","124725","0.0-3.0-1.21","../audio/08-6-fem.mp3"," ","","de","","","",""
"","2200","audio-keyboard-response","45","127233","0.0-3.0-1.22","../audio/08-7-fem.mp3"," ","","leite","","","",""
"","2072","audio-keyboard-response","46","129657","0.0-3.0-1.23","../audio/08-8-fem.mp3"," ","","integral.","","","",""
"","null","html-keyboard-response","47","130915","0.0-3.0-0.24-0.24","<span style= ""font-size:30px; font-family: monospace"">+</span>","null","fixation","","","","",""
"","968","audio-keyboard-response","48","132180","0.0-3.0-1.24","../audio/09-1-fem.mp3"," ","","O","","","",""
"","1440","audio-keyboard-response","49","133958","0.0-3.0-1.25","../audio/09-2-fem.mp3"," ","","rapaz","","","",""
"","1339","audio-keyboard-response","50","135581","0.0-3.0-1.26","../audio/09-3-fem.mp3"," ","","limpou","","","",""
"","1421","audio-keyboard-response","51","137285","0.0-3.0-1.27","../audio/09-4-fem.mp3"," ","","o","","","",""
"","1459","audio-keyboard-response","52","139030","0.0-3.0-1.28","../audio/09-5-fem.mp3"," ","","terreno","","","",""
"","1240","audio-keyboard-response","53","140557","0.0-3.0-1.29","../audio/09-6-fem.mp3"," ","","com","","","",""
"","1979","audio-keyboard-response","54","142832","0.0-3.0-1.30","../audio/09-7-fem.mp3"," ","","uma","","","",""
"","1731","audio-keyboard-response","55","144872","0.0-3.0-1.31","../audio/09-8-fem.mp3"," ","","pá.","","","",""
"","null","html-keyboard-response","56","146144","0.0-3.0-0.32-0.32","<span style= ""font-size:30px; font-family: monospace"">+</span>","null","fixation","","","","",""
"","1349","audio-keyboard-response","57","147792","0.0-3.0-1.32","../audio/10-1-fem.mp3"," ","","O","","","",""
"","1248","audio-keyboard-response","58","149347","0.0-3.0-1.33","../audio/10-2-fem.mp3"," ","","pássaro","","","",""
"","1192","audio-keyboard-response","59","150818","0.0-3.0-1.34","../audio/10-3-fem.mp3"," ","","azul","","","",""
"","1360","audio-keyboard-response","60","152562","0.0-3.0-1.35","../audio/10-4-fem.mp3"," ","","estava","","","",""
"","1240","audio-keyboard-response","61","154105","0.0-3.0-1.36","../audio/10-5-fem.mp3"," ","","vivo","","","",""
"","1091","audio-keyboard-response","62","155531","0.0-3.0-1.37","../audio/10-6-fem.mp3"," ","","e","","","",""
"","1221","audio-keyboard-response","63","157045","0.0-3.0-1.38","../audio/10-7-fem.mp3"," ","","em","","","",""
"","2269","audio-keyboard-response","64","159640","0.0-3.0-1.39","../audio/10-8-fem.mp3"," ","","segurança.","","","",""
"","13043","html-keyboard-response","65","172942","0.0-3.0-2.39-0.39","<span style=""font-size:25px; font-family: monospace"">O pássaro vermelho estava em segurança?</span>","s","","","O pássaro vermelho estava em segurança?","null","exp-sent","false"
"","null","html-keyboard-response","66","174467","0.0-3.0-0.40-0.40","<span style= ""font-size:30px; font-family: monospace"">+</span>","null","fixation","","","","",""
"","1909","audio-keyboard-response","67","176760","0.0-3.0-1.40","../audio/52-1-fem.mp3"," ","","Às","","","",""
"","1512","audio-keyboard-response","68","178579","0.0-3.0-1.41","../audio/52-2-fem.mp3"," ","","vezes","","","",""
"","1181","audio-keyboard-response","69","180049","0.0-3.0-1.42","../audio/52-3-fem.mp3"," ","","eu","","","",""
"","1269","audio-keyboard-response","70","181607","0.0-3.0-1.43","../audio/52-4-fem.mp3"," ","","tenho","","","",""
"","1320","audio-keyboard-response","71","183227","0.0-3.0-1.44","../audio/52-5-fem.mp3"," ","","azia","","","",""
"","1269","audio-keyboard-response","72","184800","0.0-3.0-1.45","../audio/52-6-fem.mp3"," ","","depois","","","",""
"","1029","audio-keyboard-response","73","186125","0.0-3.0-1.46","../audio/52-7-fem.mp3"," ","","da","","","",""
"","1291","audio-keyboard-response","74","187698","0.0-3.0-1.47","../audio/52-8-fem.mp3"," ","","janta.","","","",""
"","null","html-keyboard-response","75","188954","0.0-3.0-0.48-0.48","<span style= ""font-size:30px; font-family: monospace"">+</span>","null","fixation","","","","",""
"","1000","audio-keyboard-response","76","190256","0.0-3.0-1.48","../audio/54-1-fem.mp3"," ","","Estou","","","",""
"","1192","audio-keyboard-response","77","191732","0.0-3.0-1.49","../audio/54-2-fem.mp3"," ","","com","","","",""
"","1339","audio-keyboard-response","78","193352","0.0-3.0-1.50","../audio/54-3-fem.mp3"," ","","medo","","","",""
"","1389","audio-keyboard-response","79","195025","0.0-3.0-1.51","../audio/54-4-fem.mp3"," ","","da","","","",""
"","1269","audio-keyboard-response","80","196591","0.0-3.0-1.52","../audio/54-5-fem.mp3"," ","","atual","","","",""
"","1840","audio-keyboard-response","81","198771","0.0-3.0-1.53","../audio/54-6-fem.mp3"," ","","organização","","","",""
"","1072","audio-keyboard-response","82","200137","0.0-3.0-1.54","../audio/54-7-fem.mp3"," ","","do","","","",""
"","1781","audio-keyboard-response","83","202218","0.0-3.0-1.55","../audio/54-8-fem.mp3"," ","","país.","","","",""
"","null","html-keyboard-response","84","203479","0.0-3.0-0.56-0.56","<span style= ""font-size:30px; font-family: monospace"">+</span>","null","fixation","","","","",""
"","1301","audio-keyboard-response","85","205086","0.0-3.0-1.56","../audio/53-1-masc.mp3"," ","","O","","","",""
"","1251","audio-keyboard-response","86","206639","0.0-3.0-1.57","../audio/53-2-masc.mp3"," ","","médico","","","",""
"","1112","audio-keyboard-response","87","208051","0.0-3.0-1.58","../audio/53-3-masc.mp3"," ","","foi","","","",""
"","1259","audio-keyboard-response","88","209600","0.0-3.0-1.59","../audio/53-4-masc.mp3"," ","","bastante","","","",""
"","1459","audio-keyboard-response","89","211355","0.0-3.0-1.60","../audio/53-5-masc.mp3"," ","","preciso","","","",""
"","2611","audio-keyboard-response","90","214240","0.0-3.0-1.61","../audio/53-6-masc.mp3"," ","","durante","","","",""
"","3931","audio-keyboard-response","91","218451","0.0-3.0-1.62","../audio/53-7-masc.mp3"," ","","a","","","",""
"","1811","audio-keyboard-response","92","220610","0.0-3.0-1.63","../audio/53-8-masc.mp3"," ","","cirurgia.","","","",""
"","null","html-keyboard-response","93","221870","0.0-3.0-0.64-0.64","<span style= ""font-size:30px; font-family: monospace"">+</span>","null","fixation","","","","",""
"","1491","audio-keyboard-response","94","223641","0.0-3.0-1.64","../audio/51-1-masc.mp3"," ","","Suco","","","",""
"","1059","audio-keyboard-response","95","224985","0.0-3.0-1.65","../audio/51-2-masc.mp3"," ","","de","","","",""
"","1451","audio-keyboard-response","96","226724","0.0-3.0-1.66","../audio/51-3-masc.mp3"," ","","acerola","","","",""
"","1240","audio-keyboard-response","97","228260","0.0-3.0-1.67","../audio/51-4-masc.mp3"," ","","é","","","",""
"","1520","audio-keyboard-response","98","230071","0.0-3.0-1.68","../audio/51-5-masc.mp3"," ","","azedo","","","",""
"","1099","audio-keyboard-response","99","231479","0.0-3.0-1.69","../audio/51-6-masc.mp3"," ","","e","","","",""
"","1459","audio-keyboard-response","100","233235","0.0-3.0-1.70","../audio/51-7-masc.mp3"," ","","até","","","",""
"","1920","audio-keyboard-response","101","235476","0.0-3.0-1.71","../audio/51-8-masc.mp3"," ","","barato.","","","",""
"","null","html-keyboard-response","102","236743","0.0-3.0-0.72-0.72","<span style= ""font-size:30px; font-family: monospace"">+</span>","null","fixation","","","","",""
"","149","audio-keyboard-response","103","237205","0.0-3.0-1.72","../audio/55-1-fem.mp3"," ","","O","","","",""
"","1411","audio-keyboard-response","104","238921","0.0-3.0-1.73","../audio/55-2-fem.mp3"," ","","insulto","","","",""
"","1429","audio-keyboard-response","105","240686","0.0-3.0-1.74","../audio/55-3-fem.mp3"," ","","recente","","","",""
"","1341","audio-keyboard-response","106","242367","0.0-3.0-1.75","../audio/55-4-fem.mp3"," ","","causou","","","",""
"","1651","audio-keyboard-response","107","244555","0.0-3.0-1.76","../audio/55-5-fem.mp3"," ","","indignação","","","",""
"","1120","audio-keyboard-response","108","246018","0.0-3.0-1.77","../audio/55-6-fem.mp3"," ","","em","","","",""
"","1200","audio-keyboard-response","109","247558","0.0-3.0-1.78","../audio/55-7-fem.mp3"," ","","todos.","","","",""
"","10087","html-keyboard-response","110","257910","0.0-3.0-2.78-0.78","<span style=""font-size:25px; font-family: monospace"">O insulto causou calmaria?</span>","n","","","O insulto causou calmaria?","null","exp-sent","false"
"","null","html-keyboard-response","111","259424","0.0-3.0-0.79-0.79","<span style= ""font-size:30px; font-family: monospace"">+</span>","null","fixation","","","","",""
"","1200","audio-keyboard-response","112","260960","0.0-3.0-1.79","../audio/43-1-masc.mp3"," ","","Eu","","","",""
"","1331","audio-keyboard-response","113","262601","0.0-3.0-1.80","../audio/43-2-masc.mp3"," ","","achei","","","",""
"","1669","audio-keyboard-response","114","264769","0.0-3.0-1.81","../audio/43-3-masc.mp3"," ","","um","","","",""
"","1680","audio-keyboard-response","115","266795","0.0-3.0-1.82","../audio/43-4-masc.mp3"," ","","colchão","","","",""
"","1480","audio-keyboard-response","116","268581","0.0-3.0-1.83","../audio/43-5-masc.mp3"," ","","velho","","","",""
"","1331","audio-keyboard-response","117","270234","0.0-3.0-1.84","../audio/43-6-masc.mp3"," ","","e","","","",""
"","1579","audio-keyboard-response","118","272154","0.0-3.0-1.85","../audio/43-7-masc.mp3"," ","","imundo","","","",""
"","1301","audio-keyboard-response","119","273766","0.0-3.0-1.86","../audio/43-8-masc.mp3"," ","","na","","","",""
"","1288","audio-keyboard-response","120","275348","0.0-3.0-1.87","../audio/43-9-masc.mp3"," ","","casa.","","","",""
"","null","html-keyboard-response","121","276610","0.0-3.0-0.88-0.88","<span style= ""font-size:30px; font-family: monospace"">+</span>","null","fixation","","","","",""
"","1381","audio-keyboard-response","122","278293","0.0-3.0-1.88","../audio/44-1-fem.mp3"," ","","Meus","","","",""
"","1811","audio-keyboard-response","123","280394","0.0-3.0-1.89","../audio/44-2-fem.mp3"," ","","irmãos","","","",""
"","1680","audio-keyboard-response","124","282352","0.0-3.0-1.90","../audio/44-3-fem.mp3"," ","","brigam","","","",""
"","2011","audio-keyboard-response","125","284640","0.0-3.0-1.91","../audio/44-4-fem.mp3"," ","","por","","","",""
"","1840","audio-keyboard-response","126","286771","0.0-3.0-1.92","../audio/44-5-fem.mp3"," ","","bobagem","","","",""
"","2560","audio-keyboard-response","127","289623","0.0-3.0-1.93","../audio/44-6-fem.mp3"," ","","todos","","","",""
"","1741","audio-keyboard-response","128","291691","0.0-3.0-1.94","../audio/44-7-fem.mp3"," ","","os","","","",""
"","1509","audio-keyboard-response","129","293505","0.0-3.0-1.95","../audio/44-8-fem.mp3"," ","","dias.","","","",""
"","null","html-keyboard-response","130","294764","0.0-3.0-0.96-0.96","<span style= ""font-size:30px; font-family: monospace"">+</span>","null","fixation","","","","",""
"","1579","audio-keyboard-response","131","296622","0.0-3.0-1.96","../audio/41-1-fem.mp3"," ","","A","","","",""
"","2480","audio-keyboard-response","132","299438","0.0-3.0-1.97","../audio/41-2-fem.mp3"," ","","novela","","","",""
"","1789","audio-keyboard-response","133","301554","0.0-3.0-1.98","../audio/41-3-fem.mp3"," ","","falava","","","",""
"","2000","audio-keyboard-response","134","303861","0.0-3.0-1.99","../audio/41-4-fem.mp3"," ","","de","","","",""
"","2211","audio-keyboard-response","135","306415","0.0-3.0-1.100","../audio/41-5-fem.mp3"," ","","paixão","","","",""
"","1509","audio-keyboard-response","136","308220","0.0-3.0-1.101","../audio/41-6-fem.mp3"," ","","e","","","",""
"","1949","audio-keyboard-response","137","310477","0.0-3.0-1.102","../audio/41-7-fem.mp3"," ","","comédia.","","","",""
"","null","html-keyboard-response","138","311746","0.0-3.0-0.103-0.103","<span style= ""font-size:30px; font-family: monospace"">+</span>","null","fixation","","","","",""
"","1672","audio-keyboard-response","139","313697","0.0-3.0-1.103","../audio/42-1-masc.mp3"," ","","Eu","","","",""
"","1381","audio-keyboard-response","140","315365","0.0-3.0-1.104","../audio/42-2-masc.mp3"," ","","fui","","","",""
"","1619","audio-keyboard-response","141","317268","0.0-3.0-1.105","../audio/42-3-masc.mp3"," ","","a","","","",""
"","1661","audio-keyboard-response","142","319212","0.0-3.0-1.106","../audio/42-4-masc.mp3"," ","","uma","","","",""
"","1512","audio-keyboard-response","143","321013","0.0-3.0-1.107","../audio/42-5-masc.mp3"," ","","loja","","","",""
"","3291","audio-keyboard-response","144","324598","0.0-3.0-1.108","../audio/42-6-masc.mp3"," ","","de","","","",""
"","2048","audio-keyboard-response","145","326945","0.0-3.0-1.109","../audio/42-7-masc.mp3"," ","","móveis","","","",""
"","1851","audio-keyboard-response","146","329077","0.0-3.0-1.110","../audio/42-8-masc.mp3"," ","","no","","","",""
"","2149","audio-keyboard-response","147","331501","0.0-3.0-1.111","../audio/42-9-masc.mp3"," ","","bairro.","","","",""
"","null","html-keyboard-response","148","332755","0.0-3.0-0.112-0.112","<span style= ""font-size:30px; font-family: monospace"">+</span>","null","fixation","","","","",""
"","1979","audio-keyboard-response","149","335064","0.0-3.0-1.112","../audio/45-1-fem.mp3"," ","","O","","","",""
"","1240","audio-keyboard-response","150","336633","0.0-3.0-1.113","../audio/45-2-fem.mp3"," ","","homem","","","",""
"","1312","audio-keyboard-response","151","338491","0.0-3.0-1.114","../audio/45-3-fem.mp3"," ","","pagou","","","",""
"","1592","audio-keyboard-response","152","340380","0.0-3.0-1.115","../audio/45-4-fem.mp3"," ","","o","","","",""
"","2480","audio-keyboard-response","153","343163","0.0-3.0-1.116","../audio/45-5-fem.mp3"," ","","aluguel","","","",""
"","1109","audio-keyboard-response","154","344566","0.0-3.0-1.117","../audio/45-6-fem.mp3"," ","","com","","","",""
"","2259","audio-keyboard-response","155","347120","0.0-3.0-1.118","../audio/45-7-fem.mp3"," ","","atraso.","","","",""
"","34583","html-keyboard-response","156","381968","0.0-3.0-2.118-0.118","<span style=""font-size:25px; font-family: monospace"">O homem pagou o aluguel em dia?</span>","n","","","O homem pagou o aluguel em dia?","null","exp-sent","false"
"","null","html-keyboard-response","157","383469","0.0-3.0-0.119-0.119","<span style= ""font-size:30px; font-family: monospace"">+</span>","null","fixation","","","","",""
"","1688","audio-keyboard-response","158","385645","0.0-3.0-1.119","../audio/04-1-masc.mp3"," ","","Duzentos","","","",""
"","1461","audio-keyboard-response","159","387390","0.0-3.0-1.120","../audio/04-2-masc.mp3"," ","","carros","","","",""
"","1509","audio-keyboard-response","160","389204","0.0-3.0-1.121","../audio/04-3-masc.mp3"," ","","passaram","","","",""
"","1120","audio-keyboard-response","161","390626","0.0-3.0-1.122","../audio/04-4-masc.mp3"," ","","pela","","","",""
"","1139","audio-keyboard-response","162","392054","0.0-3.0-1.123","../audio/04-5-masc.mp3"," ","","ponte","","","",""
"","1232","audio-keyboard-response","163","393550","0.0-3.0-1.124","../audio/04-6-masc.mp3"," ","","hoje","","","",""
"","971","audio-keyboard-response","164","394788","0.0-3.0-1.125","../audio/04-7-masc.mp3"," ","","de","","","",""
"","1099","audio-keyboard-response","165","396174","0.0-3.0-1.126","../audio/04-8-masc.mp3"," ","","tarde.","","","",""
"","null","html-keyboard-response","166","397440","0.0-3.0-0.127-0.127","<span style= ""font-size:30px; font-family: monospace"">+</span>","null","fixation","","","","",""
"","189","audio-keyboard-response","167","397922","0.0-3.0-1.127","../audio/03-1-fem.mp3"," ","","O","","","",""
"","1472","audio-keyboard-response","168","399674","0.0-3.0-1.128","../audio/03-2-fem.mp3"," ","","coelho","","","",""
"","1181","audio-keyboard-response","169","401146","0.0-3.0-1.129","../audio/03-3-fem.mp3"," ","","foi","","","",""
"","1291","audio-keyboard-response","170","402786","0.0-3.0-1.130","../audio/03-4-fem.mp3"," ","","bastante","","","",""
"","1469","audio-keyboard-response","171","404603","0.0-3.0-1.131","../audio/03-5-fem.mp3"," ","","dócil","","","",""
"","1179","audio-keyboard-response","172","406086","0.0-3.0-1.132","../audio/03-6-fem.mp3"," ","","com","","","",""
"","1899","audio-keyboard-response","173","408290","0.0-3.0-1.133","../audio/03-7-fem.mp3"," ","","as","","","",""
"","1589","audio-keyboard-response","174","410170","0.0-3.0-1.134","../audio/03-8-fem.mp3"," ","","crianças.","","","",""
"","null","html-keyboard-response","175","411435","0.0-3.0-0.135-0.135","<span style= ""font-size:30px; font-family: monospace"">+</span>","null","fixation","","","","",""
"","3101","audio-keyboard-response","176","414837","0.0-3.0-1.135","../audio/02-2-masc.mp3"," ","","Havia","","","",""
"","1699","audio-keyboard-response","177","416803","0.0-3.0-1.136","../audio/02-2-masc.mp3"," ","","um","","","",""
"","2931","audio-keyboard-response","178","420055","0.0-3.0-1.137","../audio/02-3-masc.mp3"," ","","cheiro","","","",""
"","1240","audio-keyboard-response","179","421585","0.0-3.0-1.138","../audio/02-4-masc.mp3"," ","","de","","","",""
"","1320","audio-keyboard-response","180","423196","0.0-3.0-1.139","../audio/02-5-masc.mp3"," ","","gasolina","","","",""
"","1200","audio-keyboard-response","181","424691","0.0-3.0-1.140","../audio/02-6-masc.mp3"," ","","na","","","",""
"","1371","audio-keyboard-response","182","426354","0.0-3.0-1.141","../audio/02-7-masc.mp3"," ","","garagem.","","","",""
"","null","html-keyboard-response","183","427609","0.0-3.0-0.142-0.142","<span style= ""font-size:30px; font-family: monospace"">+</span>","null","fixation","","","","",""
"","1200","audio-keyboard-response","184","429178","0.0-3.0-1.142","../audio/01-1-fem.mp3"," ","","O","","","",""
"","1491","audio-keyboard-response","185","431054","0.0-3.0-1.143","../audio/01-2-fem.mp3"," ","","menino","","","",""
"","1528","audio-keyboard-response","186","432926","0.0-3.0-1.144","../audio/01-3-fem.mp3"," ","","derrubou","","","",""
"","2179","audio-keyboard-response","187","435403","0.0-3.0-1.145","../audio/01-4-fem.mp3"," ","","a","","","",""
"","1371","audio-keyboard-response","188","437096","0.0-3.0-1.146","../audio/01-5-fem.mp3"," ","","guitarra","","","",""
"","1141","audio-keyboard-response","189","438541","0.0-3.0-1.147","../audio/01-6-fem.mp3"," ","","no","","","",""
"","1520","audio-keyboard-response","190","440362","0.0-3.0-1.148","../audio/01-7-fem.mp3"," ","","chão.","","","",""
"","null","html-keyboard-response","191","441627","0.0-3.0-0.149-0.149","<span style= ""font-size:30px; font-family: monospace"">+</span>","null","fixation","","","","",""
"","272","audio-keyboard-response","192","442197","0.0-3.0-1.149","../audio/05-1-masc.mp3"," ","","A","","","",""
"","1429","audio-keyboard-response","193","443961","0.0-3.0-1.150","../audio/05-2-masc.mp3"," ","","vendedora","","","",""
"","1069","audio-keyboard-response","194","445323","0.0-3.0-1.151","../audio/05-3-masc.mp3"," ","","ajudou","","","",""
"","1160","audio-keyboard-response","195","446772","0.0-3.0-1.152","../audio/05-4-masc.mp3"," ","","um","","","",""
"","1309","audio-keyboard-response","196","448398","0.0-3.0-1.153","../audio/05-5-masc.mp3"," ","","turista","","","",""
"","1019","audio-keyboard-response","197","449732","0.0-3.0-1.154","../audio/05-6-masc.mp3"," ","","na","","","",""
"","1288","audio-keyboard-response","198","451319","0.0-3.0-1.155","../audio/05-7-masc.mp3"," ","","loja.","","","",""
"","19687","html-keyboard-response","199","471266","0.0-3.0-2.155-0.155","<span style=""font-size:25px; font-family: monospace"">A vendedora ajudou um turista?</span>","s","","","A vendedora ajudou um turista?","null","exp-sent","false"
"","null","html-keyboard-response","200","472794","0.0-3.0-0.156-0.156","<span style= ""font-size:30px; font-family: monospace"">+</span>","null","fixation","","","","",""
"","11771","audio-keyboard-response","201","484862","0.0-3.0-1.156","../audio/68-1-masc.mp3"," ","","Meu","","","",""
"","2251","audio-keyboard-response","202","487502","0.0-3.0-1.157","../audio/68-2-masc.mp3"," ","","irmão","","","",""
"","1931","audio-keyboard-response","203","489728","0.0-3.0-1.158","../audio/68-3-masc.mp3"," ","","teve","","","",""
"","1760","audio-keyboard-response","204","491789","0.0-3.0-1.159","../audio/68-4-masc.mp3"," ","","um","","","",""
"","1600","audio-keyboard-response","205","493690","0.0-3.0-1.160","../audio/68-5-masc.mp3"," ","","noivado","","","",""
"","1400","audio-keyboard-response","206","495384","0.0-3.0-1.161","../audio/68-6-masc.mp3"," ","","longo","","","",""
"","1291","audio-keyboard-response","207","496956","0.0-3.0-1.162","../audio/68-7-masc.mp3"," ","","e","","","",""
"","2131","audio-keyboard-response","208","499412","0.0-3.0-1.163","../audio/68-8-masc.mp3"," ","","maravilhoso.","","","",""
"","null","html-keyboard-response","209","500673","0.0-3.0-0.164-0.164","<span style= ""font-size:30px; font-family: monospace"">+</span>","null","fixation","","","","",""
"","149","audio-keyboard-response","210","501120","0.0-3.0-1.164","../audio/69-1-fem.mp3"," ","","A","","","",""
"","1571","audio-keyboard-response","211","502975","0.0-3.0-1.165","../audio/69-2-fem.mp3"," ","","loja","","","",""
"","1160","audio-keyboard-response","212","504474","0.0-3.0-1.166","../audio/69-3-fem.mp3"," ","","recebeu","","","",""
"","1371","audio-keyboard-response","213","506150","0.0-3.0-1.167","../audio/69-4-fem.mp3"," ","","uma","","","",""
"","1528","audio-keyboard-response","214","507959","0.0-3.0-1.168","../audio/69-5-fem.mp3"," ","","poltrona","","","",""
"","899","audio-keyboard-response","215","509165","0.0-3.0-1.169","../audio/69-6-fem.mp3"," ","","de","","","",""
"","1032","audio-keyboard-response","216","510468","0.0-3.0-1.170","../audio/69-7-fem.mp3"," ","","couro","","","",""
"","1091","audio-keyboard-response","217","511848","0.0-3.0-1.171","../audio/69-8-fem.mp3"," ","","preto.","","","",""
"","null","html-keyboard-response","218","513126","0.0-3.0-0.172-0.172","<span style= ""font-size:30px; font-family: monospace"">+</span>","null","fixation","","","","",""
"","1200","audio-keyboard-response","219","514625","0.0-3.0-1.172","../audio/67-1-fem.mp3"," ","","Minha","","","",""
"","971","audio-keyboard-response","220","515874","0.0-3.0-1.173","../audio/67-2-fem.mp3"," ","","tia","","","",""
"","1091","audio-keyboard-response","221","517247","0.0-3.0-1.174","../audio/67-3-fem.mp3"," ","","comprou","","","",""
"","1120","audio-keyboard-response","222","518654","0.0-3.0-1.175","../audio/67-4-fem.mp3"," ","","um","","","",""
"","1061","audio-keyboard-response","223","519993","0.0-3.0-1.176","../audio/67-5-fem.mp3"," ","","cordão","","","",""
"","1400","audio-keyboard-response","224","521668","0.0-3.0-1.177","../audio/67-6-fem.mp3"," ","","para","","","",""
"","1531","audio-keyboard-response","225","523492","0.0-3.0-1.178","../audio/67-7-fem.mp3"," ","","o","","","",""
"","1251","audio-keyboard-response","226","525029","0.0-3.0-1.179","../audio/67-8-fem.mp3"," ","","varal.","","","",""
"","null","html-keyboard-response","227","526296","0.0-3.0-0.180-0.180","<span style= ""font-size:30px; font-family: monospace"">+</span>","null","fixation","","","","",""
"","920","audio-keyboard-response","228","527541","0.0-3.0-1.180","../audio/66-1-masc.mp3"," ","","Não","","","",""
"","1520","audio-keyboard-response","229","529366","0.0-3.0-1.181","../audio/66-2-masc.mp3"," ","","gosto","","","",""
"","1451","audio-keyboard-response","230","531112","0.0-3.0-1.182","../audio/66-3-masc.mp3"," ","","de","","","",""
"","1360","audio-keyboard-response","231","532811","0.0-3.0-1.183","../audio/66-4-masc.mp3"," ","","gente","","","",""
"","1691","audio-keyboard-response","232","534903","0.0-3.0-1.184","../audio/66-5-masc.mp3"," ","","egoísta","","","",""
"","1040","audio-keyboard-response","233","536357","0.0-3.0-1.185","../audio/66-6-masc.mp3"," ","","nem","","","",""
"","1120","audio-keyboard-response","234","537772","0.0-3.0-1.186","../audio/66-7-masc.mp3"," ","","chata.","","","",""
"","null","html-keyboard-response","235","539047","0.0-3.0-0.187-0.187","<span style= ""font-size:30px; font-family: monospace"">+</span>","null","fixation","","","","",""
"","720","audio-keyboard-response","236","540088","0.0-3.0-1.187","../audio/70-1-fem.mp3"," ","","O","","","",""
"","1520","audio-keyboard-response","237","541926","0.0-3.0-1.188","../audio/70-2-fem.mp3"," ","","meu","","","",""
"","1171","audio-keyboard-response","238","543415","0.0-3.0-1.189","../audio/70-3-fem.mp3"," ","","filho","","","",""
"","1141","audio-keyboard-response","239","544837","0.0-3.0-1.190","../audio/70-4-fem.mp3"," ","","tem","","","",""
"","1291","audio-keyboard-response","240","546415","0.0-3.0-1.191","../audio/70-5-fem.mp3"," ","","medo","","","",""
"","1109","audio-keyboard-response","241","547813","0.0-3.0-1.192","../audio/70-6-fem.mp3"," ","","de","","","",""
"","1691","audio-keyboard-response","242","549817","0.0-3.0-1.193","../audio/70-7-fem.mp3"," ","","enguia","","","",""
"","1320","audio-keyboard-response","243","551426","0.0-3.0-1.194","../audio/70-8-fem.mp3"," ","","e","","","",""
"","2240","audio-keyboard-response","244","553951","0.0-3.0-1.195","../audio/70-9-fem.mp3"," ","","beija-flor.","","","",""
"","15617","html-keyboard-response","245","569833","0.0-3.0-2.195-0.195","<span style=""font-size:25px; font-family: monospace"">O filho tem medo de tigre?</span>","n","","","O filho tem medo de tigre?","null","exp-sent","false"
"","null","html-keyboard-response","246","571347","0.0-3.0-0.196-0.196","<span style= ""font-size:30px; font-family: monospace"">+</span>","null","fixation","","","","",""
"","1891","audio-keyboard-response","247","573544","0.0-3.0-1.196","../audio/12-1-masc.mp3"," ","","O","","","",""
"","1240","audio-keyboard-response","248","575096","0.0-3.0-1.197","../audio/12-2-masc.mp3"," ","","dia","","","",""
"","1219","audio-keyboard-response","249","576603","0.0-3.0-1.198","../audio/12-3-masc.mp3"," ","","estava","","","",""
"","1451","audio-keyboard-response","250","578349","0.0-3.0-1.199","../audio/12-4-masc.mp3"," ","","quente,","","","",""
"","1480","audio-keyboard-response","251","580144","0.0-3.0-1.200","../audio/12-5-masc.mp3"," ","","tranquilo","","","",""
"","1101","audio-keyboard-response","252","581585","0.0-3.0-1.201","../audio/12-6-masc.mp3"," ","","e","","","",""
"","1840","audio-keyboard-response","253","583752","0.0-3.0-1.202","../audio/12-7-masc.mp3"," ","","ensolarado.","","","",""
"","null","html-keyboard-response","254","585008","0.0-3.0-0.203-0.203","<span style= ""font-size:30px; font-family: monospace"">+</span>","null","fixation","","","","",""
"","1320","audio-keyboard-response","255","586704","0.0-3.0-1.203","../audio/13-1-masc.mp3"," ","","Para","","","",""
"","1229","audio-keyboard-response","256","588240","0.0-3.0-1.204","../audio/13-2-masc.mp3"," ","","mim","","","",""
"","1211","audio-keyboard-response","257","589753","0.0-3.0-1.205","../audio/13-3-masc.mp3"," ","","é","","","",""
"","1429","audio-keyboard-response","258","591483","0.0-3.0-1.206","../audio/13-4-masc.mp3"," ","","muito","","","",""
"","1469","audio-keyboard-response","259","593240","0.0-3.0-1.207","../audio/13-5-masc.mp3"," ","","difícil","","","",""
"","1360","audio-keyboard-response","260","594899","0.0-3.0-1.208","../audio/13-6-masc.mp3"," ","","acordar","","","",""
"","1341","audio-keyboard-response","261","596543","0.0-3.0-1.209","../audio/13-7-masc.mp3"," ","","cedo.","","","",""
"","null","html-keyboard-response","262","597826","0.0-3.0-0.210-0.210","<span style= ""font-size:30px; font-family: monospace"">+</span>","null","fixation","","","","",""
"","221","audio-keyboard-response","263","598337","0.0-3.0-1.210","../audio/14-1-fem.mp3"," ","","O","","","",""
"","1349","audio-keyboard-response","264","599986","0.0-3.0-1.211","../audio/14-2-fem.mp3"," ","","cachorro","","","",""
"","1029","audio-keyboard-response","265","601306","0.0-3.0-1.212","../audio/14-3-fem.mp3"," ","","é","","","",""
"","1131","audio-keyboard-response","266","602731","0.0-3.0-1.213","../audio/14-4-fem.mp3"," ","","muito","","","",""
"","1160","audio-keyboard-response","267","604193","0.0-3.0-1.214","../audio/14-5-fem.mp3"," ","","fiel","","","",""
"","1048","audio-keyboard-response","268","605517","0.0-3.0-1.215","../audio/14-6-fem.mp3"," ","","a","","","",""
"","1629","audio-keyboard-response","269","607458","0.0-3.0-1.216","../audio/14-7-fem.mp3"," ","","seus","","","",""
"","2480","audio-keyboard-response","270","610310","0.0-3.0-1.217","../audio/14-8-fem.mp3"," ","","donos.","","","",""
"","null","html-keyboard-response","271","611586","0.0-3.0-0.218-0.218","<span style= ""font-size:30px; font-family: monospace"">+</span>","null","fixation","","","","",""
"","1400","audio-keyboard-response","272","613286","0.0-3.0-1.218","../audio/11-1-fem.mp3"," ","","Elas","","","",""
"","1419","audio-keyboard-response","273","615011","0.0-3.0-1.219","../audio/11-2-fem.mp3"," ","","gostam","","","",""
"","1280","audio-keyboard-response","274","616582","0.0-3.0-1.220","../audio/11-3-fem.mp3"," ","","muito","","","",""
"","1051","audio-keyboard-response","275","617909","0.0-3.0-1.221","../audio/11-4-fem.mp3"," ","","de","","","",""
"","2139","audio-keyboard-response","276","620365","0.0-3.0-1.222","../audio/11-5-fem.mp3"," ","","aritmética","","","",""
"","1011","audio-keyboard-response","277","621669","0.0-3.0-1.223","../audio/11-6-fem.mp3"," ","","e","","","",""
"","960","audio-keyboard-response","278","622924","0.0-3.0-1.224","../audio/11-7-fem.mp3"," ","","de","","","",""
"","1499","audio-keyboard-response","279","624734","0.0-3.0-1.225","../audio/11-8-fem.mp3"," ","","leitura.","","","",""
"","null","html-keyboard-response","280","626001","0.0-3.0-0.226-0.226","<span style= ""font-size:30px; font-family: monospace"">+</span>","null","fixation","","","","",""
"","1128","audio-keyboard-response","281","627562","0.0-3.0-1.226","../audio/15-1-fem.mp3"," ","","Meu","","","",""
"","1232","audio-keyboard-response","282","629113","0.0-3.0-1.227","../audio/15-2-fem.mp3"," ","","primo","","","",""
"","1059","audio-keyboard-response","283","630482","0.0-3.0-1.228","../audio/15-3-fem.mp3"," ","","é","","","",""
"","1109","audio-keyboard-response","284","631888","0.0-3.0-1.229","../audio/15-4-fem.mp3"," ","","um","","","",""
"","1219","audio-keyboard-response","285","633478","0.0-3.0-1.230","../audio/15-5-fem.mp3"," ","","grande","","","",""
"","1349","audio-keyboard-response","286","635118","0.0-3.0-1.231","../audio/15-6-fem.mp3"," ","","vendedor","","","",""
"","1061","audio-keyboard-response","287","636458","0.0-3.0-1.232","../audio/15-7-fem.mp3"," ","","de","","","",""
"","1691","audio-keyboard-response","288","638430","0.0-3.0-1.233","../audio/15-8-fem.mp3"," ","","carros.","","","",""
"","4785","html-keyboard-response","289","643472","0.0-3.0-2.233-0.233","<span style=""font-size:25px; font-family: monospace"">O primo é um vendedor de carros?</span>","n","","","O primo é um vendedor de carros?","null","exp-sent","false"
"","null","html-keyboard-response","290","645000","0.0-3.0-0.234-0.234","<span style= ""font-size:30px; font-family: monospace"">+</span>","null","fixation","","","","",""
"","11699","audio-keyboard-response","291","657016","0.0-3.0-1.234","../audio/76-1-fem.mp3"," ","","O","","","",""
"","1491","audio-keyboard-response","292","658870","0.0-3.0-1.235","../audio/76-2-fem.mp3"," ","","bisavô","","","",""
"","1661","audio-keyboard-response","293","660875","0.0-3.0-1.236","../audio/76-3-fem.mp3"," ","","comprou","","","",""
"","1259","audio-keyboard-response","294","662439","0.0-3.0-1.237","../audio/76-4-fem.mp3"," ","","um","","","",""
"","1421","audio-keyboard-response","295","664157","0.0-3.0-1.238","../audio/76-5-fem.mp3"," ","","ralador","","","",""
"","1059","audio-keyboard-response","296","665560","0.0-3.0-1.239","../audio/76-6-fem.mp3"," ","","de","","","",""
"","1221","audio-keyboard-response","297","667076","0.0-3.0-1.240","../audio/76-7-fem.mp3"," ","","queijo.","","","",""
"","null","html-keyboard-response","298","668337","0.0-3.0-0.241-0.241","<span style= ""font-size:30px; font-family: monospace"">+</span>","null","fixation","","","","",""
"","1131","audio-keyboard-response","299","669822","0.0-3.0-1.241","../audio/78-1-fem.mp3"," ","","Eles","","","",""
"","1160","audio-keyboard-response","300","671297","0.0-3.0-1.242","../audio/78-2-fem.mp3"," ","","trazem","","","",""
"","1019","audio-keyboard-response","301","672604","0.0-3.0-1.243","../audio/78-3-fem.mp3"," ","","um","","","",""
"","1459","audio-keyboard-response","302","674402","0.0-3.0-1.244","../audio/78-4-fem.mp3"," ","","fato","","","",""
"","1499","audio-keyboard-response","303","676207","0.0-3.0-1.245","../audio/78-5-fem.mp3"," ","","urgente","","","",""
"","1120","audio-keyboard-response","304","677623","0.0-3.0-1.246","../audio/78-6-fem.mp3"," ","","todos","","","",""
"","1008","audio-keyboard-response","305","678959","0.0-3.0-1.247","../audio/78-7-fem.mp3"," ","","os","","","",""
"","1229","audio-keyboard-response","306","680492","0.0-3.0-1.248","../audio/78-8-fem.mp3"," ","","dias.","","","",""
"","null","html-keyboard-response","307","681768","0.0-3.0-0.249-0.249","<span style= ""font-size:30px; font-family: monospace"">+</span>","null","fixation","","","","",""
"","1189","audio-keyboard-response","308","683265","0.0-3.0-1.249","../audio/79-1-masc.mp3"," ","","A","","","",""
"","1352","audio-keyboard-response","309","684907","0.0-3.0-1.250","../audio/79-2-masc.mp3"," ","","médica","","","",""
"","1301","audio-keyboard-response","310","686504","0.0-3.0-1.251","../audio/79-3-masc.mp3"," ","","verificou","","","",""
"","1109","audio-keyboard-response","311","687890","0.0-3.0-1.252","../audio/79-4-masc.mp3"," ","","a","","","",""
"","1171","audio-keyboard-response","312","689634","0.0-3.0-1.253","../audio/79-5-masc.mp3"," ","","gengiva","","","",""
"","1072","audio-keyboard-response","313","690993","0.0-3.0-1.254","../audio/79-6-masc.mp3"," ","","por","","","",""
"","1192","audio-keyboard-response","314","692477","0.0-3.0-1.255","../audio/79-7-masc.mp3"," ","","último.","","","",""
"","null","html-keyboard-response","315","693757","0.0-3.0-0.256-0.256","<span style= ""font-size:30px; font-family: monospace"">+</span>","null","fixation","","","","",""
"","768","audio-keyboard-response","316","694841","0.0-3.0-1.256","../audio/77-1-masc.mp3"," ","","A","","","",""
"","3680","audio-keyboard-response","317","698893","0.0-3.0-1.257","../audio/77-2-masc.mp3"," ","","criança","","","",""
"","1549","audio-keyboard-response","318","700738","0.0-3.0-1.258","../audio/77-3-masc.mp3"," ","","ficou","","","",""
"","1419","audio-keyboard-response","319","702488","0.0-3.0-1.259","../audio/77-4-masc.mp3"," ","","muito","","","",""
"","2731","audio-keyboard-response","320","705501","0.0-3.0-1.260","../audio/77-5-masc.mp3"," ","","feliz","","","",""
"","1219","audio-keyboard-response","321","707041","0.0-3.0-1.261","../audio/77-6-masc.mp3"," ","","com","","","",""
"","1451","audio-keyboard-response","322","708819","0.0-3.0-1.262","../audio/77-7-masc.mp3"," ","","o","","","",""
"","1360","audio-keyboard-response","323","710561","0.0-3.0-1.263","../audio/77-8-masc.mp3"," ","","brinquedo.","","","",""
"","null","html-keyboard-response","324","711831","0.0-3.0-0.264-0.264","<span style= ""font-size:30px; font-family: monospace"">+</span>","null","fixation","","","","",""
"","1229","audio-keyboard-response","325","713366","0.0-3.0-1.264","../audio/80-1-fem.mp3"," ","","Meu","","","",""
"","1360","audio-keyboard-response","326","715071","0.0-3.0-1.265","../audio/80-2-fem.mp3"," ","","primo","","","",""
"","1520","audio-keyboard-response","327","716888","0.0-3.0-1.266","../audio/80-3-fem.mp3"," ","","conheceu","","","",""
"","1160","audio-keyboard-response","328","718348","0.0-3.0-1.267","../audio/80-4-fem.mp3"," ","","um","","","",""
"","1392","audio-keyboard-response","329","720033","0.0-3.0-1.268","../audio/80-5-fem.mp3"," ","","jovem","","","",""
"","1701","audio-keyboard-response","330","722029","0.0-3.0-1.269","../audio/80-6-fem.mp3"," ","","amável","","","",""
"","1899","audio-keyboard-response","331","724203","0.0-3.0-1.270","../audio/80-7-fem.mp3"," ","","e","","","",""
"","1520","audio-keyboard-response","332","726021","0.0-3.0-1.271","../audio/80-8-fem.mp3"," ","","confiante.","","","",""
"","10336","html-keyboard-response","333","736610","0.0-3.0-2.271-0.271","<span style=""font-size:25px; font-family: monospace"">O primo conheceu um jovem irritante?</span>","n","","","O primo conheceu um jovem irritante?","null","exp-sent","false"
"","null","html-keyboard-response","334","738120","0.0-3.0-0.272-0.272","<span style= ""font-size:30px; font-family: monospace"">+</span>","null","fixation","","","","",""
"","1189","audio-keyboard-response","335","739621","0.0-3.0-1.272","../audio/16-1-masc.mp3"," ","","Eu","","","",""
"","1371","audio-keyboard-response","336","741268","0.0-3.0-1.273","../audio/16-2-masc.mp3"," ","","nunca","","","",""
"","1611","audio-keyboard-response","337","743197","0.0-3.0-1.274","../audio/16-3-masc.mp3"," ","","conheci","","","",""
"","1291","audio-keyboard-response","338","744776","0.0-3.0-1.275","../audio/16-4-masc.mp3"," ","","um","","","",""
"","1291","audio-keyboard-response","339","746352","0.0-3.0-1.276","../audio/16-5-masc.mp3"," ","","general","","","",""
"","1259","audio-keyboard-response","340","747920","0.0-3.0-1.277","../audio/16-6-masc.mp3"," ","","do","","","",""
"","1541","audio-keyboard-response","341","749821","0.0-3.0-1.278","../audio/16-7-masc.mp3"," ","","exército.","","","",""
"","null","html-keyboard-response","342","751097","0.0-3.0-0.279-0.279","<span style= ""font-size:30px; font-family: monospace"">+</span>","null","fixation","","","","",""
"","1179","audio-keyboard-response","343","752609","0.0-3.0-1.279","../audio/17-1-fem.mp3"," ","","Falaram","","","",""
"","1000","audio-keyboard-response","344","753905","0.0-3.0-1.280","../audio/17-2-fem.mp3"," ","","da","","","",""
"","1328","audio-keyboard-response","345","755521","0.0-3.0-1.281","../audio/17-3-fem.mp3"," ","","lei","","","",""
"","1280","audio-keyboard-response","346","757078","0.0-3.0-1.282","../audio/17-4-fem.mp3"," ","","no","","","",""
"","1771","audio-keyboard-response","347","759151","0.0-3.0-1.283","../audio/17-5-fem.mp3"," ","","ministério","","","",""
"","1480","audio-keyboard-response","348","760971","0.0-3.0-1.284","../audio/17-6-fem.mp3"," ","","diversas","","","",""
"","1179","audio-keyboard-response","349","762445","0.0-3.0-1.285","../audio/17-7-fem.mp3"," ","","vezes.","","","",""
"","null","html-keyboard-response","350","763714","0.0-3.0-0.286-0.286","<span style= ""font-size:30px; font-family: monospace"">+</span>","null","fixation","","","","",""
"","848","audio-keyboard-response","351","764879","0.0-3.0-1.286","../audio/18-1-masc.mp3"," ","","O","","","",""
"","1709","audio-keyboard-response","352","766894","0.0-3.0-1.287","../audio/18-2-masc.mp3"," ","","enredo","","","",""
"","1019","audio-keyboard-response","353","768213","0.0-3.0-1.288","../audio/18-3-masc.mp3"," ","","traz","","","",""
"","880","audio-keyboard-response","354","769382","0.0-3.0-1.289","../audio/18-4-masc.mp3"," ","","um","","","",""
"","1019","audio-keyboard-response","355","770694","0.0-3.0-1.290","../audio/18-5-masc.mp3"," ","","dragão","","","",""
"","1320","audio-keyboard-response","356","772315","0.0-3.0-1.291","../audio/18-6-masc.mp3"," ","","forte","","","",""
"","1720","audio-keyboard-response","357","774338","0.0-3.0-1.292","../audio/18-7-masc.mp3"," ","","e","","","",""
"","2589","audio-keyboard-response","358","777375","0.0-3.0-1.293","../audio/18-8-masc.mp3"," ","","solitário.","","","",""
"","null","html-keyboard-response","359","778642","0.0-3.0-0.294-0.294","<span style= ""font-size:30px; font-family: monospace"">+</span>","null","fixation","","","","",""
"","811","audio-keyboard-response","360","779755","0.0-3.0-1.294","../audio/19-1-fem.mp3"," ","","O","","","",""
"","1309","audio-keyboard-response","361","781402","0.0-3.0-1.295","../audio/19-2-fem.mp3"," ","","menino","","","",""
"","1360","audio-keyboard-response","362","783058","0.0-3.0-1.296","../audio/19-3-fem.mp3"," ","","ganhou","","","",""
"","1179","audio-keyboard-response","363","784537","0.0-3.0-1.297","../audio/19-4-fem.mp3"," ","","uma","","","",""
"","1179","audio-keyboard-response","364","786000","0.0-3.0-1.298","../audio/19-5-fem.mp3"," ","","bala","","","",""
"","1851","audio-keyboard-response","365","788136","0.0-3.0-1.299","../audio/19-6-fem.mp3"," ","","depois","","","",""
"","1368","audio-keyboard-response","366","789807","0.0-3.0-1.300","../audio/19-7-fem.mp3"," ","","do","","","",""
"","1371","audio-keyboard-response","367","791470","0.0-3.0-1.301","../audio/19-8-fem.mp3"," ","","almoço.","","","",""
"","null","html-keyboard-response","368","792738","0.0-3.0-0.302-0.302","<span style= ""font-size:30px; font-family: monospace"">+</span>","null","fixation","","","","",""
"","141","audio-keyboard-response","369","793184","0.0-3.0-1.302","../audio/20-1-masc.mp3"," ","","O","","","",""
"","1091","audio-keyboard-response","370","794587","0.0-3.0-1.303","../audio/20-2-masc.mp3"," ","","colega","","","",""
"","1200","audio-keyboard-response","371","796086","0.0-3.0-1.304","../audio/20-3-masc.mp3"," ","","parecia","","","",""
"","1451","audio-keyboard-response","372","797835","0.0-3.0-1.305","../audio/20-4-masc.mp3"," ","","muito","","","",""
"","1272","audio-keyboard-response","373","799395","0.0-3.0-1.306","../audio/20-5-masc.mp3"," ","","gripado","","","",""
"","1112","audio-keyboard-response","374","800788","0.0-3.0-1.307","../audio/20-6-masc.mp3"," ","","no","","","",""
"","1339","audio-keyboard-response","375","802417","0.0-3.0-1.308","../audio/20-7-masc.mp3"," ","","dia","","","",""
"","1229","audio-keyboard-response","376","804027","0.0-3.0-1.309","../audio/20-8-masc.mp3"," ","","anterior.","","","",""
"","26554","html-keyboard-response","377","830843","0.0-3.0-2.309-0.309","<span style=""font-size:25px; font-family: monospace"">O colega parecia muito gripado?</span>","s","","","O colega parecia muito gripado?","null","exp-sent","false"
"","null","html-keyboard-response","378","832356","0.0-3.0-0.310-0.310","<span style= ""font-size:30px; font-family: monospace"">+</span>","null","fixation","","","","",""
"","1211","audio-keyboard-response","379","833892","0.0-3.0-1.310","../audio/48-1-fem.mp3"," ","","Ela","","","",""
"","1611","audio-keyboard-response","380","835816","0.0-3.0-1.311","../audio/48-2-fem.mp3"," ","","come","","","",""
"","1320","audio-keyboard-response","381","837438","0.0-3.0-1.312","../audio/48-3-fem.mp3"," ","","feijão","","","",""
"","1061","audio-keyboard-response","382","838784","0.0-3.0-1.313","../audio/48-4-fem.mp3"," ","","com","","","",""
"","1269","audio-keyboard-response","383","840338","0.0-3.0-1.314","../audio/48-5-fem.mp3"," ","","arroz","","","",""
"","1189","audio-keyboard-response","384","841825","0.0-3.0-1.315","../audio/48-6-fem.mp3"," ","","todos","","","",""
"","2320","audio-keyboard-response","385","844525","0.0-3.0-1.316","../audio/48-7-fem.mp3"," ","","os","","","",""
"","2669","audio-keyboard-response","386","847520","0.0-3.0-1.317","../audio/48-8-fem.mp3"," ","","dias.","","","",""
"","null","html-keyboard-response","387","848783","0.0-3.0-0.318-0.318","<span style= ""font-size:30px; font-family: monospace"">+</span>","null","fixation","","","","",""
"","1000","audio-keyboard-response","388","850115","0.0-3.0-1.318","../audio/46-1-fem.mp3"," ","","Meu","","","",""
"","1541","audio-keyboard-response","389","851947","0.0-3.0-1.319","../audio/46-2-fem.mp3"," ","","primo","","","",""
"","1360","audio-keyboard-response","390","853606","0.0-3.0-1.320","../audio/46-3-fem.mp3"," ","","estava","","","",""
"","1461","audio-keyboard-response","391","855355","0.0-3.0-1.321","../audio/46-4-fem.mp3"," ","","muito","","","",""
"","1461","audio-keyboard-response","392","857146","0.0-3.0-1.322","../audio/46-5-fem.mp3"," ","","deprimido","","","",""
"","1160","audio-keyboard-response","393","858596","0.0-3.0-1.323","../audio/46-6-fem.mp3"," ","","no","","","",""
"","1432","audio-keyboard-response","394","860356","0.0-3.0-1.324","../audio/46-7-fem.mp3"," ","","inverno.","","","",""
"","null","html-keyboard-response","395","861625","0.0-3.0-0.325-0.325","<span style= ""font-size:30px; font-family: monospace"">+</span>","null","fixation","","","","",""
"","1339","audio-keyboard-response","396","863253","0.0-3.0-1.325","../audio/49-1-masc.mp3"," ","","Eu","","","",""
"","1229","audio-keyboard-response","397","864779","0.0-3.0-1.326","../audio/49-2-masc.mp3"," ","","quero","","","",""
"","1272","audio-keyboard-response","398","866355","0.0-3.0-1.327","../audio/49-3-masc.mp3"," ","","um","","","",""
"","1339","audio-keyboard-response","399","868017","0.0-3.0-1.328","../audio/49-4-masc.mp3"," ","","lanche","","","",""
"","1229","audio-keyboard-response","400","869588","0.0-3.0-1.329","../audio/49-5-masc.mp3"," ","","duplo","","","",""
"","869","audio-keyboard-response","401","870748","0.0-3.0-1.330","../audio/49-6-masc.mp3"," ","","e","","","",""
"","1200","audio-keyboard-response","402","872244","0.0-3.0-1.331","../audio/49-7-masc.mp3"," ","","um","","","",""
"","1331","audio-keyboard-response","403","873859","0.0-3.0-1.332","../audio/49-8-masc.mp3"," ","","suco.","","","",""
"","null","html-keyboard-response","404","875112","0.0-3.0-0.333-0.333","<span style= ""font-size:30px; font-family: monospace"">+</span>","null","fixation","","","","",""
"","701","audio-keyboard-response","405","876111","0.0-3.0-1.333","../audio/47-1-masc.mp3"," ","","O","","","",""
"","1040","audio-keyboard-response","406","877440","0.0-3.0-1.334","../audio/47-2-masc.mp3"," ","","tio","","","",""
"","1309","audio-keyboard-response","407","879050","0.0-3.0-1.335","../audio/47-3-masc.mp3"," ","","recusou","","","",""
"","989","audio-keyboard-response","408","880329","0.0-3.0-1.336","../audio/47-4-masc.mp3"," ","","a","","","",""
"","2368","audio-keyboard-response","409","883018","0.0-3.0-1.337","../audio/47-5-masc.mp3"," ","","sobremesa","","","",""
"","909","audio-keyboard-response","410","884220","0.0-3.0-1.338","../audio/47-6-masc.mp3"," ","","no","","","",""
"","1219","audio-keyboard-response","411","885768","0.0-3.0-1.339","../audio/47-7-masc.mp3"," ","","almoço.","","","",""
"","null","html-keyboard-response","412","887033","0.0-3.0-0.340-0.340","<span style= ""font-size:30px; font-family: monospace"">+</span>","null","fixation","","","","",""
"","1101","audio-keyboard-response","413","888428","0.0-3.0-1.340","../audio/50-1-masc.mp3"," ","","O","","","",""
"","1379","audio-keyboard-response","414","890131","0.0-3.0-1.341","../audio/50-2-masc.mp3"," ","","pássaro","","","",""
"","1251","audio-keyboard-response","415","891674","0.0-3.0-1.342","../audio/50-3-masc.mp3"," ","","fugiu","","","",""
"","1072","audio-keyboard-response","416","893036","0.0-3.0-1.343","../audio/50-4-masc.mp3"," ","","da","","","",""
"","1360","audio-keyboard-response","417","894695","0.0-3.0-1.344","../audio/50-5-masc.mp3"," ","","gaiola","","","",""
"","1059","audio-keyboard-response","418","896054","0.0-3.0-1.345","../audio/50-6-masc.mp3"," ","","pela","","","",""
"","1419","audio-keyboard-response","419","897764","0.0-3.0-1.346","../audio/50-7-masc.mp3"," ","","portinhola.","","","",""
"","7634","html-keyboard-response","420","905661","0.0-3.0-2.346-0.346","<span style=""font-size:25px; font-family: monospace"">O pássaro fugiu da gaiola?</span>","s","","","O pássaro fugiu da gaiola?","null","exp-sent","false"
"","null","html-keyboard-response","421","907175","0.0-3.0-0.347-0.347","<span style= ""font-size:30px; font-family: monospace"">+</span>","null","fixation","","","","",""
"","261","audio-keyboard-response","422","907796","0.0-3.0-1.347","../audio/23-1-masc.mp3"," ","","Português","","","",""
"","1251","audio-keyboard-response","423","909335","0.0-3.0-1.348","../audio/23-2-masc.mp3"," ","","é","","","",""
"","1211","audio-keyboard-response","424","910836","0.0-3.0-1.349","../audio/23-3-masc.mp3"," ","","um","","","",""
"","1211","audio-keyboard-response","425","912345","0.0-3.0-1.350","../audio/23-4-masc.mp3"," ","","assunto","","","",""
"","1312","audio-keyboard-response","426","913991","0.0-3.0-1.351","../audio/23-5-masc.mp3"," ","","elementar","","","",""
"","1011","audio-keyboard-response","427","915347","0.0-3.0-1.352","../audio/23-6-masc.mp3"," ","","para","","","",""
"","1029","audio-keyboard-response","428","916686","0.0-3.0-1.353","../audio/23-7-masc.mp3"," ","","os","","","",""
"","1061","audio-keyboard-response","429","918030","0.0-3.0-1.354","../audio/23-8-masc.mp3"," ","","alunos.","","","",""
"","null","html-keyboard-response","430","919291","0.0-3.0-0.355-0.355","<span style= ""font-size:30px; font-family: monospace"">+</span>","null","fixation","","","","",""
"","971","audio-keyboard-response","431","920578","0.0-3.0-1.355","../audio/22-1-fem.mp3"," ","","Eu","","","",""
"","1472","audio-keyboard-response","432","922354","0.0-3.0-1.356","../audio/22-2-fem.mp3"," ","","detesto","","","",""
"","1141","audio-keyboard-response","433","923797","0.0-3.0-1.357","../audio/22-3-fem.mp3"," ","","fumaça","","","",""
"","1280","audio-keyboard-response","434","925374","0.0-3.0-1.358","../audio/22-4-fem.mp3"," ","","de","","","",""
"","1411","audio-keyboard-response","435","927138","0.0-3.0-1.359","../audio/22-5-fem.mp3"," ","","cachimbo","","","",""
"","840","audio-keyboard-response","436","928288","0.0-3.0-1.360","../audio/22-6-fem.mp3"," ","","e","","","",""
"","1160","audio-keyboard-response","437","929751","0.0-3.0-1.361","../audio/22-7-fem.mp3"," ","","de","","","",""
"","1240","audio-keyboard-response","438","931368","0.0-3.0-1.362","../audio/22-8-fem.mp3"," ","","cigarro.","","","",""
"","null","html-keyboard-response","439","932636","0.0-3.0-0.363-0.363","<span style= ""font-size:30px; font-family: monospace"">+</span>","null","fixation","","","","",""
"","1560","audio-keyboard-response","440","934514","0.0-3.0-1.363","../audio/21-1-masc.mp3"," ","","Precisamos","","","",""
"","880","audio-keyboard-response","441","935678","0.0-3.0-1.364","../audio/21-2-masc.mp3"," ","","de","","","",""
"","1589","audio-keyboard-response","442","937573","0.0-3.0-1.365","../audio/21-3-masc.mp3"," ","","paciência","","","",""
"","829","audio-keyboard-response","443","938701","0.0-3.0-1.366","../audio/21-4-masc.mp3"," ","","e","","","",""
"","1229","audio-keyboard-response","444","940260","0.0-3.0-1.367","../audio/21-5-masc.mp3"," ","","bondade","","","",""
"","1440","audio-keyboard-response","445","941983","0.0-3.0-1.368","../audio/21-6-masc.mp3"," ","","para","","","",""
"","1368","audio-keyboard-response","446","943647","0.0-3.0-1.369","../audio/21-7-masc.mp3"," ","","um","","","",""
"","1240","audio-keyboard-response","447","945175","0.0-3.0-1.370","../audio/21-8-masc.mp3"," ","","mundo","","","",""
"","1192","audio-keyboard-response","448","946671","0.0-3.0-1.371","../audio/21-9-masc.mp3"," ","","melhor.","","","",""
"","null","html-keyboard-response","449","947939","0.0-3.0-0.372-0.372","<span style= ""font-size:30px; font-family: monospace"">+</span>","null","fixation","","","","",""
"","851","audio-keyboard-response","450","949102","0.0-3.0-1.372","../audio/24-1-fem.mp3"," ","","As","","","",""
"","1309","audio-keyboard-response","451","950722","0.0-3.0-1.373","../audio/24-2-fem.mp3"," ","","crianças","","","",""
"","1000","audio-keyboard-response","452","951999","0.0-3.0-1.374","../audio/24-3-fem.mp3"," ","","vão","","","",""
"","1029","audio-keyboard-response","453","953297","0.0-3.0-1.375","../audio/24-4-fem.mp3"," ","","ao","","","",""
"","1531","audio-keyboard-response","454","955107","0.0-3.0-1.376","../audio/24-5-fem.mp3"," ","","cinema","","","",""
"","1109","audio-keyboard-response","455","956498","0.0-3.0-1.377","../audio/24-6-fem.mp3"," ","","mais","","","",""
"","1309","audio-keyboard-response","456","958081","0.0-3.0-1.378","../audio/24-7-fem.mp3"," ","","tarde.","","","",""
"","null","html-keyboard-response","457","959350","0.0-3.0-0.379-0.379","<span style= ""font-size:30px; font-family: monospace"">+</span>","null","fixation","","","","",""
"","1008","audio-keyboard-response","458","960641","0.0-3.0-1.379","../audio/25-1-masc.mp3"," ","","Ela","","","",""
"","981","audio-keyboard-response","459","961901","0.0-3.0-1.380","../audio/25-2-masc.mp3"," ","","faz","","","",""
"","939","audio-keyboard-response","460","963128","0.0-3.0-1.381","../audio/25-3-masc.mp3"," ","","tanto","","","",""
"","989","audio-keyboard-response","461","964411","0.0-3.0-1.382","../audio/25-4-masc.mp3"," ","","cabelo","","","",""
"","1037","audio-keyboard-response","462","965788","0.0-3.0-1.383","../audio/25-5-masc.mp3"," ","","liso","","","",""
"","949","audio-keyboard-response","463","967056","0.0-3.0-1.384","../audio/25-6-masc.mp3"," ","","quanto","","","",""
"","1200","audio-keyboard-response","464","968554","0.0-3.0-1.385","../audio/25-7-masc.mp3"," ","","cacheado.","","","",""
"","6722","html-keyboard-response","465","975538","0.0-3.0-2.385-0.385","<span style=""font-size:25px; font-family: monospace"">Ela só faz cabelo cacheado?</span>","s","","","Ela só faz cabelo cacheado?","null","exp-sent","false"
"","null","html-keyboard-response","466","977053","0.0-3.0-0.386-0.386","<span style= ""font-size:30px; font-family: monospace"">+</span>","null","fixation","","","","",""
"","741","audio-keyboard-response","467","978145","0.0-3.0-1.386","../audio/64-1-masc.mp3"," ","","O","","","",""
"","920","audio-keyboard-response","468","979520","0.0-3.0-1.387","../audio/64-2-masc.mp3"," ","","dia","","","",""
"","1280","audio-keyboard-response","469","981116","0.0-3.0-1.388","../audio/64-3-masc.mp3"," ","","começou","","","",""
"","952","audio-keyboard-response","470","982388","0.0-3.0-1.389","../audio/64-4-masc.mp3"," ","","com","","","",""
"","1221","audio-keyboard-response","471","983911","0.0-3.0-1.390","../audio/64-5-masc.mp3"," ","","garoa","","","",""
"","1181","audio-keyboard-response","472","985396","0.0-3.0-1.391","../audio/64-6-masc.mp3"," ","","gelada","","","",""
"","1021","audio-keyboard-response","473","986716","0.0-3.0-1.392","../audio/64-7-masc.mp3"," ","","e","","","",""
"","1229","audio-keyboard-response","474","988242","0.0-3.0-1.393","../audio/64-8-masc.mp3"," ","","leve.","","","",""
"","null","html-keyboard-response","475","989505","0.0-3.0-0.394-0.394","<span style= ""font-size:30px; font-family: monospace"">+</span>","null","fixation","","","","",""
"","701","audio-keyboard-response","476","990501","0.0-3.0-1.394","../audio/63-1-fem.mp3"," ","","A","","","",""
"","1320","audio-keyboard-response","477","992104","0.0-3.0-1.395","../audio/63-2-fem.mp3"," ","","chuva","","","",""
"","1339","audio-keyboard-response","478","993729","0.0-3.0-1.396","../audio/63-3-fem.mp3"," ","","entrou","","","",""
"","2069","audio-keyboard-response","479","996088","0.0-3.0-1.397","../audio/63-4-fem.mp3"," ","","pela","","","",""
"","1379","audio-keyboard-response","480","997758","0.0-3.0-1.398","../audio/63-5-fem.mp3"," ","","abertura","","","",""
"","1032","audio-keyboard-response","481","999072","0.0-3.0-1.399","../audio/63-6-fem.mp3"," ","","na","","","",""
"","1251","audio-keyboard-response","482","1000628","0.0-3.0-1.400","../audio/63-7-fem.mp3"," ","","janela.","","","",""
"","null","html-keyboard-response","483","1001893","0.0-3.0-0.401-0.401","<span style= ""font-size:30px; font-family: monospace"">+</span>","null","fixation","","","","",""
"","840","audio-keyboard-response","484","1003746","0.0-3.0-1.401","../audio/62-1-fem.mp3"," ","","As","","","",""
"","1269","audio-keyboard-response","485","1005373","0.0-3.0-1.402","../audio/62-2-fem.mp3"," ","","artesãs","","","",""
"","1080","audio-keyboard-response","486","1006785","0.0-3.0-1.403","../audio/62-3-fem.mp3"," ","","gostam","","","",""
"","1021","audio-keyboard-response","487","1008113","0.0-3.0-1.404","../audio/62-4-fem.mp3"," ","","de","","","",""
"","1651","audio-keyboard-response","488","1010111","0.0-3.0-1.405","../audio/62-5-fem.mp3"," ","","maquiagem","","","",""
"","920","audio-keyboard-response","489","1011332","0.0-3.0-1.406","../audio/62-6-fem.mp3"," ","","e","","","",""
"","939","audio-keyboard-response","490","1012574","0.0-3.0-1.407","../audio/62-7-fem.mp3"," ","","de","","","",""
"","1309","audio-keyboard-response","491","1014175","0.0-3.0-1.408","../audio/62-8-fem.mp3"," ","","crochê.","","","",""
"","null","html-keyboard-response","492","1015439","0.0-3.0-0.409-0.409","<span style= ""font-size:30px; font-family: monospace"">+</span>","null","fixation","","","","",""
"","1069","audio-keyboard-response","493","1016845","0.0-3.0-1.409","../audio/61-1-masc.mp3"," ","","Aquele","","","",""
"","1120","audio-keyboard-response","494","1018259","0.0-3.0-1.410","../audio/61-2-masc.mp3"," ","","senhor","","","",""
"","979","audio-keyboard-response","495","1019533","0.0-3.0-1.411","../audio/61-3-masc.mp3"," ","","é","","","",""
"","7979","audio-keyboard-response","496","1027803","0.0-3.0-1.412","../audio/61-4-masc.mp3"," ","","muito","","","",""
"","1269","audio-keyboard-response","497","1029522","0.0-3.0-1.413","../audio/61-5-masc.mp3"," ","","sovina","","","",""
"","1072","audio-keyboard-response","498","1030868","0.0-3.0-1.414","../audio/61-6-masc.mp3"," ","","e","","","",""
"","1640","audio-keyboard-response","499","1032871","0.0-3.0-1.415","../audio/61-7-masc.mp3"," ","","inflexível.","","","",""
"","null","html-keyboard-response","500","1034138","0.0-3.0-0.416-0.416","<span style= ""font-size:30px; font-family: monospace"">+</span>","null","fixation","","","","",""
"","859","audio-keyboard-response","501","1035298","0.0-3.0-1.416","../audio/65-1-masc.mp3"," ","","O","","","",""
"","1811","audio-keyboard-response","502","1037456","0.0-3.0-1.417","../audio/65-2-masc.mp3"," ","","fantasma","","","",""
"","1400","audio-keyboard-response","503","1039223","0.0-3.0-1.418","../audio/65-3-masc.mp3"," ","","veio","","","",""
"","989","audio-keyboard-response","504","1040525","0.0-3.0-1.419","../audio/65-4-masc.mp3"," ","","da","","","",""
"","1309","audio-keyboard-response","505","1042169","0.0-3.0-1.420","../audio/65-5-masc.mp3"," ","","escuridão","","","",""
"","1021","audio-keyboard-response","506","1043501","0.0-3.0-1.421","../audio/65-6-masc.mp3"," ","","do","","","",""
"","1219","audio-keyboard-response","507","1045087","0.0-3.0-1.422","../audio/65-7-masc.mp3"," ","","armário.","","","",""
"","11836","html-keyboard-response","508","1057175","0.0-3.0-2.422-0.422","<span style=""font-size:25px; font-family: monospace"">O fantasma veio da escuridão do armário?</span>","s","","","O fantasma veio da escuridão do armário?","null","exp-sent","false"
"","null","html-keyboard-response","509","1058696","0.0-3.0-0.423-0.423","<span style= ""font-size:30px; font-family: monospace"">+</span>","null","fixation","","","","",""
"","1189","audio-keyboard-response","510","1060172","0.0-3.0-1.423","../audio/31-1-masc.mp3"," ","","O","","","",""
"","1112","audio-keyboard-response","511","1061594","0.0-3.0-1.424","../audio/31-2-masc.mp3"," ","","padeiro","","","",""
"","1072","audio-keyboard-response","512","1062956","0.0-3.0-1.425","../audio/31-3-masc.mp3"," ","","usou","","","",""
"","1000","audio-keyboard-response","513","1064237","0.0-3.0-1.426","../audio/31-4-masc.mp3"," ","","a","","","",""
"","1160","audio-keyboard-response","514","1065691","0.0-3.0-1.427","../audio/31-5-masc.mp3"," ","","balança","","","",""
"","960","audio-keyboard-response","515","1066949","0.0-3.0-1.428","../audio/31-6-masc.mp3"," ","","o","","","",""
"","1000","audio-keyboard-response","516","1068236","0.0-3.0-1.429","../audio/31-7-masc.mp3"," ","","dia","","","",""
"","1251","audio-keyboard-response","517","1069771","0.0-3.0-1.430","../audio/31-8-masc.mp3"," ","","inteiro.","","","",""
"","null","html-keyboard-response","518","1071025","0.0-3.0-0.431-0.431","<span style= ""font-size:30px; font-family: monospace"">+</span>","null","fixation","","","","",""
"","1600","audio-keyboard-response","519","1072910","0.0-3.0-1.431","../audio/34-1-fem.mp3"," ","","Cobrança","","","",""
"","1371","audio-keyboard-response","520","1074574","0.0-3.0-1.432","../audio/34-2-fem.mp3"," ","","excessiva","","","",""
"","811","audio-keyboard-response","521","1075671","0.0-3.0-1.433","../audio/34-3-fem.mp3"," ","","é","","","",""
"","949","audio-keyboard-response","522","1076904","0.0-3.0-1.434","../audio/34-4-fem.mp3"," ","","um","","","",""
"","1048","audio-keyboard-response","523","1078278","0.0-3.0-1.435","../audio/34-5-fem.mp3"," ","","fardo","","","",""
"","960","audio-keyboard-response","524","1079580","0.0-3.0-1.436","../audio/34-6-fem.mp3"," ","","para","","","",""
"","1120","audio-keyboard-response","525","1081004","0.0-3.0-1.437","../audio/34-7-fem.mp3"," ","","a","","","",""
"","1141","audio-keyboard-response","526","1082475","0.0-3.0-1.438","../audio/34-8-fem.mp3"," ","","cabeça.","","","",""
"","null","html-keyboard-response","527","1083734","0.0-3.0-0.439-0.439","<span style= ""font-size:30px; font-family: monospace"">+</span>","null","fixation","","","","",""
"","109","audio-keyboard-response","528","1084140","0.0-3.0-1.439","../audio/33-1-masc.mp3"," ","","Eles","","","",""
"","1109","audio-keyboard-response","529","1085527","0.0-3.0-1.440","../audio/33-2-masc.mp3"," ","","sabem","","","",""
"","960","audio-keyboard-response","530","1086832","0.0-3.0-1.441","../audio/33-3-masc.mp3"," ","","do","","","",""
"","901","audio-keyboard-response","531","1088027","0.0-3.0-1.442","../audio/33-4-masc.mp3"," ","","seu","","","",""
"","1149","audio-keyboard-response","532","1089485","0.0-3.0-1.443","../audio/33-5-masc.mp3"," ","","privilégio","","","",""
"","1069","audio-keyboard-response","533","1090852","0.0-3.0-1.444","../audio/33-6-masc.mp3"," ","","nessa","","","",""
"","1301","audio-keyboard-response","534","1092464","0.0-3.0-1.445","../audio/33-7-masc.mp3"," ","","confusão.","","","",""
"","null","html-keyboard-response","535","1093724","0.0-3.0-0.446-0.446","<span style= ""font-size:30px; font-family: monospace"">+</span>","null","fixation","","","","",""
"","971","audio-keyboard-response","536","1094994","0.0-3.0-1.446","../audio/32-1-masc.mp3"," ","","A","","","",""
"","1171","audio-keyboard-response","537","1096459","0.0-3.0-1.447","../audio/32-2-masc.mp3"," ","","tia","","","",""
"","1149","audio-keyboard-response","538","1097902","0.0-3.0-1.448","../audio/32-3-masc.mp3"," ","","comprou","","","",""
"","968","audio-keyboard-response","539","1099158","0.0-3.0-1.449","../audio/32-4-masc.mp3"," ","","um","","","",""
"","1040","audio-keyboard-response","540","1100488","0.0-3.0-1.450","../audio/32-5-masc.mp3"," ","","pilão","","","",""
"","1061","audio-keyboard-response","541","1101833","0.0-3.0-1.451","../audio/32-6-masc.mp3"," ","","para","","","",""
"","920","audio-keyboard-response","542","1103045","0.0-3.0-1.452","../audio/32-7-masc.mp3"," ","","a","","","",""
"","1261","audio-keyboard-response","543","1104582","0.0-3.0-1.453","../audio/32-8-masc.mp3"," ","","cozinha.","","","",""
"","null","html-keyboard-response","544","1105850","0.0-3.0-0.454-0.454","<span style= ""font-size:30px; font-family: monospace"">+</span>","null","fixation","","","","",""
"","1109","audio-keyboard-response","545","1107242","0.0-3.0-1.454","../audio/35-1-fem.mp3"," ","","A","","","",""
"","1120","audio-keyboard-response","546","1108652","0.0-3.0-1.455","../audio/35-2-fem.mp3"," ","","receita","","","",""
"","1091","audio-keyboard-response","547","1110028","0.0-3.0-1.456","../audio/35-3-fem.mp3"," ","","para","","","",""
"","811","audio-keyboard-response","548","1111134","0.0-3.0-1.457","../audio/35-4-fem.mp3"," ","","a","","","",""
"","1571","audio-keyboard-response","549","1112984","0.0-3.0-1.458","../audio/35-5-fem.mp3"," ","","preparação","","","",""
"","829","audio-keyboard-response","550","1114096","0.0-3.0-1.459","../audio/35-6-fem.mp3"," ","","do","","","",""
"","989","audio-keyboard-response","551","1115376","0.0-3.0-1.460","../audio/35-7-fem.mp3"," ","","bolo","","","",""
"","741","audio-keyboard-response","552","1116430","0.0-3.0-1.461","../audio/35-8-fem.mp3"," ","","é","","","",""
"","1181","audio-keyboard-response","553","1117902","0.0-3.0-1.462","../audio/35-9-fem.mp3"," ","","leve.","","","",""
"","13488","html-keyboard-response","554","1131642","0.0-3.0-2.462-0.462","<span style=""font-size:25px; font-family: monospace"">A receita do bolo é pesada?</span>","n","","","A receita do bolo é pesada?","null","exp-sent","false"
"","null","html-keyboard-response","555","1133158","0.0-3.0-0.463-0.463","<span style= ""font-size:30px; font-family: monospace"">+</span>","null","fixation","","","","",""
"","1152","audio-keyboard-response","556","1134590","0.0-3.0-1.463","../audio/72-1-fem.mp3"," ","","A","","","",""
"","989","audio-keyboard-response","557","1135921","0.0-3.0-1.464","../audio/72-2-fem.mp3"," ","","vencedora","","","",""
"","1171","audio-keyboard-response","558","1137393","0.0-3.0-1.465","../audio/72-3-fem.mp3"," ","","recebeu","","","",""
"","971","audio-keyboard-response","559","1138654","0.0-3.0-1.466","../audio/72-4-fem.mp3"," ","","um","","","",""
"","1109","audio-keyboard-response","560","1140056","0.0-3.0-1.467","../audio/72-5-fem.mp3"," ","","prêmio","","","",""
"","1240","audio-keyboard-response","561","1141568","0.0-3.0-1.468","../audio/72-6-fem.mp3"," ","","em","","","",""
"","1520","audio-keyboard-response","562","1143398","0.0-3.0-1.469","../audio/72-7-fem.mp3"," ","","dinheiro.","","","",""
"","null","html-keyboard-response","563","1144672","0.0-3.0-0.470-0.470","<span style= ""font-size:30px; font-family: monospace"">+</span>","null","fixation","","","","",""
"","80","audio-keyboard-response","564","1145046","0.0-3.0-1.470","../audio/71-1-masc.mp3"," ","","Minhas","","","",""
"","1440","audio-keyboard-response","565","1146768","0.0-3.0-1.471","../audio/71-2-masc.mp3"," ","","comidas","","","",""
"","1480","audio-keyboard-response","566","1148555","0.0-3.0-1.472","../audio/71-3-masc.mp3"," ","","favoritas","","","",""
"","1451","audio-keyboard-response","567","1150293","0.0-3.0-1.473","../audio/71-4-masc.mp3"," ","","são","","","",""
"","1269","audio-keyboard-response","568","1151850","0.0-3.0-1.474","../audio/71-5-masc.mp3"," ","","morango","","","",""
"","1139","audio-keyboard-response","569","1153280","0.0-3.0-1.475","../audio/71-6-masc.mp3"," ","","e","","","",""
"","1272","audio-keyboard-response","570","1154829","0.0-3.0-1.476","../audio/71-7-masc.mp3"," ","","uva.","","","",""
"","null","html-keyboard-response","571","1156097","0.0-3.0-0.477-0.477","<span style= ""font-size:30px; font-family: monospace"">+</span>","null","fixation","","","","",""
"","1091","audio-keyboard-response","572","1157497","0.0-3.0-1.477","../audio/73-1-fem.mp3"," ","","O","","","",""
"","1200","audio-keyboard-response","573","1158979","0.0-3.0-1.478","../audio/73-2-fem.mp3"," ","","cliente","","","",""
"","1120","audio-keyboard-response","574","1160451","0.0-3.0-1.479","../audio/73-3-fem.mp3"," ","","era","","","",""
"","968","audio-keyboard-response","575","1161760","0.0-3.0-1.480","../audio/73-4-fem.mp3"," ","","um","","","",""
"","1451","audio-keyboard-response","576","1163513","0.0-3.0-1.481","../audio/73-5-fem.mp3"," ","","homem","","","",""
"","1091","audio-keyboard-response","577","1164974","0.0-3.0-1.482","../audio/73-6-fem.mp3"," ","","muito","","","",""
"","1328","audio-keyboard-response","578","1166646","0.0-3.0-1.483","../audio/73-7-fem.mp3"," ","","educado.","","","",""
"","null","html-keyboard-response","579","1167913","0.0-3.0-0.484-0.484","<span style= ""font-size:30px; font-family: monospace"">+</span>","null","fixation","","","","",""
"","1032","audio-keyboard-response","580","1169231","0.0-3.0-1.484","../audio/74-1-fem.mp3"," ","","Este","","","",""
"","1749","audio-keyboard-response","581","1171279","0.0-3.0-1.485","../audio/74-2-fem.mp3"," ","","emprego","","","",""
"","1141","audio-keyboard-response","582","1172707","0.0-3.0-1.486","../audio/74-3-fem.mp3"," ","","é","","","",""
"","1549","audio-keyboard-response","583","1174560","0.0-3.0-1.487","../audio/74-4-fem.mp3"," ","","muito","","","",""
"","1829","audio-keyboard-response","584","1176687","0.0-3.0-1.488","../audio/74-5-fem.mp3"," ","","cansativo","","","",""
"","899","audio-keyboard-response","585","1177884","0.0-3.0-1.489","../audio/74-6-fem.mp3"," ","","a","","","",""
"","1139","audio-keyboard-response","586","1179324","0.0-3.0-1.490","../audio/74-7-fem.mp3"," ","","longo","","","",""
"","1288","audio-keyboard-response","587","1180923","0.0-3.0-1.491","../audio/74-8-fem.mp3"," ","","prazo.","","","",""
"","null","html-keyboard-response","588","1182200","0.0-3.0-0.492-0.492","<span style= ""font-size:30px; font-family: monospace"">+</span>","null","fixation","","","","",""
"","981","audio-keyboard-response","589","1183458","0.0-3.0-1.492","../audio/75-1-fem.mp3"," ","","Só","","","",""
"","1611","audio-keyboard-response","590","1185348","0.0-3.0-1.493","../audio/75-2-fem.mp3"," ","","existe","","","",""
"","1061","audio-keyboard-response","591","1186715","0.0-3.0-1.494","../audio/75-3-fem.mp3"," ","","uma","","","",""
"","1200","audio-keyboard-response","592","1188208","0.0-3.0-1.495","../audio/75-4-fem.mp3"," ","","pessoa","","","",""
"","1088","audio-keyboard-response","593","1189601","0.0-3.0-1.496","../audio/75-5-fem.mp3"," ","","canhota","","","",""
"","1221","audio-keyboard-response","594","1191153","0.0-3.0-1.497","../audio/75-6-fem.mp3"," ","","nesta","","","",""
"","1869","audio-keyboard-response","595","1193326","0.0-3.0-1.498","../audio/75-7-fem.mp3"," ","","cidade.","","","",""
"","8893","html-keyboard-response","596","1202477","0.0-3.0-2.498-0.498","<span style=""font-size:25px; font-family: monospace"">Só existe uma pessoa canhota na cidade?</span>","s","","","Só existe uma pessoa canhota na cidade?","null","exp-sent","false"
"","null","html-keyboard-response","597","1203986","0.0-3.0-0.499-0.499","<span style= ""font-size:30px; font-family: monospace"">+</span>","null","fixation","","","","",""
"","981","audio-keyboard-response","598","1205261","0.0-3.0-1.499","../audio/37-1-fem.mp3"," ","","Eu","","","",""
"","1131","audio-keyboard-response","599","1206702","0.0-3.0-1.500","../audio/37-2-fem.mp3"," ","","adoro","","","",""
"","1269","audio-keyboard-response","600","1208282","0.0-3.0-1.501","../audio/37-3-fem.mp3"," ","","suco","","","",""
"","821","audio-keyboard-response","601","1209385","0.0-3.0-1.502","../audio/37-4-fem.mp3"," ","","de","","","",""
"","899","audio-keyboard-response","602","1210575","0.0-3.0-1.503","../audio/37-5-fem.mp3"," ","","manga","","","",""
"","888","audio-keyboard-response","603","1211768","0.0-3.0-1.504","../audio/37-6-fem.mp3"," ","","com","","","",""
"","1189","audio-keyboard-response","604","1213242","0.0-3.0-1.505","../audio/37-7-fem.mp3"," ","","hortelã.","","","",""
"","null","html-keyboard-response","605","1214504","0.0-3.0-0.506-0.506","<span style= ""font-size:30px; font-family: monospace"">+</span>","null","fixation","","","","",""
"","1101","audio-keyboard-response","606","1215907","0.0-3.0-1.506","../audio/38-1-masc.mp3"," ","","A","","","",""
"","1120","audio-keyboard-response","607","1217316","0.0-3.0-1.507","../audio/38-2-masc.mp3"," ","","empresa","","","",""
"","901","audio-keyboard-response","608","1218502","0.0-3.0-1.508","../audio/38-3-masc.mp3"," ","","criou","","","",""
"","848","audio-keyboard-response","609","1219646","0.0-3.0-1.509","../audio/38-4-masc.mp3"," ","","a","","","",""
"","1131","audio-keyboard-response","610","1221065","0.0-3.0-1.510","../audio/38-5-masc.mp3"," ","","patente","","","",""
"","859","audio-keyboard-response","611","1222205","0.0-3.0-1.511","../audio/38-6-masc.mp3"," ","","da","","","",""
"","1288","audio-keyboard-response","612","1223807","0.0-3.0-1.512","../audio/38-7-masc.mp3"," ","","frigideira.","","","",""
"","null","html-keyboard-response","613","1225066","0.0-3.0-0.513-0.513","<span style= ""font-size:30px; font-family: monospace"">+</span>","null","fixation","","","","",""
"","869","audio-keyboard-response","614","1226217","0.0-3.0-1.513","../audio/39-1-masc.mp3"," ","","O","","","",""
"","1211","audio-keyboard-response","615","1227705","0.0-3.0-1.514","../audio/39-2-masc.mp3"," ","","conselho","","","",""
"","1048","audio-keyboard-response","616","1229047","0.0-3.0-1.515","../audio/39-3-masc.mp3"," ","","foi","","","",""
"","1149","audio-keyboard-response","617","1230540","0.0-3.0-1.516","../audio/39-4-masc.mp3"," ","","muito","","","",""
"","979","audio-keyboard-response","618","1231807","0.0-3.0-1.517","../audio/39-5-masc.mp3"," ","","útil","","","",""
"","981","audio-keyboard-response","619","1233076","0.0-3.0-1.518","../audio/39-6-masc.mp3"," ","","para","","","",""
"","981","audio-keyboard-response","620","1234347","0.0-3.0-1.519","../audio/39-7-masc.mp3"," ","","minha","","","",""
"","1229","audio-keyboard-response","621","1235853","0.0-3.0-1.520","../audio/39-8-masc.mp3"," ","","tia.","","","",""
"","null","html-keyboard-response","622","1237112","0.0-3.0-0.521-0.521","<span style= ""font-size:30px; font-family: monospace"">+</span>","null","fixation","","","","",""
"","1219","audio-keyboard-response","623","1238639","0.0-3.0-1.521","../audio/36-1-masc.mp3"," ","","Meu","","","",""
"","949","audio-keyboard-response","624","1239900","0.0-3.0-1.522","../audio/36-2-masc.mp3"," ","","tio","","","",""
"","1011","audio-keyboard-response","625","1241236","0.0-3.0-1.523","../audio/36-3-masc.mp3"," ","","comprou","","","",""
"","971","audio-keyboard-response","626","1242534","0.0-3.0-1.524","../audio/36-4-masc.mp3"," ","","um","","","",""
"","1109","audio-keyboard-response","627","1243959","0.0-3.0-1.525","../audio/36-5-masc.mp3"," ","","filtro","","","",""
"","971","audio-keyboard-response","628","1245236","0.0-3.0-1.526","../audio/36-6-masc.mp3"," ","","de","","","",""
"","1101","audio-keyboard-response","629","1246634","0.0-3.0-1.527","../audio/36-7-masc.mp3"," ","","água","","","",""
"","1029","audio-keyboard-response","630","1248004","0.0-3.0-1.528","../audio/36-8-masc.mp3"," ","","hoje","","","",""
"","1968","audio-keyboard-response","631","1250279","0.0-3.0-1.529","../audio/36-9-masc.mp3"," ","","cedo.","","","",""
"","null","html-keyboard-response","632","1251549","0.0-3.0-0.530-0.530","<span style= ""font-size:30px; font-family: monospace"">+</span>","null","fixation","","","","",""
"","2008","audio-keyboard-response","633","1253840","0.0-3.0-1.530","../audio/40-1-fem.mp3"," ","","O","","","",""
"","1171","audio-keyboard-response","634","1255344","0.0-3.0-1.531","../audio/40-2-fem.mp3"," ","","jogo","","","",""
"","1069","audio-keyboard-response","635","1256928","0.0-3.0-1.532","../audio/40-3-fem.mp3"," ","","falava","","","",""
"","909","audio-keyboard-response","636","1258146","0.0-3.0-1.533","../audio/40-4-fem.mp3"," ","","de","","","",""
"","1589","audio-keyboard-response","637","1260040","0.0-3.0-1.534","../audio/40-5-fem.mp3"," ","","fantasia","","","",""
"","880","audio-keyboard-response","638","1261199","0.0-3.0-1.535","../audio/40-6-fem.mp3"," ","","e","","","",""
"","859","audio-keyboard-response","639","1262450","0.0-3.0-1.536","../audio/40-7-fem.mp3"," ","","de","","","",""
"","941","audio-keyboard-response","640","1263711","0.0-3.0-1.537","../audio/40-8-fem.mp3"," ","","aventura.","","","",""
"","8356","html-keyboard-response","641","1272329","0.0-3.0-2.537-0.537","<span style=""font-size:25px; font-family: monospace"">O jogo tinha fantasia e aventura?</span>","s","","","O jogo tinha fantasia e aventura?","null","exp-sent","false"
"","null","html-keyboard-response","642","1273840","0.0-3.0-0.538-0.538","<span style= ""font-size:30px; font-family: monospace"">+</span>","null","fixation","","","","",""
"","1352","audio-keyboard-response","643","1275515","0.0-3.0-1.538","../audio/26-1-fem.mp3"," ","","Amanhã","","","",""
"","1051","audio-keyboard-response","644","1276857","0.0-3.0-1.539","../audio/26-2-fem.mp3"," ","","temos","","","",""
"","1128","audio-keyboard-response","645","1278282","0.0-3.0-1.540","../audio/26-3-fem.mp3"," ","","festa","","","",""
"","941","audio-keyboard-response","646","1279516","0.0-3.0-1.541","../audio/26-4-fem.mp3"," ","","na","","","",""
"","1520","audio-keyboard-response","647","1281335","0.0-3.0-1.542","../audio/26-5-fem.mp3"," ","","piscina","","","",""
"","979","audio-keyboard-response","648","1282603","0.0-3.0-1.543","../audio/26-6-fem.mp3"," ","","o","","","",""
"","1171","audio-keyboard-response","649","1284064","0.0-3.0-1.544","../audio/26-7-fem.mp3"," ","","dia","","","",""
"","1240","audio-keyboard-response","650","1285655","0.0-3.0-1.545","../audio/26-8-fem.mp3"," ","","todo.","","","",""
"","null","html-keyboard-response","651","1286919","0.0-3.0-0.546-0.546","<span style= ""font-size:30px; font-family: monospace"">+</span>","null","fixation","","","","",""
"","931","audio-keyboard-response","652","1288129","0.0-3.0-1.546","../audio/28-1-fem.mp3"," ","","O","","","",""
"","1040","audio-keyboard-response","653","1289473","0.0-3.0-1.547","../audio/28-2-fem.mp3"," ","","time","","","",""
"","1440","audio-keyboard-response","654","1291195","0.0-3.0-1.548","../audio/28-3-fem.mp3"," ","","quer","","","",""
"","1859","audio-keyboard-response","655","1293333","0.0-3.0-1.549","../audio/28-4-fem.mp3"," ","","a","","","",""
"","2432","audio-keyboard-response","656","1296075","0.0-3.0-1.550","../audio/28-5-fem.mp3"," ","","vitória","","","",""
"","1221","audio-keyboard-response","657","1297591","0.0-3.0-1.551","../audio/28-6-fem.mp3"," ","","no","","","",""
"","1501","audio-keyboard-response","658","1299379","0.0-3.0-1.552","../audio/28-7-fem.mp3"," ","","jogo","","","",""
"","1179","audio-keyboard-response","659","1300853","0.0-3.0-1.553","../audio/28-8-fem.mp3"," ","","de","","","",""
"","1381","audio-keyboard-response","660","1302498","0.0-3.0-1.554","../audio/28-9-fem.mp3"," ","","vôlei.","","","",""
"","null","html-keyboard-response","661","1303752","0.0-3.0-0.555-0.555","<span style= ""font-size:30px; font-family: monospace"">+</span>","null","fixation","","","","",""
"","1501","audio-keyboard-response","662","1305546","0.0-3.0-1.555","../audio/27-1-fem.mp3"," ","","O","","","",""
"","1240","audio-keyboard-response","663","1307092","0.0-3.0-1.556","../audio/27-2-fem.mp3"," ","","dinheiro","","","",""
"","1261","audio-keyboard-response","664","1308664","0.0-3.0-1.557","../audio/27-3-fem.mp3"," ","","chegou","","","",""
"","880","audio-keyboard-response","665","1309836","0.0-3.0-1.558","../audio/27-4-fem.mp3"," ","","à","","","",""
"","1429","audio-keyboard-response","666","1311557","0.0-3.0-1.559","../audio/27-5-fem.mp3"," ","","elite","","","",""
"","1229","audio-keyboard-response","667","1313089","0.0-3.0-1.560","../audio/27-6-fem.mp3"," ","","deste","","","",""
"","1360","audio-keyboard-response","668","1314724","0.0-3.0-1.561","../audio/27-7-fem.mp3"," ","","país.","","","",""
"","null","html-keyboard-response","669","1315984","0.0-3.0-0.562-0.562","<span style= ""font-size:30px; font-family: monospace"">+</span>","null","fixation","","","","",""
"","1269","audio-keyboard-response","670","1317528","0.0-3.0-1.562","../audio/29-1-fem.mp3"," ","","Hoje","","","",""
"","1131","audio-keyboard-response","671","1318938","0.0-3.0-1.563","../audio/29-2-fem.mp3"," ","","vamos","","","",""
"","1080","audio-keyboard-response","672","1320335","0.0-3.0-1.564","../audio/29-3-fem.mp3"," ","","fazer","","","",""
"","1080","audio-keyboard-response","673","1321701","0.0-3.0-1.565","../audio/29-4-fem.mp3"," ","","uma","","","",""
"","1592","audio-keyboard-response","674","1323633","0.0-3.0-1.566","../audio/29-5-fem.mp3"," ","","atividade","","","",""
"","1432","audio-keyboard-response","675","1325349","0.0-3.0-1.567","../audio/29-6-fem.mp3"," ","","sobre","","","",""
"","1139","audio-keyboard-response","676","1326759","0.0-3.0-1.568","../audio/29-7-fem.mp3"," ","","fauna","","","",""
"","1549","audio-keyboard-response","677","1328599","0.0-3.0-1.569","../audio/29-8-fem.mp3"," ","","marinha.","","","",""
"","null","html-keyboard-response","678","1329865","0.0-3.0-0.570-0.570","<span style= ""font-size:30px; font-family: monospace"">+</span>","null","fixation","","","","",""
"","949","audio-keyboard-response","679","1331100","0.0-3.0-1.570","../audio/30-1-masc.mp3"," ","","O","","","",""
"","1069","audio-keyboard-response","680","1332452","0.0-3.0-1.571","../audio/30-2-masc.mp3"," ","","funcionário","","","",""
"","1309","audio-keyboard-response","681","1334055","0.0-3.0-1.572","../audio/30-3-masc.mp3"," ","","entregou","","","",""
"","1069","audio-keyboard-response","682","1335413","0.0-3.0-1.573","../audio/30-4-masc.mp3"," ","","o","","","",""
"","1771","audio-keyboard-response","683","1337552","0.0-3.0-1.574","../audio/30-5-masc.mp3"," ","","restante","","","",""
"","1112","audio-keyboard-response","684","1338957","0.0-3.0-1.575","../audio/30-6-masc.mp3"," ","","do","","","",""
"","1480","audio-keyboard-response","685","1340721","0.0-3.0-1.576","../audio/30-7-masc.mp3"," ","","dinheiro.","","","",""
"","12361","html-keyboard-response","686","1353340","0.0-3.0-2.576-0.576","<span style=""font-size:25px; font-family: monospace"">O funcionário entregou o contrato?</span>","n","","","O funcionário entregou o contrato?","null","exp-sent","false"
"","null","html-keyboard-response","687","1354859","0.0-3.0-0.577-0.577","<span style= ""font-size:30px; font-family: monospace"">+</span>","null","fixation","","","","",""
"","1008","audio-keyboard-response","688","1356159","0.0-3.0-1.577","../audio/56-1-masc.mp3"," ","","A","","","",""
"","1312","audio-keyboard-response","689","1357749","0.0-3.0-1.578","../audio/56-2-masc.mp3"," ","","moça","","","",""
"","4000","audio-keyboard-response","690","1362046","0.0-3.0-1.579","../audio/56-3-masc.mp3"," ","","foi","","","",""
"","1221","audio-keyboard-response","691","1363554","0.0-3.0-1.580","../audio/56-4-masc.mp3"," ","","à","","","",""
"","1349","audio-keyboard-response","692","1365201","0.0-3.0-1.581","../audio/56-5-masc.mp3"," ","","agência","","","",""
"","1939","audio-keyboard-response","693","1367439","0.0-3.0-1.582","../audio/56-6-masc.mp3"," ","","bancária","","","",""
"","1901","audio-keyboard-response","694","1369635","0.0-3.0-1.583","../audio/56-7-masc.mp3"," ","","ontem","","","",""
"","1541","audio-keyboard-response","695","1371470","0.0-3.0-1.584","../audio/56-8-masc.mp3"," ","","de","","","",""
"","1451","audio-keyboard-response","696","1373189","0.0-3.0-1.585","../audio/56-9-masc.mp3"," ","","tarde.","","","",""
"","null","html-keyboard-response","697","1374444","0.0-3.0-0.586-0.586","<span style= ""font-size:30px; font-family: monospace"">+</span>","null","fixation","","","","",""
"","1299","audio-keyboard-response","698","1376049","0.0-3.0-1.586","../audio/58-1-masc.mp3"," ","","Havia","","","",""
"","1539","audio-keyboard-response","699","1377886","0.0-3.0-1.587","../audio/58-2-masc.mp3"," ","","apenas","","","",""
"","3232","audio-keyboard-response","700","1381395","0.0-3.0-1.588","../audio/58-3-masc.mp3"," ","","um","","","",""
"","1168","audio-keyboard-response","701","1382845","0.0-3.0-1.589","../audio/58-4-masc.mp3"," ","","último","","","",""
"","1301","audio-keyboard-response","702","1384420","0.0-3.0-1.590","../audio/58-5-masc.mp3"," ","","herdeiro","","","",""
"","960","audio-keyboard-response","703","1385666","0.0-3.0-1.591","../audio/58-6-masc.mp3"," ","","do","","","",""
"","1160","audio-keyboard-response","704","1387109","0.0-3.0-1.592","../audio/58-7-masc.mp3"," ","","dinheiro.","","","",""
"","null","html-keyboard-response","705","1388376","0.0-3.0-0.593-0.593","<span style= ""font-size:30px; font-family: monospace"">+</span>","null","fixation","","","","",""
"","149","audio-keyboard-response","706","1388804","0.0-3.0-1.593","../audio/59-1-masc.mp3"," ","","O","","","",""
"","1299","audio-keyboard-response","707","1390416","0.0-3.0-1.594","../audio/59-2-masc.mp3"," ","","carteiro","","","",""
"","1059","audio-keyboard-response","708","1391764","0.0-3.0-1.595","../audio/59-3-masc.mp3"," ","","fez","","","",""
"","981","audio-keyboard-response","709","1393029","0.0-3.0-1.596","../audio/59-4-masc.mp3"," ","","uma","","","",""
"","1120","audio-keyboard-response","710","1394457","0.0-3.0-1.597","../audio/59-5-masc.mp3"," ","","tentativa","","","",""
"","920","audio-keyboard-response","711","1395658","0.0-3.0-1.598","../audio/59-6-masc.mp3"," ","","de","","","",""
"","1109","audio-keyboard-response","712","1397058","0.0-3.0-1.599","../audio/59-7-masc.mp3"," ","","entrega.","","","",""
"","null","html-keyboard-response","713","1398326","0.0-3.0-0.600-0.600","<span style= ""font-size:30px; font-family: monospace"">+</span>","null","fixation","","","","",""
"","1261","audio-keyboard-response","714","1399878","0.0-3.0-1.600","../audio/57-1-fem.mp3"," ","","O","","","",""
"","1299","audio-keyboard-response","715","1401482","0.0-3.0-1.601","../audio/57-2-fem.mp3"," ","","capitão","","","",""
"","1072","audio-keyboard-response","716","1402877","0.0-3.0-1.602","../audio/57-3-fem.mp3"," ","","deu","","","",""
"","1000","audio-keyboard-response","717","1404152","0.0-3.0-1.603","../audio/57-4-fem.mp3"," ","","uma","","","",""
"","1181","audio-keyboard-response","718","1405634","0.0-3.0-1.604","../audio/57-5-fem.mp3"," ","","instrução","","","",""
"","1069","audio-keyboard-response","719","1406979","0.0-3.0-1.605","../audio/57-6-fem.mp3"," ","","para","","","",""
"","949","audio-keyboard-response","720","1408201","0.0-3.0-1.606","../audio/57-7-fem.mp3"," ","","as","","","",""
"","1061","audio-keyboard-response","721","1409557","0.0-3.0-1.607","../audio/57-8-fem.mp3"," ","","pessoas.","","","",""
"","null","html-keyboard-response","722","1410821","0.0-3.0-0.608-0.608","<span style= ""font-size:30px; font-family: monospace"">+</span>","null","fixation","","","","",""
"","51","audio-keyboard-response","723","1411168","0.0-3.0-1.608","../audio/60-1-fem.mp3"," ","","Ondas","","","",""
"","1059","audio-keyboard-response","724","1412526","0.0-3.0-1.609","../audio/60-2-fem.mp3"," ","","têm","","","",""
"","1040","audio-keyboard-response","725","1413867","0.0-3.0-1.610","../audio/60-3-fem.mp3"," ","","um","","","",""
"","1248","audio-keyboard-response","726","1415405","0.0-3.0-1.611","../audio/60-4-fem.mp3"," ","","impacto","","","",""
"","1131","audio-keyboard-response","727","1416832","0.0-3.0-1.612","../audio/60-5-fem.mp3"," ","","destrutivo","","","",""
"","1120","audio-keyboard-response","728","1418283","0.0-3.0-1.613","../audio/60-6-fem.mp3"," ","","no","","","",""
"","1469","audio-keyboard-response","729","1420082","0.0-3.0-1.614","../audio/60-7-fem.mp3"," ","","litoral.","","","",""
"","13054","html-keyboard-response","730","1433390","0.0-3.0-2.614-0.614","<span style=""font-size:25px; font-family: monospace"">Ondas têm um impacto destrutivo?</span>","n","","","Ondas têm um impacto destrutivo?","null","exp-sent","false"
"[{""page_index"":0,""viewing_time"":5041}]","5041","instructions","731","1438956","0.0-4.0","","","","","","","",""
